Ax,Ay,Az,Gx,Gy,Gz,Roll,Pitch,Yaw,Timestamp,Target
-900,-964,15948,-446,147,-149,-11000,4000,165000,607853,
-892,-1008,16020,-494,87,-165,-11000,4000,165000,607866,
-876,-988,15892,-449,68,-166,-11000,4000,165000,607868,
-892,-1056,15904,-466,78,-162,-11000,4000,165000,607870,
-816,-996,15812,-444,-16,-117,-11000,4000,165000,607883,
-856,-996,15948,-493,5,-134,-11000,4000,165000,607885,
-812,-1012,15960,-432,0,-104,-11000,4000,165000,607888,
-824,-1012,16016,-473,73,-162,-11000,4000,165000,607900,
-796,-1024,15928,-461,23,-134,-11000,4000,165000,607902,
-732,-976,15920,-479,79,-120,-11000,4000,165000,607905,
-736,-1088,15900,-473,76,-135,-11000,4000,165000,607917,
-748,-1120,15880,-447,171,-168,-11000,4000,165000,607920,
-752,-928,15900,-491,101,-133,-11000,4000,165000,607922,
-812,-1048,15848,-472,172,-173,-11000,4000,165000,607934,
-840,-896,16032,-502,147,-194,-11000,4000,165000,607936,
-868,-976,16096,-434,181,-188,-11000,4000,165000,607939,
-924,-1032,1,5188,15084,-463,-544,115,11000,-2000,
1340,4944,15140,-180,-388,-93,11000,-2000,197000,614839,
1236,5004,14968,-226,-394,-104,11000,-2000,197000,614841,
136,5128,15460,-1145,-10,-124,-11000,4000,165000,607973,
-820,-1024,15876,-517,23,-140,-11000,4000,165000,607986,
-828,-940,15828,-449,25,-121,-11000,4000,165000,607988,
-860,-1000,15764,-474,49,-126,-11000,4000,165000,607990,
-780,-1064,15968,-442,62,-189,-11000,4000,165000,608003,
-748,-908,15900,-460,89,-176,-11000,4000,165000,608005,
-732,-888,16028,-440,106,-183,-11000,4000,165000,608007,
-832,-1088,15848,-495,155,-156,-11000,4000,164000,608020,
-660,-1016,16052,-442,200,-182,-11000,4000,164000,608022,
-556,-1016,16004,-501,142,-204,-11000,4000,164000,608025,
-672,-976,15840,-464,174,-188,-11000,4000,164000,608037,
-628,-1000,15860,-469,274,-174,-11000,4000,164000,608039,
-824,-1084,15944,-471,205,-210,-11000,4000,164000,608042,
-828,-1024,15884,-463,254,-196,-11000,4000,164000,608054,
-916,-1024,15888,-492,177,-157,-11000,4000,164000,608057,
-916,-1016,15848,-447,218,-182,-11000,4000,164000,608059,
-884,-1064,15816,-460,191,-143,-11000,4000,164000,608071,
-956,-1004,15924,-502,128,-143,-11000,4000,164000,608074,
-860,-968,15892,-455,170,-133,-11000,4000,164000,608076,
-848,-1044,16076,-507,95,-175,-11000,4000,164000,608089,
-972,-1044,15916,-462,117,-119,-11000,4000,164000,608091,
-924,-1048,16016,-515,58,-132,-11000,4000,164000,608093,
-800,-1084,15884,-468,68,-108,-11000,4000,164000,608106,
-780,-1024,15868,-513,52,-142,-11000,4000,164000,608108,
-904,-1052,15916,-466,36,-133,-11000,4000,164000,608110,
-776,-1108,15736,-490,141,-129,-11000,4000,164000,608123,
-772,-1064,15912,-499,103,-149,-11000,4000,164000,608125,
-784,-1096,15932,-467,164,-127,-11000,4000,164000,608128,
-852,-968,15860,-441,194,-174,-11000,4000,164000,608140,
-880,-1004,15820,-501,200,-140,-11000,4000,164000,608143,
-936,-1000,15924,-447,234,-148,-11000,4000,164000,608145,
-836,-956,15996,-503,185,-159,-11000,4000,164000,608157,
-920,-1044,15896,-484,180,-145,-11000,4000,164000,608159,
-956,-1024,15908,-517,194,-162,-11000,4000,164000,608162,
-824,-952,16032,-467,196,-137,-11000,4000,164000,608174,
-904,-1016,15788,-518,193,-128,-11000,4000,164000,608177,
-896,-1004,15856,-474,168,-152,-11000,4000,164000,608179,
-780,-984,15892,-486,200,-147,-11000,4000,164000,608192,
-696,-1008,15884,-478,143,-163,-11000,4000,164000,608194,
-828,-984,15720,-495,187,-149,-11000,4000,164000,608196,
-808,-896,15820,-509,237,-137,-11000,4000,164000,608209,
-836,-1000,15992,-516,203,-160,-11000,4000,164000,608211,
-832,-1088,15984,-497,196,-110,-11000,4000,164000,608213,
-804,-1104,15860,-454,184,-143,-11000,4000,164000,608226,
-796,-1048,15804,-498,230,-156,-11000,4000,164000,608228,
-820,-1056,15860,-503,179,-150,-11000,4000,164000,608230,
-984,-1016,15888,-505,203,-139,-11000,4000,164000,608243,
-944,-1108,15864,-455,240,-152,-11000,4000,164000,608245,
-908,-968,15768,-496,201,-172,-11000,4000,164000,608247,
-924,-1192,15976,-442,220,-159,-11000,4000,164000,608260,
-964,-1108,16020,-525,118,-141,-11000,4000,164000,608262,
-916,-1056,16112,-445,177,-122,-11000,4000,164000,608265,
-972,-1108,15904,-483,105,-143,-11000,4000,164000,608277,
-1004,-1108,15860,-459,161,-132,-11000,4000,164000,608279,
-864,-1032,15920,-519,108,-139,-11000,4000,164000,608282,
-892,-1088,15940,-463,101,-108,-11000,4000,164000,608294,
-812,-940,15816,-486,173,-103,-11000,4000,164000,608297,
-796,-972,15840,-503,105,-117,-11000,4000,164000,608299,
-860,-1040,15844,-504,209,-115,-11000,4000,164000,608312,
-680,-976,15888,-472,173,-95,-11000,4000,164000,608314,
-716,-964,15952,-478,241,-107,-11000,4000,164000,608316,
-792,-984,15912,-457,275,-131,-11000,4000,164000,608329,
-812,-960,15968,-511,271,-152,-11000,4000,164000,608331,
-772,-976,15940,-467,292,-136,-11000,4000,164000,608333,
-936,-1020,15932,-525,261,-144,-11000,4000,164000,608346,
-824,-1032,15888,-462,313,-123,-11000,4000,164000,608348,
-880,-1064,15988,-498,276,-124,-11000,4000,164000,608350,
-980,-1084,15928,-449,271,-140,-11000,4000,164000,608363,
-952,-1100,15976,-495,263,-122,-11000,4000,164000,608365,
-992,-1068,15968,-456,265,-153,-11000,4000,164000,608367,
-1004,-1088,15964,-506,168,-126,-11000,4000,164000,608380,
-1004,-1172,15900,-460,189,-120,-11000,4000,164000,608382,
-996,-1080,16020,-525,139,-111,-11000,4000,164000,608385,
-916,-1092,15932,-451,185,-128,-11000,4000,164000,608397,
-1004,-1044,15900,-513,119,-150,-11000,4000,164000,608400,
-916,-1132,15900,-432,154,-122,-11000,4000,164000,608402,
-944,-980,15736,-495,109,-153,-11000,4000,164000,608415,
-856,-1000,16004,-462,209,-132,-11000,4000,164000,608417,
-960,-1056,16044,-522,85,-125,-11000,4000,164000,608419,
-920,-992,16116,-474,157,-111,-11000,4000,164000,608432,
-924,-1000,15944,-529,87,-112,-11000,4000,164000,608434,
-928,-1112,15904,-442,133,-110,-11000,4000,164000,608436,
-888,-1032,15856,-494,119,-133,-11000,4000,164000,608449,
-844,-1068,16016,-459,117,-142,-11000,4000,164000,608451,
-764,-1132,15820,-488,167,-140,-11000,4000,164000,608453,
-912,-956,16000,-455,159,-137,-11000,4000,164000,608466,
-888,-1072,15852,-476,170,-155,-11000,4000,164000,608468,
-992,-1052,15876,-453,135,-151,-11000,4000,164000,608471,
-964,-996,15792,-495,118,-144,-11000,4000,164000,608483,
-952,-1100,15872,-448,136,-155,-11000,4000,164000,608485,
-932,-1164,15852,-521,89,-148,-11000,4000,164000,608488,
-1000,-960,15972,-425,96,-144,-11000,4000,164000,608500,
-972,-1036,15964,-521,30,-146,-11000,4000,164000,608503,
-924,-1132,15964,-443,113,-145,-11000,4000,164000,608505,
-896,-1068,15924,-514,19,-116,-11000,4000,164000,608518,
-872,-1108,15760,-455,73,-141,-11000,4000,164000,608520,
-848,-1060,15876,-487,65,-121,-11000,4000,164000,608522,
-832,-1112,15888,-464,74,-163,-11000,4000,164000,608535,
-852,-1044,15964,-442,149,-140,-11000,4000,164000,608537,
-988,-1008,15888,-477,80,-146,-11000,4000,164000,608539,
-752,-1004,15936,-454,164,-160,-11000,4000,164000,608551,
-916,-988,15908,-495,142,-160,-11000,4000,164000,608554,
-904,-1096,16000,-427,170,-182,-11000,4000,164000,608556,
-960,-1080,15828,-464,194,-177,-11000,4000,164000,608568,
-968,-992,15908,-484,121,-139,-11000,4000,164000,608571,
-980,-1104,15968,-428,214,-152,-11000,4000,164000,608573,
-972,-972,15988,-492,58,-117,-11000,4000,164000,608585,
-1028,-1036,15756,-440,100,-138,-11000,4000,164000,608588,
-956,-996,15928,-505,17,-153,-11000,4000,164000,608590,
-860,-1008,15992,-421,80,-148,-11000,4000,164000,608603,
-816,-968,15924,-477,48,-145,-11000,4000,164000,608605,
-888,-916,15832,-449,27,-154,-11000,4000,164000,608607,
-748,-920,16012,-498,86,-157,-11000,4000,164000,608620,
-784,-1076,15920,-458,102,-152,-11000,4000,164000,608622,
-916,-1032,15820,-491,114,-147,-11000,4000,164000,608624,
-896,-1048,15728,-447,188,-152,-11000,4000,164000,608637,
-824,-988,15796,-481,213,-189,-11000,4000,164000,608639,
-880,-1136,15800,-488,169,-164,-11000,4000,164000,608641,
-904,-1008,15860,-429,217,-149,-11000,4000,164000,608654,
-856,-1024,15844,-489,158,-188,-11000,4000,164000,608656,
-900,-972,15732,-416,166,-136,-11000,4000,164000,608659,
-948,-972,15920,-425,146,-139,-11000,4000,164000,608671,
-1028,-984,15904,-486,98,-154,-11000,4000,164000,608673,
-1016,-1028,15980,-454,131,-141,-11000,4000,164000,608676,
-768,-1004,16044,-504,57,-162,-11000,4000,164000,608688,
-1008,-988,15932,-444,119,-149,-11000,4000,164000,608691,
-848,-976,15888,-510,47,-168,-11000,4000,164000,608693,
-784,-1056,15940,-437,123,-152,-11000,4000,164000,608705,
-768,-1048,15844,-499,63,-168,-11000,4000,164000,608708,
-788,-1120,15872,-469,112,-166,-11000,4000,164000,608710,
-964,-1072,15912,-491,144,-160,-11000,4000,164000,608722,
-888,-1112,15864,-446,131,-144,-11000,4000,164000,608725,
-916,-1020,15776,-502,150,-171,-11000,4000,164000,608727,
-992,-1036,15812,-457,154,-120,-11000,4000,164000,608739,
-816,-1040,15980,-471,160,-132,-11000,4000,164000,608742,
-812,-1036,15960,-490,71,-133,-11000,4000,164000,608744,
-892,-944,16012,-477,122,-116,-11000,4000,164000,608757,
-836,-960,15972,-470,75,-142,-11000,4000,164000,608759,
-712,-1004,15924,-460,151,-140,-11000,4000,164000,608761,
-732,-1040,15884,-504,120,-146,-11000,4000,164000,608774,
-836,-896,15808,-476,149,-140,-11000,4000,164000,608776,
-868,-1068,15984,-502,96,-132,-11000,4000,164000,608778,
-804,-1028,15932,-461,190,-158,-11000,4000,164000,608791,
-876,-1004,16016,-523,174,-142,-11000,4000,164000,608793,
-680,-992,15792,-442,221,-119,-11000,4000,164000,608795,
-980,-964,15656,-519,105,-95,-11000,4000,164000,608808,
-940,-1040,15872,-486,188,-101,-11000,4000,164000,608810,
-864,-1084,15904,-501,106,-97,-11000,4000,164000,608812,
-848,-1088,16032,-460,118,-72,-11000,4000,164000,608825,
-848,-1000,15964,-475,98,-107,-11000,4000,164000,608827,
-988,-1052,16012,-462,65,-110,-11000,4000,164000,608829,
-968,-1104,15756,-452,111,-131,-11000,4000,164000,608842,
-1008,-1080,15876,-481,10,-137,-11000,4000,164000,608844,
-948,-1112,15776,-457,74,-133,-11000,4000,164000,608846,
-1108,-1112,15944,-526,-69,-122,-11000,4000,164000,608859,
-1184,-1116,15948,-441,-32,-108,-11000,4000,164000,608861,
-1124,-1120,15900,-516,-68,-121,-11000,4000,164000,608864,
-1112,-1020,16156,-480,-262,-106,-11000,4000,164000,608876,
-984,-960,16052,-527,-329,-96,-11000,4000,164000,608879,
-1096,-1024,16136,-498,-357,-114,-11000,4000,164000,608881,
-732,-1060,16132,-635,-365,-101,-11000,4000,164000,608893,
-624,-1116,16036,-605,-311,-94,-11000,4000,164000,608896,
-560,-1056,16000,-628,-204,-91,-11000,4000,164000,608898,
-308,-1112,16156,-641,185,-141,-11000,4000,164000,608911,
-352,-1080,16152,-679,208,-166,-11000,4000,164000,608913,
-392,-1012,16144,-637,337,-181,-11000,4000,164000,608915,
-740,-980,15980,-704,454,-156,-11000,4000,164000,608928,
-936,-980,15924,-633,468,-172,-11000,4000,164000,608930,
-952,-952,15880,-681,394,-161,-11000,4000,164000,608932,
-1116,-1024,15920,-590,369,-78,-11000,4000,164000,608945,
-1080,-1064,15828,-642,254,-81,-11000,4000,164000,608947,
-1148,-1136,15904,-626,252,-65,-11000,4000,164000,608950,
-1304,-1100,15872,-617,129,-63,-11000,4000,164000,608962,
-1184,-1080,15724,-636,4,-85,-11000,4000,164000,608965,
-1316,-1072,15804,-620,9,-77,-11000,4000,164000,608967,
-1660,-1036,16936,-696,-321,-11,-11000,4000,164000,608979,
-1884,-984,17080,-733,-344,-21,-11000,4000,164000,608982,
-1784,-920,16924,-710,-415,-2,-11000,4000,164000,608984,
-1716,-1096,17488,-825,-1176,162,-11000,4000,164000,608997,
-1716,-1104,17808,-831,-1406,207,-11000,4000,164000,608999,
-1800,-1072,17924,-887,-1544,250,-11000,4000,164000,609001,
-2048,-1216,18440,-1003,-2246,296,-11000,4000,164000,609014,
-2092,-1248,18584,-1039,-2374,365,-11000,4000,164000,609016,
-2056,-1112,18408,-924,-2498,442,-11000,4000,164000,609019,
-2152,-1284,18340,-827,-3398,780,-11000,3000,164000,609031,
-2116,-1368,18048,-716,-3524,769,-11000,3000,164000,609034,
-2140,-1380,17872,-779,-3706,766,-11000,3000,164000,609036,
-2100,-1480,16892,-497,-4442,621,-11000,3000,164000,609049,
-2164,-1540,16712,-449,-4353,660,-11000,3000,164000,609051,
-2020,-1588,16680,-410,-4292,713,-11000,3000,164000,609053,
-2192,-1524,16832,-47,-3143,1111,-11000,2000,164000,609066,
-2360,-1684,16776,80,-2782,1159,-11000,2000,164000,609068,
-2544,-1508,17052,192,-2494,1124,-11000,2000,164000,609070,
-3528,-1688,17492,650,-1166,969,-11000,2000,165000,609083,
-3572,-1684,17740,630,-888,989,-11000,2000,165000,609085,
-3572,-1600,17864,728,-767,1022,-11000,2000,165000,609088,
-3608,-1976,18216,1154,-685,973,-11000,2000,165000,609100,
-3552,-2124,18028,1271,-238,967,-11000,2000,165000,609103,
-3312,-2288,17972,1545,611,1102,-11000,2000,165000,609105,
-2556,-1888,17384,1715,1829,2241,-10000,3000,165000,609117,
-3068,-2136,18004,1792,1974,2475,-10000,3000,165000,609120,
-3704,-2332,18352,2219,2210,2606,-10000,3000,165000,609122,
-5076,-1596,17684,2958,2390,3322,-10000,3000,165000,609134,
-5232,-1496,17776,3119,2267,3440,-10000,3000,165000,609137,
-5252,-1368,18180,3217,2033,3580,-10000,3000,165000,609139,
-5016,-524,18272,3539,1081,4446,-9000,3000,166000,609151,
-4932,-448,18540,3584,1085,4684,-9000,3000,166000,609154,
-4904,-160,18452,3725,879,4836,-9000,4000,166000,609156,
-4396,220,18560,3643,612,5650,-9000,4000,166000,609169,
-4240,240,18524,3615,636,5789,-9000,4000,167000,609171,
-4320,232,18568,3523,737,5920,-9000,4000,167000,609173,
-3580,236,18040,3603,294,6552,-8000,4000,167000,609186,
-3520,244,17904,3600,386,6566,-8000,4000,167000,609188,
-3328,76,17700,3580,269,6614,-8000,4000,167000,609190,
-2840,-456,16960,3739,164,6682,-8000,4000,168000,609203,
-2780,-512,16776,3773,120,6769,-7000,4000,168000,609205,
-2712,-468,16532,3888,241,6882,-7000,4000,168000,609208,
-1648,20,15480,4589,1138,7669,-7000,4000,169000,609220,
-1616,204,15424,4710,1516,7758,-7000,4000,169000,609222,
-1592,196,15204,4751,1953,7776,-7000,5000,169000,609225,
-1768,808,14700,5390,3653,7591,-6000,5000,170000,609237,
-1992,1000,14572,5471,4072,7502,-6000,5000,170000,609239,
-1984,908,14796,5613,4474,7508,-6000,5000,170000,609242,
-3152,972,14588,6119,6031,7690,-5000,6000,171000,609254,
-3568,1092,14312,6305,6250,7734,-5000,6000,171000,609257,
-3664,1280,14340,6248,6333,7801,-5000,6000,171000,609259,
-3160,1804,14540,6311,6579,8067,-4000,7000,172000,609272,
-3080,1888,14540,6187,6516,8101,-4000,7000,172000,609274,
-2916,2092,14784,6175,6550,8162,-4000,7000,172000,609276,
-1976,3116,15064,5732,6729,8168,-3000,8000,173000,609289,
-1684,3276,15092,5661,6694,8098,-3000,8000,173000,609291,
-1664,3336,15200,5552,6654,7966,-3000,8000,173000,609293,
-2056,4200,15168,4839,5788,7184,-2000,9000,174000,609306,
-2092,4444,15104,4652,5649,7039,-2000,9000,174000,609308,
-2212,4648,15024,4549,5483,6984,-2000,9000,174000,609311,
-2792,4592,15292,3631,4388,6632,-1000,9000,175000,609323,
-2764,4544,15256,3462,4242,6605,-1000,9000,175000,609325,
-2720,4416,15348,3244,4043,6549,-1000,9000,175000,609328,
-2256,4280,15132,2301,3311,7032,0,10000,176000,609340,
-2196,4292,15116,2155,3241,7113,0,10000,176000,609343,
-2072,4452,14800,1958,3008,7188,0,10000,176000,609345,
-1368,4952,14708,1292,2577,7106,0,10000,177000,609357,
-1340,5016,14728,1145,2417,7063,0,10000,177000,609360,
-1264,5012,14580,1078,2378,6982,0,10000,177000,609362,
-1400,5064,14696,941,2222,6958,0,10000,177000,609364,
-2036,4944,15048,379,1952,6744,0,10000,178000,609377,
-2204,5072,15192,216,1803,6720,0,10000,178000,609379,
-2156,5024,15204,160,1762,6713,0,10000,178000,609382,
-1612,4880,16148,-1783,-1444,5845,0,10000,180000,609418,
-800,4904,16560,-2491,-2151,5338,0,10000,180000,609430,
-560,4960,16360,-2564,-2056,5215,0,10000,181000,609432,
-492,5028,16628,-2761,-2128,5126,0,10000,181000,609435,
1708,5092,15140,-415,-423,149,11000,-2000,196000,614976,
1616,5140,15188,-465,-508,125,11000,-2000,196000,614978,
1776,5120,15152,-385,-461,136,11000,-2000,196000,614980,
1600,5100,14988,-369,-588,95,11000,-2000,196000,614993,
1592,5140,15064,-297,-586,90,11000,-2000,196000,614995,
1480,5132,15144,-341,-640,66,11000,-2000,196000,614997,
1584,5180,15048,-308,-679,61,11000,-2000,196000,615010,
1616,5184,15068,-332,-787,69,11000,-2000,196000,615012,
1600,5212,15032,-299,-692,67,11000,-2000,196000,615014,
1776,5228,15088,-381,-695,37,11000,-3000,196000,615027,
1736,5316,15096,-340,-641,34,11000,-3000,196000,615029,
1644,5348,15072,-392,-655,21,11000,-3000,196000,615032,
1736,5300,15004,-449,-670,14,11000,-3000,196000,615044,
1696,5272,15020,-484,-601,-32,11000,-3000,196000,615047,
1748,5252,15020,-495,-653,-13,11000,-3000,196000,615049,
1860,5092,14948,-461,-559,2,11000,-3000,196000,615061,
1980,5136,14988,-470,-604,16,11000,-3000,196000,615064,
1848,5080,14976,-437,-548,40,11000,-3000,196000,615066,
1836,5100,15032,-390,-505,-19,11000,-3000,196000,615079,
1808,5104,14940,-326,-463,-51,11000,-3000,196000,615081,
1812,4984,15032,-382,-530,-62,11000,-3000,196000,615083,
1724,5132,15092,-275,-385,-57,11000,-3000,196000,615096,
1808,5152,15156,-317,-404,-34,11000,-3000,196000,615098,
1824,5092,15060,-284,-361,-17,11000,-3000,196000,615100,
1688,5240,15012,-344,-381,-1,11000,-3000,196000,615112,
1756,5204,15004,-294,-280,-19,11000,-3000,196000,615115,
1808,5144,14988,-349,-332,-5,11000,-3000,196000,615117,
1716,5116,15040,-354,-281,26,11000,-3000,196000,615129,
1724,5124,14984,-426,-327,13,11000,-3000,196000,615132,
1748,5064,14944,-348,-277,56,11000,-3000,196000,615134,
1740,5252,15064,-381,-309,81,11000,-3000,196000,615146,
1796,5144,14888,-383,-312,80,11000,-3000,196000,615149,
1688,5240,15092,-403,-317,66,11000,-3000,196000,615151,
1636,5244,15056,-357,-445,51,11000,-3000,196000,615163,
1552,5300,15000,-386,-445,46,11000,-3000,196000,615166,
1724,5364,15128,-361,-548,33,11000,-3000,196000,615168,
1680,5216,15024,-405,-781,-17,11000,-3000,196000,615181,
1800,5204,14848,-364,-697,-6,11000,-3000,196000,615183,
1792,5248,14872,-386,-766,-12,11000,-3000,196000,615185,
1940,5144,15100,-272,-531,12,11000,-3000,196000,615198,
1908,5108,15176,-235,-475,10,11000,-3000,196000,615200,
1988,5104,15060,-268,-537,-32,11000,-3000,196000,615202,
1440,5180,15016,-488,-793,-91,11000,-4000,196000,615215,
1488,5232,15300,-448,-712,-44,11000,-4000,196000,615217,
1480,5444,15240,-379,-669,-40,11000,-4000,196000,615220,
2088,5248,15200,-343,-424,26,11000,-4000,196000,615232,
2132,5140,15048,-400,-353,8,11000,-4000,196000,615234,
2196,5208,15296,-342,-265,-17,11000,-4000,196000,615236,
2076,5180,15272,-310,259,-12,11000,-4000,196000,615249,
1916,5148,15064,-300,236,60,11000,-4000,196000,615251,
1828,5144,14972,-319,317,83,11000,-4000,196000,615254,
1324,5164,14792,-354,33,267,11000,-4000,196000,615266,
1232,5084,14900,-399,-84,213,11000,-4000,196000,615268,
1288,5024,14804,-372,-166,181,11000,-4000,196000,615271,
1704,5008,14936,-384,-553,130,11000,-4000,196000,615283,
1708,5040,14832,-328,-504,104,11000,-4000,196000,615285,
1860,5120,14868,-386,-585,115,11000,-4000,196000,615287,
2220,5264,15492,-310,-416,160,11000,-4000,196000,615300,
2096,5232,15360,-344,-441,153,11000,-4000,196000,615302,
2088,5284,15320,-290,-341,163,11000,-4000,196000,615304,
1972,5172,15464,-313,-181,115,11000,-4000,196000,615317,
1944,5056,15352,-270,-176,128,11000,-4000,196000,615319,
1996,5180,15356,-293,-149,81,11000,-4000,196000,615321,
2052,4892,15392,-178,-43,82,11000,-4000,196000,615334,
2112,4924,15292,-189,60,97,11000,-4000,196000,615336,
2160,5044,15384,-154,10,90,11000,-4000,196000,615339,
2212,5040,15324,-132,119,123,11000,-4000,196000,615341,
2256,5240,15116,-44,313,243,11000,-4000,196000,615353,
2104,5124,15220,7,414,222,11000,-4000,196000,615356,
2104,5216,15216,-48,352,240,11000,-4000,196000,615358,
1916,5256,15020,-79,367,231,11000,-4000,196000,615371,
1872,5360,15188,-151,234,259,11000,-4000,196000,615373,
1868,5352,15148,-123,237,236,11000,-4000,196000,615375,
1880,5160,15120,-259,-17,259,11000,-4000,196000,615388,
1952,5128,14972,-193,2,248,11000,-4000,196000,615390,
1884,5184,15000,-262,-86,265,11000,-4000,196000,615393,
2128,4872,14940,-225,-69,244,12000,-4000,196000,615405,
2060,4876,14884,-190,-80,245,12000,-4000,196000,615407,
2132,4952,14920,-194,-51,229,12000,-4000,196000,615410,
2248,4800,14672,-105,57,233,12000,-4000,196000,615422,
2244,4796,14624,-127,157,202,12000,-4000,196000,615424,
2272,4784,14524,-114,166,228,12000,-4000,196000,615427,
2488,4580,14100,-67,631,339,12000,-4000,196000,615439,
2572,4568,13980,1,806,371,12000,-4000,196000,615441,
2744,4608,13856,-53,844,426,12000,-4000,196000,615444,
2868,4528,13704,-36,912,426,12000,-4000,196000,615446,
2968,4364,13052,2,1551,588,12000,-4000,197000,615458,
3096,4276,12896,45,1616,634,12000,-4000,197000,615461,
3292,4212,12764,79,1771,608,12000,-4000,197000,615463,
3360,3700,11912,295,2066,570,12000,-4000,197000,615476,
3312,3628,11884,291,2083,579,12000,-4000,197000,615478,
3280,3316,11424,285,2113,583,12000,-4000,197000,615480,
3628,1944,10056,609,2378,824,12000,-4000,197000,615493,
3552,1780,9612,632,2355,909,12000,-4000,197000,615495,
3648,1516,9032,778,2464,1000,12000,-4000,197000,615497,
4248,1324,7676,1265,3027,1601,12000,-3000,197000,615510,
4448,1460,7304,1367,3135,1689,12000,-3000,197000,615512,
4488,1668,6980,1370,3308,1781,12000,-3000,197000,615514,
4672,2656,6172,1328,3804,2127,12000,-3000,197000,615527,
4544,2776,5996,1247,3778,2149,12000,-3000,198000,615529,
4408,2884,5772,1195,3798,2180,12000,-3000,198000,615532,
4288,2928,5516,400,3575,2240,12000,-3000,198000,615544,
4256,2972,5336,295,3540,2266,12000,-3000,198000,615546,
4116,2892,5336,114,3428,2298,12000,-3000,198000,615549,
3864,2824,5836,-794,3108,2544,12000,-3000,198000,615561,
3848,2840,5976,-1011,2982,2598,12000,-3000,198000,615564,
3832,2864,6044,-1243,2985,2662,12000,-3000,198000,615566,
3784,2244,6428,-2294,2459,2919,12000,-3000,199000,615578,
3800,2156,6560,-2418,2519,2904,12000,-3000,199000,615581,
3616,2092,6552,-2657,2432,2896,12000,-3000,199000,615583,
3468,1584,6400,-3520,2608,2996,12000,-3000,199000,615596,
3544,1564,6388,-3743,2630,3029,11000,-3000,199000,615598,
3400,1416,6568,-3853,2655,3099,11000,-3000,199000,615600,
3708,1056,6504,-4658,2598,3229,11000,-3000,200000,615613,
3796,1076,6384,-4788,2629,3184,11000,-3000,200000,615615,
3892,948,6468,-4930,2719,3155,11000,-3000,200000,615617,
4508,1268,6364,-5618,3261,2910,10000,-3000,200000,615630,
4768,1500,6368,-5776,3373,2873,10000,-3000,200000,615632,
4844,1564,6300,-5832,3575,2820,10000,-3000,200000,615635,
4948,2296,6916,-6411,4842,2566,9000,-3000,201000,615647,
4720,2440,7052,-6574,4973,2432,9000,-3000,201000,615650,
4660,2516,7184,-6661,5201,2275,9000,-2000,201000,615652,
4204,2128,8116,-7764,5339,1026,8000,-2000,201000,615664,
4036,1816,8264,-7913,5263,735,8000,-2000,201000,615667,
3960,1720,8312,-8123,5196,495,8000,-2000,201000,615669,
3404,932,8868,-9057,4703,-795,7000,-2000,201000,615681,
3288,924,8952,-9239,4575,-995,7000,-2000,201000,615684,
3340,664,9036,-9444,4453,-1207,7000,-2000,201000,615686,
4108,176,9300,-10302,4599,-2250,6000,-1000,201000,615698,
4268,148,9072,-10476,4737,-2464,6000,-1000,201000,615701,
4280,96,9192,-10575,4980,-2658,6000,-1000,201000,615703,
3864,1156,9112,-11140,6246,-3551,5000,-1000,200000,615715,
3612,1460,8996,-11296,6445,-3730,4000,0,200000,615718,
3424,1664,9100,-11402,6648,-3898,4000,0,200000,615720,
1976,2240,9880,-12347,6495,-4837,3000,0,200000,615732,
1740,2260,10020,-12442,6351,-4978,3000,0,200000,615734,
1268,2380,10384,-12757,6110,-5141,3000,0,200000,615737,
44,1864,12008,-14356,4398,-6349,1000,0,199000,615749,
56,1616,12468,-14671,4062,-6565,1000,0,199000,615751,
40,1216,12864,-14946,3831,-6821,1000,0,199000,615754,
136,1048,13064,-15193,3563,-7061,1000,0,199000,615756,
780,-456,14060,-16039,2892,-8144,0,0,198000,615768,
912,-760,14240,-16186,2857,-8370,0,0,198000,615771,
1164,-888,14348,-16154,2941,-8559,-1000,0,198000,615773,
1608,-1624,14152,-16568,3635,-10058,-2000,1000,197000,615786,
1548,-1580,14244,-16601,3958,-10302,-3000,1000,197000,615788,
1608,-1660,14316,-16716,4163,-10631,-3000,1000,196000,615790,
860,-1000,15048,-16561,5751,-11464,-4000,1000,195000,615803,
668,-1096,15188,-16691,6019,-11554,-5000,1000,195000,615805,
400,-828,15644,-16755,6342,-11629,-5000,1000,195000,615808,
-1960,-416,17832,-16971,7061,-11814,-7000,2000,194000,615820,
-2160,-404,17920,-17126,7145,-11871,-7000,2000,193000,615822,
-2744,-572,18456,-17408,7196,-12024,-7000,2000,193000,615825,
-4216,-1912,20444,-18267,7368,-12415,-9000,3000,192000,615837,
-4268,-2236,20704,-18446,7142,-12446,-9000,3000,192000,615840,
-4416,-2652,21168,-18385,7105,-12402,-10000,3000,191000,615842,
-5208,-4408,21948,-17997,7528,-12165,-12000,3000,190000,615854,
-5796,-4108,21820,-18002,6470,-12129,-12000,4000,190000,615857,
-5228,-4776,22904,-17408,6183,-11976,-14000,4000,189000,615869,
-5380,-4920,22656,-17253,5836,-11978,-14000,4000,188000,615872,
-5584,-5032,23428,-17284,6196,-11922,-14000,4000,188000,615874,
-5428,-5120,24268,-16194,5702,-11894,-16000,4000,187000,615887,
-5616,-4908,24472,-16026,5708,-11852,-16000,4000,187000,615889,
-5824,-4924,24628,-15921,5614,-11776,-17000,4000,186000,615891,
-6864,-4336,26784,-15156,5253,-11163,-18000,5000,185000,615904,
-6976,-4200,27284,-15099,5028,-11021,-18000,5000,185000,615906,
-7728,-5088,30136,-14450,3615,-10301,-20000,5000,184000,615919,
-7764,-5624,30948,-14277,3252,-10147,-20000,5000,184000,615921,
-7860,-5620,31116,-14234,2868,-9985,-20000,5000,184000,615924,
-6552,-7224,32767,-13307,1217,-8912,-22000,5000,183000,615936,
-6304,-7320,32767,-13062,1055,-8702,-22000,4000,183000,615938,
-5908,-7296,32767,-12896,908,-8522,-22000,4000,182000,615941,
-3792,-7360,32767,-10984,1001,-7873,-23000,4000,182000,615953,
-3540,-7276,32767,-10598,1110,-7821,-23000,4000,182000,615956,
-3448,-7156,32767,-10142,1278,-7737,-24000,4000,181000,615958,
-3196,-7160,32400,-7477,1965,-7387,-24000,4000,181000,615971,
-3264,-7288,32500,-6929,2027,-7315,-24000,4000,181000,615973,
-3408,-7560,32767,-4440,2244,-6878,-25000,4000,180000,615986,
-3488,-7572,32767,-4095,2218,-6817,-25000,4000,180000,615988,
-3340,-7684,32767,-3642,2226,-6698,-25000,4000,180000,615990,
-2516,-7996,32767,-1471,2438,-6153,-25000,4000,179000,616003,
-2320,-8024,32767,-1130,2486,-6085,-25000,4000,179000,616005,
-2056,-8048,32767,-736,2658,-5967,-25000,4000,179000,616008,
-1820,-7652,32767,1178,3057,-5708,-25000,4000,178000,616020,
-1828,-7632,32767,1517,2997,-5675,-25000,4000,178000,616022,
-1900,-7736,32767,1881,3037,-5685,-25000,4000,178000,616025,
-2024,-7792,31900,3762,2550,-5745,-25000,4000,177000,616037,
-1980,-7756,31680,4049,2429,-5759,-24000,4000,177000,616040,
-2052,-7944,31492,4420,2241,-5806,-24000,4000,177000,616042,
-2000,-7992,30280,6093,1653,-5898,-24000,4000,176000,616054,
-2056,-7928,30124,6361,1470,-5955,-24000,4000,176000,616057,
-2056,-7824,30000,6638,1373,-5902,-23000,4000,176000,616059,
-1956,-7808,29152,8064,753,-5894,-23000,4000,176000,616072,
-2004,-7820,28952,8310,757,-5862,-23000,4000,176000,616074,
-2012,-7812,28840,8548,606,-5909,-22000,4000,176000,616077,
-2068,-7888,27908,9566,262,-5957,-21000,3000,175000,616089,
-2180,-7800,27824,9699,137,-6017,-21000,3000,175000,616091,
-2112,-7728,27556,9881,96,-5962,-21000,3000,175000,616094,
-2032,-7560,27156,10754,-213,-5733,-20000,3000,174000,616106,
-1940,-7644,26992,10892,-184,-5678,-20000,3000,174000,616109,
-1824,-7868,26792,11053,-278,-5697,-20000,3000,174000,616111,
-1664,-8340,25644,11985,-85,-5886,-19000,3000,174000,616124,
-1720,-8352,25456,12131,-111,-5950,-18000,3000,173000,616126,
-1728,-8452,25104,12331,7,-5920,-18000,3000,173000,616128,
-1764,-8300,23628,13148,300,-5912,-17000,3000,173000,616141,
-1820,-8248,23432,13203,373,-5871,-17000,3000,173000,616143,
-1812,-8196,23128,13517,296,-5878,-16000,2000,173000,616145,
-1748,-7696,22548,14135,557,-5929,-15000,2000,172000,616158,
-1800,-7684,22476,14260,610,-6001,-15000,2000,172000,616160,
-1788,-7660,22296,14390,779,-5980,-15000,2000,172000,616163,
-1788,-7496,21600,14804,1310,-6128,-13000,2000,171000,616175,
-1948,-7520,21524,14948,1460,-6133,-13000,2000,171000,616178,
-2056,-7404,20408,15353,1786,-6204,-12000,2000,170000,616190,
-2200,-7292,20164,15445,1922,-6177,-11000,2000,170000,616193,
-2160,-7260,19976,15513,1999,-6207,-11000,2000,170000,616195,
-2700,-6912,18656,15968,2478,-6205,-10000,3000,170000,616208,
-2656,-6876,18384,16005,2540,-6235,-9000,3000,169000,616210,
-2780,-6812,18192,16058,2631,-6228,-9000,3000,169000,616212,
-3516,-6328,17012,16278,2364,-6110,-8000,3000,169000,616225,
-3592,-6344,17172,16374,2265,-6019,-7000,3000,169000,616227,
-3676,-6064,16244,16382,2137,-5997,-7000,3000,169000,616230,
-3696,-5952,15784,16770,1942,-5740,-6000,3000,168000,616242,
-3720,-5872,15452,16846,1803,-5702,-5000,3000,168000,616245,
-3820,-5808,15504,16859,1794,-5655,-5000,3000,168000,616247,
-4112,-5092,14428,17123,1363,-5536,-3000,3000,167000,616260,
-4144,-4908,14212,17148,1356,-5488,-3000,3000,167000,616262,
-4120,-4764,13860,17144,1223,-5483,-3000,3000,167000,616264,
-4408,-4304,12876,17235,950,-5303,-1000,4000,166000,616277,
-4376,-4200,12600,17150,747,-5285,-1000,4000,166000,616279,
-4512,-4188,12488,17197,735,-5249,-1000,4000,166000,616282,
-3816,-3764,11796,16924,532,-5133,0,4000,166000,616294,
-4664,-3832,11368,16893,753,-4941,0,4000,166000,616296,
-4320,-3496,10896,16693,620,-4950,0,4000,166000,616299,
-4616,-2588,9928,16478,1042,-4318,2000,4000,165000,616311,
-4560,-2384,9928,16420,1028,-4257,2000,4000,165000,616314,
-4592,-2328,9716,16425,1075,-4200,2000,4000,165000,616316,
-4592,-1964,9232,15776,1011,-4107,4000,4000,165000,616328,
-4668,-1980,9036,15774,1059,-4107,4000,4000,165000,616331,
-4584,-1948,8704,15640,1244,-4065,4000,4000,164000,616333,
-4508,-1996,7396,15342,2395,-3586,5000,5000,164000,616345,
-4484,-1900,7056,15265,2673,-3445,6000,5000,164000,616348,
-4492,-1844,6840,15253,2821,-3353,6000,5000,164000,616350,
-4824,-1348,5172,14565,3958,-2641,7000,6000,164000,616363,
-4336,-844,5812,14728,3757,-2575,7000,6000,164000,616365,
-4056,-444,4936,14739,4068,-2495,8000,6000,164000,616367,
-4568,892,4584,14050,4003,-1910,9000,7000,164000,616380,
-4768,1236,4544,13844,3864,-1805,9000,7000,164000,616382,
-4740,1432,4424,13679,3695,-1693,10000,7000,164000,616384,
-5216,2252,4564,12457,2411,-1165,11000,7000,164000,616397,
-5276,2300,4440,12273,2078,-1121,11000,7000,164000,616399,
-5308,2256,4368,11974,1801,-1087,11000,7000,164000,616402,
-5140,2476,4508,10674,458,-715,12000,8000,163000,616414,
-5244,2480,4544,10397,214,-625,13000,8000,163000,616417,
-5252,2752,4664,10222,-62,-495,13000,8000,163000,616419,
-4920,3940,4908,9062,-1705,159,14000,8000,163000,616432,
-4616,3976,4900,8837,-1902,226,14000,8000,163000,616434,
-4532,3976,4976,8483,-2128,273,14000,8000,163000,616436,
-3860,4176,4976,7538,-2914,458,15000,8000,163000,616449,
-3632,4372,5248,7307,-2959,518,15000,8000,163000,616451,
-3424,4416,5380,7188,-3031,590,15000,8000,163000,616453,
-3132,4632,5932,6417,-2481,909,16000,7000,163000,616466,
-3244,4728,5740,6294,-2471,949,16000,7000,163000,616468,
-3328,4692,5916,6179,-2370,957,16000,7000,163000,616470,
-3496,5792,6100,5573,-2865,1067,17000,7000,164000,616483,
-3352,6040,6028,5392,-3122,1132,17000,7000,164000,616485,
-3320,6224,5884,5147,-3204,1152,17000,7000,164000,616488,
-2052,6572,6284,4132,-3916,1558,18000,7000,164000,616500,
-1820,6600,6244,4063,-3914,1663,18000,7000,164000,616502,
-1796,6684,6288,4019,-4057,1814,18000,7000,164000,616505,
-924,6816,6868,3652,-3401,2030,19000,6000,164000,616517,
-868,6704,6964,3554,-3409,2018,19000,6000,164000,616520,
-820,7084,7008,3578,-3217,1961,19000,6000,164000,616522,
-692,7588,7772,3244,-2819,1863,19000,6000,164000,616535,
-592,7676,7704,3190,-2680,1856,19000,6000,164000,616537,
-804,7792,7932,3045,-2622,1809,19000,6000,164000,616539,
-852,8172,8788,2484,-2248,1524,20000,5000,164000,616552,
-796,8192,9000,2383,-2046,1434,20000,5000,164000,616554,
-776,8284,9112,2302,-1912,1362,20000,5000,164000,616556,
-1252,8476,10052,1808,-1611,1019,20000,5000,164000,616569,
-1320,8468,10256,1726,-1642,953,20000,5000,164000,616571,
-1280,8468,10192,1547,-1824,898,20000,5000,164000,616573,
-1260,8304,10592,689,-2499,674,20000,5000,164000,616586,
-1312,8216,10812,523,-2653,660,20000,5000,164000,616588,
-1116,8248,10796,526,-2806,666,21000,5000,164000,616591,
-608,8140,11248,35,-3337,594,21000,4000,164000,616603,
-460,8148,11272,64,-3302,544,21000,4000,164000,616605,
-420,8116,11308,-26,-3344,539,21000,4000,164000,616608,
128,8328,11884,77,-2935,422,21000,4000,164000,616620,
172,8428,12068,37,-2779,406,21000,4000,164000,616623,
180,8472,12040,67,-2706,364,21000,4000,164000,616625,
244,8508,12084,8,-2443,305,21000,4000,164000,616627,
256,8408,12288,14,-1092,58,21000,4000,164000,616640,
76,8356,12296,55,-808,9,21000,4000,164000,616642,
-4,8164,12268,-2,-628,-46,21000,4000,164000,616644,
-332,7728,12472,47,315,-265,21000,4000,164000,616656,
-440,7688,12500,-1,379,-286,21000,4000,164000,616659,
-476,7588,12452,67,568,-276,21000,4000,164000,616661,
-488,7612,12584,37,665,-258,21000,4000,164000,616663,
-720,7724,12768,129,1248,-66,21000,4000,164000,616676,
-824,7768,12820,71,1233,-27,21000,4000,164000,616678,
-812,7884,12840,115,1367,-15,21000,4000,164000,616680,
-1116,8280,12540,-159,1472,13,21000,4000,164000,616693,
-1232,8364,12748,-174,1557,-25,21000,4000,164000,616695,
-1188,8344,12752,-290,1465,-64,21000,4000,164000,616697,
-1572,8112,13124,-464,1246,-163,21000,4000,164000,616710,
-1728,8216,13156,-575,1076,-196,21000,4000,164000,616712,
-1560,8188,13120,-614,1067,-201,21000,4000,164000,616715,
-1628,7688,13292,-863,606,-234,21000,4000,164000,616727,
-1436,7584,13328,-803,616,-280,21000,4000,164000,616729,
-1528,7464,13280,-837,513,-267,21000,4000,164000,616732,
-1168,7252,13400,-667,546,-351,21000,4000,164000,616744,
-1324,7380,13356,-682,529,-307,21000,4000,164000,616747,
-1152,7400,13284,-597,561,-342,21000,4000,164000,616749,
-1428,7720,13288,-604,625,-324,21000,4000,164000,616761,
-1500,7524,13268,-595,566,-327,21000,4000,164000,616764,
-1428,7584,13232,-627,608,-357,21000,4000,164000,616766,
-1704,7012,13616,-596,646,-422,21000,4000,164000,616779,
-1860,6884,13628,-603,599,-433,21000,4000,164000,616781,
-1860,6852,13596,-532,645,-424,21000,4000,164000,616783,
-2040,7008,13652,-467,353,-180,21000,5000,164000,616796,
-1940,6936,14076,-457,326,-124,21000,5000,164000,616798,
-2084,7164,13804,-510,272,-59,21000,5000,164000,616800,
-1656,7412,14160,-517,591,131,21000,5000,164000,616813,
-1672,7364,14128,-534,593,176,21000,5000,164000,616815,
-1516,7348,14012,-533,741,163,21000,5000,164000,616818,
-1888,7284,13928,-507,1050,181,21000,5000,164000,616830,
-1952,7280,14036,-487,1065,212,21000,5000,164000,616833,
-1956,7172,14064,-491,1085,253,21000,5000,164000,616835,
-2252,6980,14124,-395,1270,435,21000,5000,164000,616848,
-2084,6956,13748,-422,1175,516,21000,5000,164000,616850,
-2212,6952,13728,-359,1314,549,21000,5000,164000,616852,
-1968,7112,13892,-276,1404,886,21000,5000,164000,616865,
-1944,7136,13680,-194,1465,939,21000,5000,164000,616867,
-1944,7084,13560,-195,1474,958,21000,5000,164000,616869,
-2156,7096,13812,-59,1469,1091,21000,5000,165000,616882,
-2208,7064,13756,-88,1371,1087,21000,5000,165000,616884,
