Ax,Ay,Az,Gx,Gy,Gz,Roll,Pitch,Yaw,Timestamp,Target
-1976,8004,13916,-537,156,-98,23000,9000,224000,866741,
-1996,7976,13812,-506,230,-103,23000,9000,224000,866754,
-2040,7936,13652,-443,203,-97,23000,9000,224000,866756,
-1992,7892,13704,-455,242,-108,23000,9000,224000,866758,
-2032,7936,13776,-438,232,-142,23000,9000,224000,866771,
-2040,7984,13716,-439,237,-144,23000,9000,224000,866773,
-2044,7904,13484,-425,215,-150,23000,9000,224000,866776,
-2000,7936,13616,-412,274,-134,23000,9000,224000,866788,
-1980,7916,13564,-369,229,-141,23000,9000,224000,866790,
-1964,8024,13600,-370,281,-161,23000,9000,224000,866793,
-1924,7996,13428,-426,360,-165,23000,10000,224000,866805,
-1988,7912,13460,-353,411,-168,23000,10000,224000,866807,
-1852,7892,13508,-403,483,-155,23000,10000,224000,866810,
-1900,7792,13352,-328,629,-173,23000,10000,224000,866822,
-1968,7740,13288,-324,684,-173,23000,10000,224000,866824,
-1948,7840,13272,-322,635,-168,23000,10000,224000,866827,
-2096,10460,11124,-1030,-548,-217,34000,-8000,278000,874494,
3500,10444,11076,-1125,-664,-197,34000,-8000,278000,874496,
3692,10640,10924,-231,-656,-165,34000,-7000,278000,874311,
3992,10384,10976,-322,-789,-112,34000,-7000,278000,874323,
-2004,7900,13128,-455,521,-143,23000,10000,224000,866873,
-2160,7884,13264,-491,485,-137,23000,10000,224000,866876,
-2172,7792,13184,-467,537,-112,23000,10000,224000,866878,
-2156,7876,13244,-544,472,-90,23000,10000,224000,866890,
-2096,7840,13244,-491,502,-85,23000,10000,224000,866893,
-2168,7828,13296,-545,510,-74,23000,10000,224000,866895,
-1900,7864,13112,-511,545,-78,23000,10000,224000,866907,
-1952,7776,13324,-574,467,-106,23000,10000,224000,866910,
-1932,7812,13136,-506,590,-116,23000,10000,224000,866912,
-1920,7736,13096,-591,647,-104,23000,10000,224000,866924,
-1908,7832,13116,-571,724,-121,23000,10000,224000,866927,
-1888,7788,13080,-604,739,-120,23000,10000,224000,866929,
-2020,7908,13152,-629,920,-198,23000,10000,224000,866941,
-1920,7868,13268,-638,870,-139,23000,10000,224000,866944,
-2052,7824,13028,-664,931,-155,23000,10000,224000,866946,
-1928,8012,13296,-668,818,-122,23000,10000,224000,866959,
-2064,8020,13296,-692,866,-155,23000,10000,225000,866961,
-2100,8008,13252,-732,799,-143,23000,10000,225000,866963,
-2100,7932,13372,-731,699,-188,23000,10000,225000,866976,
-2100,8092,13332,-717,651,-184,23000,10000,225000,866978,
-2124,8056,13372,-715,681,-190,23000,10000,225000,866980,
-2060,7956,13436,-721,486,-215,23000,10000,225000,866993,
-2128,8048,13412,-698,511,-230,23000,10000,225000,866995,
-2048,8068,13512,-707,495,-227,23000,10000,225000,866997,
-1936,8108,13492,-660,563,-247,23000,10000,225000,867010,
-2088,8000,13492,-702,531,-267,23000,10000,225000,867012,
-2096,8044,13548,-638,562,-243,23000,10000,225000,867014,
-2072,8192,13424,-622,448,-273,23000,10000,225000,867027,
-2224,8168,13516,-561,493,-286,23000,10000,225000,867029,
-2144,8136,13456,-614,465,-287,23000,10000,225000,867031,
-1900,8280,13460,-589,447,-356,23000,10000,225000,867044,
-1976,8192,13572,-617,484,-375,23000,10000,225000,867046,
-1944,8160,13632,-565,463,-389,23000,10000,225000,867048,
-2028,8224,13604,-612,578,-442,23000,10000,225000,867061,
-2000,8244,13476,-561,634,-418,23000,10000,225000,867063,
-2096,8212,13576,-593,651,-421,23000,10000,225000,867065,
-2224,8288,13492,-601,603,-446,23000,10000,225000,867078,
-2328,8220,13448,-628,537,-469,23000,10000,225000,867080,
-2400,8236,13384,-565,543,-441,23000,10000,225000,867082,
-2400,8308,13380,-616,411,-420,23000,10000,225000,867095,
-2420,8372,13464,-679,335,-390,23000,10000,225000,867097,
-2400,8280,13628,-636,344,-392,23000,10000,225000,867099,
-2296,8288,13516,-737,285,-378,23000,11000,225000,867112,
-2456,8228,13588,-804,235,-361,23000,11000,224000,867114,
-2444,8264,13584,-744,231,-338,23000,11000,224000,867116,
-2240,8208,13540,-829,237,-307,23000,11000,224000,867129,
-2400,8048,13444,-764,229,-310,23000,11000,224000,867131,
-2352,8004,13504,-772,248,-323,23000,11000,224000,867133,
-2364,7944,13588,-743,141,-295,23000,11000,224000,867146,
-2424,7952,13468,-756,143,-303,23000,11000,224000,867148,
-2496,7908,13552,-750,68,-281,23000,11000,224000,867150,
-2344,7960,13708,-733,68,-314,23000,11000,224000,867163,
-2256,7912,13680,-687,96,-308,23000,11000,224000,867165,
-2260,7812,13736,-668,136,-347,23000,11000,224000,867167,
-2132,7940,13572,-558,312,-348,23000,11000,224000,867180,
-2156,8096,13476,-571,338,-362,23000,11000,224000,867182,
-2240,8132,13484,-529,310,-371,23000,11000,224000,867184,
-2440,8040,13688,-550,336,-388,23000,11000,224000,867197,
-2456,8084,13536,-488,309,-391,23000,11000,224000,867199,
-2424,8000,13600,-513,382,-401,23000,11000,224000,867201,
-2556,8064,13592,-519,260,-383,23000,11000,224000,867214,
-2548,8076,13480,-528,237,-369,23000,11000,224000,867216,
-2516,8096,13532,-546,183,-382,23000,11000,224000,867218,
-2428,8112,13388,-544,270,-361,23000,11000,224000,867231,
-2608,7948,13516,-558,235,-347,23000,11000,224000,867233,
-2324,7952,13428,-534,273,-338,23000,11000,224000,867236,
-2588,7972,13268,-575,256,-269,23000,11000,224000,867248,
-2580,8016,13380,-585,322,-277,23000,11000,224000,867250,
-2524,8032,13348,-620,253,-310,23000,11000,224000,867253,
-2624,7972,13332,-620,340,-240,23000,11000,224000,867265,
-2684,8068,13408,-681,275,-234,23000,11000,224000,867267,
-2688,8064,13172,-633,340,-195,23000,11000,224000,867270,
-2664,7996,13204,-751,190,-143,23000,11000,224000,867282,
-2584,7980,13204,-679,263,-131,23000,11000,224000,867284,
-2540,7984,13472,-747,161,-148,23000,11000,224000,867287,
-2540,7852,13388,-699,247,-97,23000,11000,224000,867299,
-2544,7864,13352,-715,172,-104,23000,11000,224000,867302,
-2612,8024,13404,-663,256,-109,23000,11000,224000,867304,
-2512,7896,13264,-677,165,-134,23000,11000,224000,867316,
-2544,7956,13372,-601,193,-96,23000,11000,224000,867319,
-2476,7824,13456,-631,166,-115,23000,11000,224000,867321,
-2376,8008,13224,-566,172,-99,23000,11000,224000,867333,
-2412,7904,13244,-595,194,-125,23000,11000,224000,867336,
-2244,7904,13312,-614,125,-91,23000,11000,224000,867338,
-2328,7824,13112,-582,412,-102,23000,11000,224000,867350,
-2340,7940,13228,-624,380,-108,23000,11000,224000,867353,
-2316,7884,13116,-587,474,-104,23000,11000,224000,867355,
-2328,8068,13176,-706,648,-84,23000,11000,224000,867367,
-2404,8028,12956,-644,735,-53,23000,11000,224000,867370,
-2388,7948,13116,-693,687,-68,23000,11000,224000,867372,
-2536,8068,12872,-821,611,-6,23000,11000,224000,867384,
-2652,8040,13156,-793,593,7,23000,11000,225000,867387,
-2700,8056,13056,-813,563,31,23000,11000,225000,867389,
-2628,7984,13112,-890,236,60,23000,11000,225000,867401,
-2732,7976,13256,-924,178,72,23000,11000,225000,867404,
-2664,8036,13124,-936,134,84,23000,11000,225000,867406,
-2532,8148,13328,-1029,-39,107,23000,11000,225000,867418,
-2536,8144,13408,-1022,-110,104,23000,11000,225000,867421,
-2508,8148,13448,-1027,-66,102,23000,11000,225000,867423,
-2316,8028,13724,-1036,-112,118,23000,11000,225000,867435,
-2280,8016,13792,-983,-4,103,22000,11000,225000,867438,
-2180,8008,13748,-1023,-40,104,22000,11000,225000,867440,
-2148,7848,14028,-846,204,64,22000,11000,225000,867453,
-2120,7832,13796,-877,179,78,22000,11000,225000,867455,
-2208,7780,13748,-807,280,72,22000,11000,225000,867457,
-2232,7776,13756,-760,361,8,22000,11000,225000,867470,
-2180,7744,13824,-664,426,42,22000,11000,225000,867472,
-2240,7824,13860,-689,427,9,22000,11000,225000,867474,
-2300,7772,13840,-611,537,-18,22000,11000,225000,867487,
-2284,7812,13728,-600,526,-30,22000,11000,225000,867489,
-2284,7824,13796,-562,589,-38,22000,11000,225000,867491,
-2304,7848,13676,-490,609,-75,22000,11000,225000,867504,
-2428,7824,13660,-525,627,-96,22000,11000,225000,867506,
-2404,7788,13816,-441,629,-82,22000,11000,225000,867508,
-2424,7808,13600,-443,573,-115,22000,11000,225000,867521,
-2444,7796,13552,-378,555,-76,22000,11000,225000,867523,
-2468,7852,13652,-432,537,-122,22000,11000,225000,867525,
-2468,7968,13488,-375,411,-122,22000,11000,225000,867538,
-2604,7912,13524,-389,404,-118,22000,11000,225000,867540,
-2524,8024,13460,-382,338,-111,22000,11000,225000,867542,
-2516,7968,13324,-457,331,-115,22000,11000,225000,867555,
-2548,7976,13476,-407,354,-105,22000,11000,225000,867557,
-2524,8012,13396,-477,363,-101,22000,11000,225000,867559,
-2544,8112,13436,-515,316,-74,22000,11000,225000,867572,
-2448,8088,13384,-598,290,-62,22000,11000,225000,867574,
-2668,7996,13512,-579,221,-71,22000,11000,225000,867576,
-2496,7976,13532,-693,110,-23,22000,11000,225000,867589,
-2520,7968,13560,-683,99,-21,22000,11000,225000,867591,
-2448,7992,13464,-695,75,-56,22000,11000,225000,867593,
-2384,8028,13676,-682,49,-13,22000,11000,225000,867606,
-2312,7920,13664,-739,88,-18,22000,11000,225000,867608,
-2384,7992,13808,-726,75,-19,22000,11000,225000,867610,
-2408,7840,13620,-680,135,8,22000,11000,225000,867623,
-2296,7844,13840,-700,191,-4,22000,11000,225000,867625,
-2312,7776,13828,-682,136,-1,22000,11000,225000,867627,
-2364,7808,13780,-633,174,-21,22000,11000,225000,867640,
-2316,7772,13912,-618,96,-24,22000,11000,225000,867642,
-2304,7852,13872,-614,143,-6,22000,11000,225000,867644,
-2404,7736,13824,-563,49,-27,22000,11000,225000,867657,
-2332,7740,13944,-565,138,-19,22000,11000,225000,867659,
-2440,7764,13944,-565,66,-28,22000,11000,225000,867661,
-2332,7688,13868,-437,278,-55,22000,11000,225000,867674,
-2196,7824,13948,-440,218,-47,22000,11000,225000,867676,
-2156,7800,13800,-392,301,-88,22000,11000,225000,867678,
-2280,7824,13908,-382,399,-126,22000,11000,225000,867691,
-2264,7856,13828,-307,473,-158,22000,11000,225000,867693,
-2272,7768,13864,-363,439,-172,22000,11000,225000,867695,
-2316,7728,13792,-215,554,-224,22000,11000,225000,867708,
-2360,7864,13724,-217,537,-223,22000,11000,225000,867710,
-2368,7744,13568,-210,504,-203,22000,11000,225000,867712,
-2500,7824,13672,-150,526,-194,22000,11000,225000,867725,
-2484,7764,13852,-134,462,-241,22000,11000,225000,867727,
-2360,7764,13740,-106,497,-200,22000,11000,225000,867729,
-2524,7772,13724,-89,366,-241,22000,11000,225000,867742,
-2448,7872,13620,-36,422,-222,22000,11000,225000,867744,
-2464,7896,13632,-92,363,-257,22000,11000,225000,867747,
-2500,7912,13644,-34,192,-281,22000,11000,225000,867759,
-2380,7760,13660,17,252,-281,22000,11000,225000,867761,
-2428,7772,13800,-24,141,-282,22000,11000,225000,867764,
-2280,7844,13504,35,245,-340,23000,11000,225000,867776,
-2216,7844,13404,45,212,-334,23000,11000,225000,867778,
-2224,7804,13508,19,243,-341,23000,11000,225000,867781,
-2284,7752,13272,35,345,-329,23000,11000,225000,867793,
-2328,7720,13304,-40,331,-362,23000,11000,225000,867795,
-2324,7796,13304,0,349,-390,23000,11000,225000,867798,
-2424,7820,13092,-162,318,-414,23000,11000,225000,867810,
-2412,7832,13124,-173,232,-408,23000,11000,225000,867812,
-2452,7836,13052,-223,283,-359,23000,11000,225000,867815,
-2304,7820,12996,-409,218,-357,23000,11000,225000,867827,
-2308,7964,13052,-413,298,-357,23000,11000,225000,867829,
-2372,7980,13088,-476,277,-365,23000,11000,225000,867832,
-2376,7896,13060,-586,378,-346,23000,11000,225000,867844,
-2448,7964,13220,-541,407,-366,23000,11000,225000,867847,
-2448,7956,13172,-620,388,-330,23000,11000,225000,867849,
-2604,7972,13164,-662,261,-327,23000,11000,225000,867861,
-2496,7944,13284,-712,262,-343,23000,11000,225000,867864,
-2504,7964,13304,-706,189,-351,23000,11000,225000,867866,
-2468,7920,13420,-737,18,-365,23000,11000,225000,867878,
-2500,7868,13340,-714,80,-362,23000,11000,225000,867881,
-2424,7780,13580,-774,-28,-387,23000,11000,225000,867883,
-2424,7816,13612,-659,81,-386,23000,11000,225000,867895,
-2424,7808,13660,-705,6,-401,23000,11000,225000,867898,
-2544,7744,13576,-644,59,-371,23000,11000,225000,867900,
-2480,7708,13492,-633,15,-420,22000,11000,225000,867913,
-2556,7636,13676,-603,39,-384,22000,11000,225000,867915,
-2484,7688,13612,-578,58,-386,22000,11000,225000,867917,
-2416,7844,13676,-566,139,-410,22000,11000,225000,867930,
-2464,7780,13644,-488,227,-407,22000,11000,225000,867932,
-2508,7788,13488,-518,204,-415,22000,11000,225000,867934,
-2644,7916,13724,-427,381,-436,22000,11000,225000,867947,
-2552,7920,13532,-457,311,-429,22000,11000,225000,867949,
-2664,7988,13564,-385,358,-430,22000,11000,225000,867951,
-2612,7972,13536,-439,301,-444,22000,12000,225000,867964,
-2660,7904,13716,-383,342,-442,22000,12000,225000,867966,
-2636,7976,13864,-413,317,-417,22000,12000,225000,867968,
-2580,7892,13592,-327,436,-417,22000,12000,225000,867981,
-2688,7900,13864,-361,486,-455,22000,12000,225000,867983,
-2672,7900,13364,-298,521,-431,22000,12000,225000,867985,
-2708,8000,13504,-261,625,-423,22000,12000,225000,867998,
-2576,7920,13568,-267,595,-416,22000,12000,225000,868000,
-2600,7936,13536,-245,662,-415,23000,12000,225000,868002,
-2808,8000,13384,-274,521,-414,23000,12000,225000,868015,
-2700,7960,13504,-227,591,-389,23000,12000,225000,868017,
-2836,8032,13440,-276,517,-396,23000,12000,225000,868020,
-2556,7948,13396,-212,483,-384,23000,12000,225000,868032,
-2684,7896,13392,-277,465,-375,23000,12000,225000,868034,
-2600,7996,13588,-221,511,-392,23000,12000,225000,868036,
-2700,7948,13236,-317,534,-404,23000,12000,225000,868049,
-2620,7916,13484,-271,599,-379,23000,12000,225000,868051,
-2700,8052,13372,-329,553,-402,23000,12000,225000,868054,
-2824,7912,13328,-365,491,-370,23000,12000,225000,868066,
-2908,7800,13200,-315,583,-345,23000,12000,225000,868068,
-2872,7900,13308,-400,502,-368,23000,12000,225000,868071,
-2856,7904,13308,-377,610,-347,23000,12000,225000,868083,
-2848,7680,13204,-443,554,-328,23000,12000,225000,868085,
-2872,7784,13312,-390,604,-315,23000,12000,225000,868088,
-2964,7624,13168,-499,472,-212,23000,12000,225000,868100,
-2920,7676,13048,-516,546,-240,23000,12000,225000,868102,
-3004,7732,13012,-560,419,-228,23000,12000,225000,868105,
-3088,7748,13068,-551,344,-145,23000,12000,225000,868117,
-3068,7760,12880,-654,240,-114,23000,12000,225000,868119,
-3056,7692,12960,-624,258,-107,23000,12000,225000,868122,
-2940,7772,13036,-774,128,-32,23000,12000,225000,868134,
-2988,7692,13108,-746,86,-36,23000,12000,225000,868136,
-2952,7652,13264,-797,134,2,23000,12000,225000,868139,
-2836,7600,13160,-816,126,32,23000,12000,225000,868151,
-2812,7576,13156,-824,112,18,23000,12000,225000,868154,
-2712,7604,13292,-826,115,47,23000,12000,225000,868156,
-2872,7628,13296,-819,191,-2,22000,12000,225000,868168,
-2856,7576,13440,-816,101,9,22000,12000,225000,868170,
-2728,7672,13412,-797,172,-1,22000,12000,225000,868173,
-2596,7652,13552,-797,168,8,22000,12000,225000,868185,
-2464,7668,13400,-719,246,-35,22000,12000,225000,868188,
-2508,7644,13456,-763,228,8,22000,12000,225000,868190,
-2552,7780,13500,-637,425,-67,22000,12000,225000,868202,
-2484,7672,13452,-656,423,-36,22000,12000,225000,868205,
-2528,7784,13400,-611,506,-50,22000,12000,225000,868207,
-2584,7752,13388,-653,456,-116,22000,12000,225000,868219,
-2656,7800,13352,-570,494,-126,22000,12000,225000,868222,
-2552,7708,13196,-646,436,-125,22000,12000,225000,868224,
-2496,7940,13216,-578,453,-132,22000,12000,225000,868237,
-2620,7900,13172,-655,375,-165,22000,12000,225000,868239,
-2600,7856,13364,-602,404,-154,22000,12000,225000,868241,
-2700,7920,13372,-706,356,-143,22000,12000,225000,868253,
-2636,7976,13304,-660,401,-155,22000,12000,225000,868256,
-2676,8052,13424,-723,338,-170,22000,12000,225000,868258,
-2552,7984,13348,-774,380,-166,22000,12000,225000,868271,
-2640,7864,13360,-774,389,-143,22000,12000,225000,868273,
-2804,7932,13400,-807,328,-149,22000,12000,225000,868275,
-2660,7816,13396,-799,394,-165,22000,12000,225000,868288,
-2720,7788,13336,-847,313,-157,22000,12000,225000,868290,
-2756,7716,13504,-794,350,-170,22000,12000,225000,868292,
3652,10472,11196,-1056,-675,-211,34000,-8000,278000,874498,
3780,10448,10968,-1241,-713,-244,34000,-8000,277000,874511,
3712,10408,11068,-1190,-655,-239,34000,-8000,277000,874513,
3760,10524,11112,-1261,-625,-246,34000,-8000,277000,874515,
3836,10452,10952,-1209,-374,-168,34000,-8000,277000,874528,
3768,10524,11000,-1186,-329,-141,34000,-8000,277000,874530,
3800,10568,11040,-1225,-230,-155,34000,-8000,277000,874532,
3768,10684,10992,-1382,-83,-55,34000,-8000,277000,874545,
3728,10724,11008,-1466,-45,-24,34000,-8000,277000,874547,
3748,10680,11000,-1469,-86,-31,34000,-8000,277000,874549,
3700,10600,11304,-1604,-141,90,34000,-8000,277000,874562,
3720,10500,11384,-1584,-122,105,33000,-8000,277000,874564,
3788,10468,11412,-1675,-167,139,33000,-8000,277000,874567,
3792,10544,11612,-1657,110,113,33000,-8000,277000,874579,
3716,10540,11808,-1693,66,148,33000,-8000,277000,874582,
3780,10532,11688,-1659,147,102,33000,-8000,277000,874584,
3864,10544,11944,-1660,72,77,33000,-8000,277000,874596,
3932,10492,11956,-1578,73,67,33000,-8000,277000,874599,
3904,10476,12044,-1621,11,39,33000,-8000,277000,874601,
3824,10576,12028,-1405,-171,12,33000,-8000,277000,874613,
3896,10592,12152,-1402,-176,5,33000,-8000,277000,874616,
4056,10592,12196,-1353,-245,-13,33000,-8000,277000,874618,
3976,10460,12352,-1264,-448,-84,33000,-8000,277000,874630,
3904,10372,12308,-1247,-570,-113,33000,-8000,277000,874633,
3924,10320,12380,-1201,-505,-104,33000,-8000,277000,874635,
3824,10080,12232,-1093,-426,-69,33000,-8000,277000,874648,
4312,10228,12180,-1044,-285,-217,33000,-8000,277000,874650,
4276,10012,12772,-979,-230,-179,33000,-8000,277000,874652,
4236,10036,12368,-728,140,-251,33000,-8000,277000,874665,
4324,10148,12120,-740,222,-287,33000,-8000,277000,874667,
4172,10056,12180,-667,322,-287,33000,-8000,277000,874669,
4060,10064,12364,-580,483,-316,33000,-8000,277000,874682,
4156,10064,12284,-492,528,-286,33000,-8000,277000,874684,
4172,10168,12328,-550,529,-316,33000,-8000,277000,874686,
4052,10056,12212,-385,676,-362,33000,-8000,277000,874699,
3940,10140,12244,-406,668,-383,33000,-8000,277000,874701,
3876,10164,12104,-344,701,-391,33000,-8000,277000,874703,
3900,10104,12224,-213,634,-443,33000,-8000,277000,874716,
3844,10108,12220,-151,679,-445,33000,-8000,277000,874718,
3808,10204,12164,-171,659,-418,33000,-8000,277000,874721,
3772,10376,12136,-96,542,-430,33000,-8000,277000,874733,
3824,10400,12104,-86,533,-444,33000,-8000,277000,874735,
3776,10416,12028,-96,493,-443,33000,-8000,277000,874738,
3796,10312,11796,-166,472,-468,33000,-8000,277000,874750,
3780,10252,11944,-119,515,-476,33000,-8000,277000,874752,
3744,10292,11896,-148,514,-463,33000,-8000,277000,874755,
3728,10292,11848,-15,625,-417,33000,-8000,277000,874767,
3700,10336,11704,-55,670,-381,33000,-8000,277000,874769,
3756,10440,11700,-3,659,-369,33000,-8000,277000,874772,
3572,10720,11744,-56,689,-205,33000,-8000,277000,874784,
3496,10752,11764,-103,621,-183,33000,-8000,277000,874787,
3464,10696,11728,-137,628,-139,33000,-8000,277000,874789,
3192,10616,11628,-257,222,-76,33000,-8000,277000,874801,
3336,10728,11556,-301,150,-59,33000,-8000,277000,874803,
3228,10664,11568,-284,10,-23,33000,-8000,277000,874806,
3556,10648,11672,-400,-380,-3,33000,-8000,277000,874818,
3572,10636,11724,-340,-419,8,33000,-8000,277000,874821,
3660,10576,11764,-364,-408,36,33000,-8000,277000,874823,
3888,10848,11564,-303,-359,39,33000,-8000,277000,874835,
3928,10908,11620,-360,-369,70,33000,-8000,277000,874838,
3876,10956,11760,-332,-383,80,33000,-8000,277000,874840,
3960,10932,11736,-425,-281,40,33000,-8000,277000,874852,
4036,10932,11768,-442,-284,42,33000,-8000,277000,874855,
4020,10884,11780,-473,-257,46,33000,-8000,277000,874857,
4096,10768,11768,-492,-22,3,33000,-8000,277000,874869,
4152,10620,11868,-556,-25,-23,33000,-8000,277000,874872,
4116,10580,11728,-475,72,-20,33000,-8000,277000,874874,
4200,10488,11352,-508,381,-138,33000,-8000,277000,874887,
4276,10368,11404,-459,394,-125,33000,-8000,277000,874889,
4276,10484,11356,-483,491,-139,33000,-8000,277000,874891,
4196,10456,11128,-434,586,-237,33000,-8000,277000,874904,
4100,10460,11052,-459,490,-259,33000,-8000,277000,874906,
4116,10356,11200,-442,496,-293,33000,-8000,277000,874908,
3944,10228,10748,-575,18,-416,33000,-8000,277000,874920,
3908,10108,10616,-580,34,-439,33000,-8000,277000,874923,
3964,10128,10576,-610,-124,-458,33000,-8000,277000,874925,
4384,9780,9856,-777,-503,-663,33000,-8000,277000,874938,
4472,9904,9968,-854,-558,-726,33000,-8000,277000,874940,
4536,9900,9944,-849,-499,-745,33000,-8000,277000,874942,
5108,9328,9300,-1214,-473,-1027,33000,-8000,277000,874955,
5252,9364,8984,-1195,-351,-1084,33000,-8000,277000,874957,
5288,9324,8972,-1336,-319,-1129,33000,-8000,277000,874959,
5780,8636,7828,-1774,194,-1522,33000,-8000,277000,874972,
5688,8528,7632,-1960,342,-1614,33000,-8000,277000,874974,
5708,8528,7412,-2032,557,-1735,33000,-8000,277000,874976,
5640,7388,6156,-2821,1950,-2353,33000,-8000,276000,874989,
5020,7140,6088,-3011,2116,-2378,33000,-8000,276000,874991,
5776,7000,5784,-3266,2069,-2547,33000,-8000,276000,874993,
5408,5328,4680,-4223,3540,-3230,33000,-8000,276000,875005,
5388,5200,4584,-4335,3627,-3364,32000,-8000,276000,875008,
5444,4980,4408,-4346,3947,-3504,32000,-8000,276000,875010,
4776,4020,3288,-4940,5129,-4261,32000,-7000,276000,875023,
4804,3896,3148,-5050,5324,-4385,32000,-7000,276000,875025,
4704,3976,3204,-5293,5392,-4480,32000,-7000,276000,875027,
4056,3676,2760,-5865,5448,-4887,31000,-7000,276000,875040,
3940,3604,2768,-6099,5317,-5001,31000,-7000,276000,875042,
3916,3552,2688,-6238,5247,-5049,31000,-7000,276000,875044,
3576,2816,2604,-7902,4632,-5729,31000,-6000,276000,875057,
3456,2784,2712,-8112,4484,-5827,30000,-6000,276000,875059,
3464,2544,2728,-8392,4214,-5914,30000,-6000,276000,875061,
3584,1628,2992,-9709,3621,-6499,29000,-6000,275000,875074,
2908,1560,3180,-9880,3372,-6469,29000,-6000,275000,875076,
3992,1292,3048,-10210,3158,-6710,29000,-5000,275000,875078,
4152,1244,2920,-11280,3961,-7557,28000,-5000,275000,875091,
4268,1356,3084,-11473,4080,-7682,28000,-5000,275000,875093,
4452,1208,3168,-11586,4242,-7823,28000,-5000,275000,875095,
4472,1396,3396,-12161,5214,-8482,27000,-4000,274000,875108,
4504,1364,3600,-12286,5363,-8609,26000,-4000,274000,875110,
4420,1324,3700,-12413,5539,-8722,26000,-4000,274000,875112,
3540,1080,4668,-13077,6033,-9427,25000,-3000,273000,875125,
3472,1088,4956,-13250,6054,-9565,25000,-3000,273000,875127,
3108,1020,4988,-13430,6096,-9675,24000,-3000,273000,875130,
2264,568,5772,-14367,5574,-10447,23000,-2000,272000,875142,
1992,500,6180,-14527,5323,-10613,23000,-2000,272000,875145,
2028,448,6332,-14742,5071,-10758,22000,-2000,272000,875147,
1600,100,7668,-15659,4019,-11598,21000,-1000,271000,875159,
1572,-52,7848,-15911,3813,-11848,20000,-1000,271000,875162,
1532,-140,8172,-15984,3735,-11952,20000,-1000,271000,875164,
1336,-460,8864,-16698,3163,-12952,18000,0,270000,875177,
1460,-488,8956,-16725,3130,-13062,18000,0,270000,875179,
1284,-460,9156,-16932,2997,-13291,18000,0,269000,875181,
1088,-212,9912,-17357,2882,-13796,16000,0,268000,875194,
980,-220,10388,-17520,2814,-13919,16000,0,268000,875196,
988,-272,10760,-17574,2809,-14035,15000,0,268000,875198,
16,-224,12160,-18026,2493,-14223,14000,0,267000,875211,
-160,-484,12332,-18187,2446,-14256,13000,0,266000,875213,
-288,-488,12228,-18516,2380,-14322,13000,0,266000,875215,
-832,-1176,13036,-19672,1899,-14669,11000,1000,265000,875228,
-768,-1276,13344,-19871,1907,-14728,10000,1000,265000,875230,
-892,-1428,13484,-20010,1948,-14822,10000,1000,264000,875232,
-936,-1828,14600,-20591,2544,-15051,8000,2000,263000,875245,
-576,-1840,15036,-20522,2534,-15101,8000,2000,263000,875247,
-540,-1708,15448,-20596,2591,-15186,7000,2000,262000,875249,
-900,-1496,16888,-20957,3853,-15111,5000,2000,261000,875262,
-1092,-1492,17068,-20994,3865,-15127,5000,2000,261000,875264,
-1156,-1560,17160,-20960,4074,-15125,4000,2000,260000,875266,
-2256,-1624,19004,-20984,4116,-15260,2000,3000,259000,875279,
-2360,-1692,19288,-21078,4219,-15202,2000,3000,259000,875281,
-2528,-1832,19648,-21147,4139,-15196,1000,3000,258000,875284,
-2604,-2612,20984,-21372,3294,-15136,0,4000,257000,875296,
-2624,-2796,21240,-21491,3138,-15235,0,4000,257000,875298,
-2588,-2920,21576,-21298,3061,-15249,-1000,4000,256000,875301,
-3036,-3136,22652,-20453,3289,-15551,-3000,4000,255000,875313,
-3204,-3124,22808,-20335,3297,-15544,-3000,4000,255000,875316,
-3900,-2576,24192,-19542,3294,-15043,-5000,4000,253000,875328,
-3888,-2420,24508,-19352,3330,-14882,-6000,4000,253000,875331,
-3908,-2452,24812,-19244,3330,-14757,-6000,4000,253000,875333,
-4768,-2396,26300,-18452,3430,-14237,-8000,4000,251000,875345,
-5028,-2436,26708,-18355,3305,-14203,-8000,4000,251000,875348,
-5244,-2472,26884,-18055,3355,-13992,-9000,4000,251000,875350,
-5768,-2656,28548,-17183,3138,-13317,-10000,5000,249000,875363,
-5880,-2708,28816,-16887,3203,-13128,-11000,5000,249000,875365,
-6808,-3620,29776,-15595,3903,-12509,-12000,5000,248000,875377,
-6876,-3236,29472,-15286,3460,-12401,-12000,5000,248000,875380,
-5900,-3436,29592,-15132,3626,-12247,-13000,5000,247000,875382,
-6988,-3548,30012,-13076,4528,-11055,-14000,5000,246000,875395,
-7092,-3280,30168,-12772,4717,-10874,-14000,5000,246000,875397,
-7448,-3080,30588,-12351,4941,-10609,-15000,5000,246000,875399,
-8228,-2196,30940,-10348,5920,-9250,-16000,6000,245000,875412,
-8592,-2116,30712,-10094,5886,-8976,-16000,6000,245000,875414,
-9128,-1188,30472,-8727,5326,-7307,-17000,6000,244000,875427,
-9104,-1032,30284,-8484,5144,-6977,-17000,6000,244000,875429,
-8992,-964,30320,-8364,4845,-6719,-17000,6000,244000,875431,
-8256,-800,29892,-7210,3457,-5354,-18000,6000,243000,875444,
-7960,-908,29628,-6893,3259,-5143,-18000,6000,243000,875446,
-7620,-832,29656,-6684,3058,-4961,-18000,6000,243000,875449,
-6076,-780,28848,-4956,2213,-4147,-18000,6000,242000,875461,
-5788,-672,28840,-4722,2140,-3998,-18000,6000,242000,875463,
-5688,-484,28848,-4391,2067,-3886,-18000,6000,242000,875466,
-4528,296,28176,-2990,1724,-3339,-19000,7000,242000,875478,
-4380,360,28100,-2683,1607,-3237,-19000,7000,242000,875481,
-4240,548,28136,-2439,1591,-3141,-19000,7000,242000,875483,
-3328,1368,27728,-1219,1631,-3016,-19000,7000,242000,875495,
-3300,1380,27864,-1014,1625,-3025,-19000,7000,241000,875498,
-3276,1500,27812,-774,1670,-3026,-19000,7000,241000,875500,
-2944,1264,27884,397,1350,-2818,-19000,7000,241000,875512,
-3048,1268,27684,543,1227,-2772,-19000,7000,241000,875515,
-3008,1088,27484,783,1144,-2724,-18000,7000,241000,875517,
-2664,816,27564,2042,550,-2525,-18000,7000,241000,875529,
-2712,644,27480,2274,351,-2464,-18000,7000,241000,875532,
-2640,632,27552,2475,273,-2431,-18000,7000,241000,875534,
-2108,-120,28576,3586,-565,-2177,-18000,6000,241000,875546,
-2032,-252,28908,3817,-704,-2135,-18000,6000,241000,875549,
-2068,-400,29136,4124,-962,-2117,-17000,6000,240000,875551,
-2200,-632,30292,5941,-2166,-2085,-17000,6000,240000,875564,
-2116,-600,30440,6247,-2435,-2099,-17000,6000,240000,875566,
-2056,-604,30408,6542,-2607,-2065,-17000,6000,240000,875568,
-1796,-868,30500,7826,-4182,-2123,-16000,6000,240000,875581,
-1716,-816,30344,8133,-4387,-2133,-16000,6000,240000,875583,
-1608,-952,30476,8314,-4636,-2111,-15000,5000,240000,875585,
-936,-1452,31492,9734,-5291,-1865,-14000,5000,240000,875598,
-784,-1324,31748,10004,-5349,-1883,-14000,5000,240000,875600,
-660,-1544,31960,10337,-5193,-1825,-14000,5000,240000,875602,
-412,-2116,32260,11880,-4471,-1794,-13000,4000,240000,875615,
-392,-2128,32204,12196,-4319,-1761,-13000,4000,240000,875617,
-760,-2484,32184,13820,-3739,-1663,-11000,4000,240000,875630,
-816,-2620,32196,14062,-3601,-1658,-11000,4000,240000,875632,
-776,-2592,32064,14334,-3540,-1624,-11000,4000,240000,875634,
-1084,-3144,31300,15569,-3448,-1671,-9000,3000,240000,875647,
-1080,-3300,31148,15927,-3455,-1690,-9000,3000,240000,875649,
-1264,-3432,31012,16115,-3487,-1678,-9000,3000,240000,875652,
-1752,-3688,29872,17744,-4224,-1639,-7000,3000,240000,875664,
-1896,-3712,29640,17923,-4347,-1646,-7000,3000,240000,875666,
-2088,-3696,29172,18256,-4593,-1697,-6000,2000,240000,875669,
-2648,-3660,27904,19567,-5988,-1787,-4000,2000,240000,875681,
-2776,-3564,27608,19689,-6323,-1827,-4000,2000,240000,875684,
-2868,-3616,27372,19861,-6578,-1810,-4000,2000,240000,875686,
-2972,-3460,26076,20716,-8088,-1896,-2000,1000,239000,875699,
-2784,-3452,25608,20794,-8209,-1930,-1000,1000,239000,875701,
-2772,-3384,23812,21595,-8916,-2074,0,0,239000,875713,
-2680,-3252,23328,21581,-8792,-2097,0,0,239000,875716,
-2676,-3252,23084,21717,-8909,-2168,0,0,239000,875718,
-2684,-3124,22788,21723,-8857,-2154,1000,0,239000,875720,
-2856,-3136,20908,21992,-8942,-2261,3000,0,239000,875733,
-2712,-3104,20692,21962,-8795,-2281,3000,0,239000,875735,
-2696,-3140,20268,21936,-8757,-2275,4000,-1000,239000,875738,
-2648,-2808,18280,21945,-7596,-2597,6000,-1000,238000,875750,
-2712,-2796,17960,21981,-7400,-2641,6000,-1000,238000,875752,
-3048,-2796,16340,22318,-6468,-2572,8000,-2000,238000,875765,
-3028,-2596,16004,22312,-6456,-2549,8000,-2000,238000,875767,
-3152,-2524,15772,22372,-6338,-2534,9000,-2000,238000,875769,
-3960,-1904,13644,22049,-6368,-2510,11000,-3000,238000,875782,
-4224,-1864,13244,22001,-6360,-2510,11000,-3000,238000,875784,
-4188,-1796,12904,21827,-6487,-2490,12000,-3000,237000,875786,
-4144,-1672,11088,21363,-7287,-2539,14000,-3000,237000,875799,
-4096,-1548,10700,21291,-7467,-2572,14000,-3000,237000,875801,
-4044,-1472,10520,21290,-7463,-2550,14000,-3000,237000,875804,
-3836,-96,8928,20562,-8347,-2516,16000,-4000,237000,875816,
-3636,-32,8928,20325,-8385,-2519,16000,-4000,236000,875818,
-2888,412,7812,18768,-8750,-2650,18000,-5000,236000,875831,
-2880,504,7536,18571,-8714,-2713,19000,-5000,236000,875833,
-2692,528,7284,18391,-8904,-2787,19000,-5000,236000,875835,
-2304,1280,5968,17184,-9152,-3048,21000,-5000,235000,875848,
-2212,1380,5964,16885,-9249,-3124,21000,-5000,235000,875850,
-2080,1372,5824,16761,-9265,-3174,21000,-6000,235000,875853,
-1536,1564,4444,15191,-9336,-3532,23000,-6000,234000,875865,
-1404,1560,4320,14952,-9146,-3623,23000,-6000,234000,875867,
-1508,1664,4320,14659,-9061,-3675,23000,-6000,234000,875870,
-1036,2388,3836,13691,-9287,-3884,25000,-7000,233000,875882,
-908,2380,3844,13265,-9108,-3936,25000,-7000,233000,875884,
-872,2392,3792,13137,-9132,-3987,25000,-7000,233000,875887,
-496,2176,3236,11604,-7811,-4182,26000,-7000,232000,875899,
-476,2140,3204,11367,-7679,-4271,27000,-7000,232000,875902,
-304,2128,2984,11177,-7285,-4313,27000,-8000,232000,875904,
-820,2564,2592,10179,-6039,-4293,28000,-8000,231000,875916,
-700,2684,2504,10056,-5815,-4231,28000,-8000,231000,875919,
-796,2732,2376,9822,-5718,-4209,28000,-8000,231000,875921,
-1300,3396,2064,8839,-5515,-3975,30000,-8000,231000,875934,
-1428,3368,1972,8602,-5605,-3901,30000,-8000,230000,875936,
-1544,3512,1928,8469,-5658,-3830,30000,-8000,230000,875938,
-1852,3584,2348,7409,-6336,-3277,31000,-8000,230000,875950,
-1836,3632,2324,7283,-6521,-3173,31000,-8000,230000,875953,
-1708,3768,2216,7045,-6681,-3095,31000,-8000,230000,875955,
-956,4188,2968,5964,-7535,-2731,32000,-9000,229000,875968,
-936,4304,2932,5783,-7492,-2718,32000,-9000,229000,875970,
-724,4484,2984,5590,-7563,-2623,32000,-9000,229000,875972,
-160,5256,3012,4825,-7212,-2322,33000,-9000,228000,875985,
-20,5400,2936,4656,-7191,-2299,33000,-9000,228000,875987,
104,5336,3000,4575,-6992,-2238,33000,-9000,228000,875989,
616,6292,3384,3788,-6602,-1886,34000,-10000,227000,876002,
784,6440,3532,3680,-6469,-1819,34000,-10000,227000,876004,
948,6432,3732,3562,-6480,-1825,34000,-10000,227000,876006,
1176,6604,4048,2948,-5880,-1588,35000,-10000,227000,876019,
1220,6604,3996,2692,-5730,-1540,35000,-10000,227000,876021,
1272,6760,4108,2549,-5484,-1501,35000,-10000,226000,876023,
1468,6756,4244,1934,-4462,-1298,35000,-11000,226000,876036,
1416,6776,4468,1959,-4305,-1217,35000,-11000,226000,876038,
1516,6928,4596,1837,-4167,-1166,35000,-11000,226000,876040,
1748,7592,5272,1561,-3295,-692,36000,-11000,226000,876053,
1720,7596,5204,1410,-3192,-575,36000,-11000,226000,876055,
1708,7808,5324,1307,-2975,-537,36000,-11000,226000,876058,
1756,7984,5784,730,-2376,-400,36000,-11000,225000,876070,
1904,7940,5872,773,-2233,-356,36000,-11000,225000,876072,
1756,8180,6076,711,-2168,-317,36000,-11000,225000,876075,
1920,9116,6652,702,-2201,-37,36000,-11000,225000,876087,
2100,9408,6872,695,-2190,18,36000,-11000,225000,876089,
2080,9724,6784,585,-2298,14,36000,-11000,225000,876092,
2496,10736,6972,198,-2375,19,36000,-12000,225000,876104,
2600,10784,6764,4,-2410,-20,36000,-12000,225000,876106,
2592,10928,6776,-106,-2460,-41,37000,-12000,225000,876109,
2980,11132,7256,-501,-2537,-102,37000,-12000,225000,876121,
3212,11192,7132,-565,-2600,-171,37000,-12000,225000,876123,
3248,11280,7440,-631,-2503,-242,37000,-12000,225000,876126,
3548,11208,8080,-917,-2194,-434,37000,-12000,224000,876138,
3644,11244,8316,-1010,-2039,-500,37000,-12000,224000,876140,
3588,11236,8456,-1001,-1889,-486,37000,-12000,224000,876143,
3696,11256,8736,-1236,-1245,-595,37000,-12000,224000,876155,
3688,11328,8900,-1193,-1071,-646,37000,-12000,224000,876157,
3696,11424,9168,-1253,-992,-635,37000,-12000,224000,876160,
3612,11440,9612,-1283,-372,-631,37000,-12000,224000,876172,
3700,11648,9592,-1393,-204,-658,37000,-12000,224000,876174,
3684,11540,9852,-1393,-38,-704,37000,-12000,224000,876177,
3480,11224,9820,-1520,910,-833,37000,-12000,224000,876189,
3356,11320,9936,-1492,1071,-836,37000,-12000,224000,876191,
3348,11172,10072,-1515,1281,-856,37000,-12000,224000,876194,
2852,11116,10436,-1491,1865,-922,36000,-12000,224000,876206,
2700,10984,10124,-1464,1969,-928,36000,-12000,224000,876208,
2664,10952,10480,-1428,1935,-942,36000,-12000,224000,876211,
2020,10944,10696,-1163,1495,-890,36000,-12000,224000,876223,
2084,11020,10804,-1140,1393,-862,36000,-11000,224000,876226,
2164,11156,11040,-1169,1295,-826,36000,-11000,224000,876228,
2220,11352,11452,-1119,596,-836,36000,-11000,224000,876240,
2304,11472,11424,-1129,540,-836,36000,-11000,224000,876243,
2352,11344,11724,-1086,390,-821,36000,-11000,224000,876245,
2760,11640,11548,-851,119,-813,36000,-11000,224000,876257,
2840,11716,11460,-901,192,-799,36000,-11000,224000,876260,
2756,11636,11800,-975,99,-821,36000,-11000,224000,876262,
2964,11708,11536,-822,431,-921,36000,-11000,224000,876274,
2884,11820,11516,-853,563,-898,36000,-11000,224000,876277,
2916,11776,11508,-852,537,-917,36000,-11000,224000,876279,
2944,11944,11816,-730,623,-917,36000,-11000,224000,876291,
2892,11920,11740,-760,667,-916,36000,-11000,224000,876294,
2828,11956,11996,-751,612,-916,36000,-11000,224000,876296,
2832,11788,11948,-862,621,-964,36000,-11000,224000,876309,
2816,11664,11800,-928,521,-1010,36000,-11000,224000,876311,
2760,11720,11900,-856,579,-988,36000,-11000,224000,876313,
2952,11536,11924,-904,635,-981,36000,-11000,224000,876326,
2968,11428,11692,-851,761,-996,36000,-11000,224000,876328,
2904,11428,11744,-871,753,-949,36000,-11000,224000,876330,
2840,11260,11904,-827,1082,-988,36000,-10000,224000,876343,
2760,11184,12028,-815,1054,-991,36000,-10000,224000,876345,
2736,11264,11964,-780,1079,-976,36000,-10000,224000,876347,
2516,11372,11984,-839,1093,-925,36000,-10000,224000,876360,
2612,11440,12036,-828,1143,-875,36000,-10000,224000,876362,
