Ax,Ay,Az,Gx,Gy,Gz,Roll,Pitch,Yaw,Timestamp,Target
696,4344,15068,-94,371,-286,9000,0,238000,906634,
440,4648,15016,-93,414,-300,9000,0,238000,906647,
540,4720,15052,-152,300,-309,9000,0,238000,906649,
448,4680,15024,-118,311,-317,9000,0,238000,906651,
140,4760,15052,-262,-126,-344,9000,0,238000,906664,
184,4852,15056,-280,-138,-368,9000,0,238000,906666,
236,4748,15072,-335,-254,-340,9000,0,238000,906669,
172,4716,15072,-332,-253,-361,9000,0,238000,906671,
340,4544,14984,-516,-553,-322,9000,0,238000,906683,
356,4652,14920,-480,-546,-327,9000,0,238000,906686,
348,4648,15156,-546,-572,-282,9000,0,238000,906688,
468,4436,15108,-531,-478,-275,9000,0,238000,906700,
508,4604,15016,-594,-490,-293,9000,0,238000,906703,
512,4480,15004,-528,-465,-245,9000,0,238000,906705,
600,4428,15088,-551,-374,-268,9000,0,238000,906707,
644,4528,15128,-550,-224,-223,9000,0,237000,906720,
680,4416,15016,-557,-154,-237,9000,0,237000,906722,
648,4468,14988,-543,-163,-218,9000,0,237000,906724,
732,4520,15108,-520,56,-236,9000,0,237000,906737,
636,4544,15116,-486,48,-256,9000,0,237000,906739,
548,4520,15216,-489,74,-269,9000,0,237000,906741,
616,4552,15316,-437,65,-253,9000,0,237000,906743,
604,4588,15092,-399,136,-344,9000,0,237000,906756,
700,4604,15316,-354,155,-340,9000,0,237000,906758,
672,4476,15248,-337,189,-365,9000,0,237000,906761,
712,4612,15224,-330,147,-366,9000,0,237000,906763,
764,4740,15148,-235,411,-409,9000,0,237000,906775,
756,4692,15136,-250,383,-453,9000,0,237000,906778,
760,4804,15208,-244,482,-444,9000,0,237000,906780,
772,4648,15184,-217,470,-455,9000,0,237000,906782,
560,4780,15164,-196,761,-433,9000,0,237000,906795,
428,4832,15100,-217,650,-443,9000,0,237000,906797,
500,4856,15076,-176,728,-458,9000,0,237000,906800,
340,4728,15204,-214,652,-431,9000,0,237000,906802,
116,4740,15160,-291,416,-415,9000,0,237000,906814,
152,4616,15176,-236,420,-404,9000,0,237000,906817,
104,4644,15168,-292,363,-392,9000,0,237000,906819,
80,4604,14984,-240,348,-380,9000,0,237000,906821,
128,4436,14972,-336,58,-339,9000,0,237000,906834,
200,4528,15028,-294,85,-331,9000,0,237000,906836,
356,4492,15096,-343,56,-323,9000,0,237000,906839,
328,4564,15060,-325,64,-292,9000,0,237000,906841,
360,4584,15212,-368,223,-213,9000,0,237000,906853,
480,4748,15124,-392,247,-200,9000,0,237000,906856,
500,4712,15064,-355,253,-178,9000,0,237000,906858,
312,4792,15156,-452,389,-111,9000,0,237000,906871,
256,4708,15152,-524,318,-79,9000,0,237000,906873,
376,4668,15144,-489,334,-75,9000,0,237000,906875,
308,4648,15184,-542,335,-64,9000,0,237000,906878,
328,4584,15188,-511,239,-51,9000,0,237000,906890,
164,4564,15168,-551,259,-47,9000,0,237000,906892,
328,4596,15108,-539,151,-10,9000,0,237000,906895,
300,4628,15196,-519,184,-36,9000,0,237000,906897,
372,4528,15208,-531,60,2,9000,0,237000,906909,
472,4512,15288,-586,31,-21,9000,0,237000,906912,
564,4572,15196,-538,61,16,9000,0,237000,906914,
556,4552,15300,-598,22,-27,9000,0,237000,906916,
716,4660,15132,-578,151,-35,9000,0,237000,906929,
628,4584,15112,-644,127,-47,9000,0,237000,906931,
712,4684,15040,-584,189,-48,9000,0,237000,906933,
476,4656,15088,-647,175,-74,9000,0,237000,906936,
480,4636,15224,-626,358,-91,9000,0,237000,906948,
420,4628,15112,-670,327,-53,9000,0,237000,906951,
548,4608,15256,-631,394,-69,9000,0,237000,906953,
492,4604,15100,-713,355,-41,9000,0,237000,906955,
452,4644,15012,-666,524,-3,9000,0,237000,906968,
412,4728,15104,-728,529,15,9000,0,237000,906970,
384,4716,15072,-694,566,19,9000,0,237000,906972,
460,4820,15032,-746,530,27,9000,0,237000,906975,
120,4676,15236,-804,514,30,9000,0,237000,906987,
108,4748,15168,-864,436,71,9000,0,237000,906990,
68,4588,15268,-847,358,59,9000,0,237000,906992,
120,4600,15292,-871,341,90,9000,0,237000,906994,
96,4440,15360,-850,10,141,9000,0,237000,907007,
84,4384,15520,-911,-128,175,9000,0,237000,907009,
176,4396,15320,-847,-122,153,9000,0,237000,907011,
176,4280,15376,-863,-164,159,9000,0,237000,907013,
420,4308,15552,-756,-318,180,9000,0,237000,907026,
552,4292,15396,-725,-307,215,9000,0,237000,907028,
720,4292,15476,-720,-309,202,9000,0,237000,907030,
644,4288,15412,-715,-292,189,9000,0,237000,907033,
832,4468,15504,-528,-55,185,9000,0,237000,907045,
760,4552,15404,-580,-45,195,9000,0,237000,907048,
896,4544,15572,-498,9,157,9000,0,237000,907050,
824,4456,15724,-547,51,158,9000,0,237000,907052,
804,4704,15784,-462,164,121,9000,0,237000,907065,
784,4772,15716,-509,184,90,9000,0,237000,907067,
796,4724,15684,-467,148,97,9000,0,237000,907070,
720,4744,15540,-483,210,60,9000,0,237000,907072,
828,4772,15536,-481,75,-23,9000,0,237000,907084,
852,4624,15568,-501,62,-51,9000,0,237000,907087,
836,4688,15624,-472,77,-54,9000,0,237000,907089,
832,4728,15560,-493,98,-85,9000,0,237000,907091,
884,4640,15540,-470,92,-150,9000,0,237000,907104,
948,4616,15504,-446,130,-162,9000,0,237000,907106,
944,4500,15412,-486,96,-174,9000,0,237000,907108,
980,4404,15464,-467,157,-186,9000,0,237000,907111,
952,4380,15416,-450,253,-240,9000,0,237000,907123,
864,4372,15456,-478,361,-250,9000,0,237000,907125,
920,4356,15360,-484,387,-269,9000,0,237000,907128,
860,4312,15420,-449,509,-261,9000,0,237000,907130,
708,4372,15392,-456,833,-248,9000,0,237000,907143,
676,4412,15340,-486,912,-279,9000,0,237000,907145,
636,4336,15508,-490,880,-241,9000,0,237000,907147,
604,4488,15348,-484,931,-277,9000,0,237000,907150,
152,4368,15220,-468,775,-245,9000,0,237000,907162,
188,4292,15280,-516,660,-249,9000,0,237000,907164,
188,4384,15300,-477,619,-225,9000,0,237000,907167,
144,4368,15168,-506,524,-219,9000,0,237000,907169,
192,4392,15308,-465,16,-235,9000,0,237000,907181,
76,4484,15268,-497,-146,-225,9000,0,237000,907184,
260,4628,15352,-422,-159,-219,9000,0,237000,907186,
464,4348,15368,-485,-532,-252,9000,0,237000,907198,
588,4344,15440,-452,-426,-239,9000,0,237000,907201,
676,4400,15376,-509,-496,-252,9000,0,237000,907203,
704,4464,15312,-472,-397,-238,9000,0,237000,907205,
732,4412,15300,-486,-212,-310,9000,0,237000,907218,
812,4384,15332,-502,-180,-305,9000,0,237000,907220,
872,4404,15108,-473,-83,-324,9000,0,237000,907223,
872,4304,15476,-540,-116,-308,9000,0,237000,907225,
824,4368,14976,-487,115,-341,9000,0,237000,907237,
828,4384,15244,-554,113,-361,9000,0,237000,907240,
764,4436,15208,-499,162,-347,9000,0,237000,907242,
740,4340,15212,-614,329,-353,9000,0,237000,907254,
692,4300,15252,-569,397,-377,9000,0,237000,907257,
688,4380,15184,-640,416,-371,9000,0,237000,907259,
764,4344,15180,-602,461,-374,9000,0,237000,907261,
496,4440,15152,-651,508,-406,9000,0,237000,907274,
496,4344,15132,-607,521,-394,9000,0,237000,907276,
556,4324,15204,-615,561,-438,9000,0,237000,907278,
396,4268,15152,-589,586,-415,9000,0,237000,907281,
232,4324,15156,-573,516,-402,9000,0,237000,907293,
364,4324,15212,-542,549,-414,9000,0,237000,907296,
340,4324,15352,-593,438,-404,9000,0,237000,907298,
188,4308,15216,-547,481,-401,9000,0,237000,907300,
284,4376,15204,-610,302,-354,9000,0,237000,907312,
252,4412,15096,-577,368,-384,9000,0,237000,907315,
428,4320,15284,-647,277,-361,9000,0,237000,907317,
300,4516,15108,-625,257,-323,9000,0,237000,907329,
400,4596,15024,-696,244,-314,9000,0,237000,907332,
296,4604,15204,-648,252,-312,9000,0,237000,907334,
328,4636,15104,-708,169,-306,9000,0,237000,907336,
356,4664,15172,-681,236,-304,9000,0,237000,907349,
412,4644,15320,-729,172,-300,9000,0,237000,907351,
492,4584,15300,-699,161,-322,9000,0,237000,907353,
424,4528,15360,-754,193,-303,9000,0,237000,907356,
520,4496,15276,-709,238,-295,9000,0,237000,907368,
492,4548,15396,-739,241,-305,9000,0,237000,907370,
548,4536,15528,-696,292,-320,9000,0,237000,907373,
476,4572,15480,-727,360,-316,9000,0,237000,907375,
396,4428,15636,-626,517,-342,9000,0,237000,907388,
424,4492,15604,-644,500,-342,9000,0,237000,907390,
360,4524,15652,-600,493,-343,9000,0,237000,907392,
156,4520,15640,-602,374,-321,9000,0,237000,907405,
200,4560,15504,-600,315,-332,9000,0,237000,907407,
52,4480,15640,-594,354,-308,9000,0,237000,907409,
180,4628,15428,-594,250,-293,9000,0,237000,907412,
192,4472,15280,-600,113,-256,9000,0,237000,907424,
188,4508,15376,-565,51,-257,9000,0,237000,907426,
232,4476,15368,-637,43,-253,9000,0,237000,907429,
168,4632,15320,-578,46,-233,9000,0,237000,907431,
192,4508,15340,-653,23,-249,9000,0,237000,907444,
240,4604,15520,-617,30,-221,9000,0,237000,907446,
288,4540,15368,-662,33,-239,9000,0,237000,907448,
180,4600,15436,-626,5,-225,9000,0,237000,907451,
368,4508,15496,-690,65,-194,8000,0,237000,907463,
388,4592,15312,-652,154,-205,8000,0,237000,907465,
304,4472,15424,-689,140,-221,8000,0,237000,907468,
424,4544,15396,-630,217,-205,8000,0,237000,907470,
372,4548,15524,-625,252,-229,8000,0,237000,907483,
296,4676,15460,-593,284,-198,8000,0,237000,907485,
320,4716,15472,-602,304,-194,8000,0,237000,907487,
244,4588,15584,-597,233,-207,8000,0,237000,907490,
136,4628,15644,-620,166,-211,8000,0,237000,907502,
304,4620,15596,-578,135,-201,8000,0,237000,907504,
68,4640,15552,-620,75,-185,8000,0,237000,907507,
124,4620,15596,-571,-2,-169,8000,0,237000,907509,
144,4708,15544,-619,-134,-153,8000,0,237000,907522,
216,4668,15648,-601,-229,-150,8000,0,237000,907524,
348,4568,15708,-587,-197,-159,8000,0,237000,907526,
372,4676,15708,-617,-217,-151,8000,0,237000,907529,
452,4460,15688,-478,20,-164,8000,0,237000,907541,
580,4344,15492,-483,12,-158,8000,0,237000,907543,
516,4348,15596,-436,113,-168,8000,0,237000,907546,
504,4408,15500,-333,386,-155,8000,0,236000,907558,
372,4496,15556,-354,401,-168,8000,0,236000,907561,
308,4528,15492,-307,440,-151,8000,0,236000,907563,
288,4532,15500,-323,453,-175,8000,0,236000,907565,
140,4556,15492,-319,335,-158,8000,0,236000,907578,
196,4520,15580,-391,242,-129,8000,0,236000,907580,
280,4460,15704,-350,256,-123,8000,0,236000,907582,
60,4500,15600,-391,168,-132,8000,0,236000,907585,
52,4332,15548,-342,33,-84,8000,0,236000,907597,
212,4432,15468,-376,13,-85,8000,0,236000,907599,
80,4316,15508,-359,-48,-72,8000,0,236000,907602,
260,4344,15484,-336,-40,-69,8000,0,236000,907604,
308,4336,15356,-283,-134,-37,8000,0,236000,907616,
396,4412,15420,-310,-147,-16,8000,0,236000,907619,
352,4388,15348,-272,-117,-22,8000,0,236000,907621,
276,4428,15284,-304,-73,-28,8000,0,236000,907623,
524,4436,15312,-245,-47,-36,9000,0,236000,907636,
536,4388,15168,-228,48,-37,9000,0,236000,907638,
548,4504,15160,-298,-24,-74,9000,0,236000,907640,
460,4480,15096,-251,77,-55,9000,0,236000,907643,
620,4384,15148,-348,176,-85,9000,0,236000,907655,
568,4600,15232,-385,188,-118,9000,0,236000,907658,
520,4612,15208,-382,181,-90,9000,0,236000,907660,
480,4548,15188,-402,245,-115,9000,0,236000,907662,
480,4496,15208,-452,330,-123,9000,0,236000,907675,
576,4500,15368,-484,279,-133,9000,0,236000,907677,
452,4464,15336,-449,329,-118,9000,0,236000,907679,
380,4564,15252,-467,349,-140,9000,0,236000,907682,
412,4592,15376,-477,372,-104,9000,0,236000,907694,
320,4488,15432,-505,392,-135,9000,0,236000,907697,
428,4520,15556,-486,373,-118,9000,0,236000,907699,
312,4456,15592,-472,360,-151,9000,0,236000,907711,
168,4472,15700,-379,367,-136,9000,0,236000,907713,
184,4468,15604,-442,292,-132,9000,0,236000,907716,
124,4536,15728,-386,264,-129,9000,0,236000,907718,
56,4496,15716,-355,46,-105,9000,0,236000,907730,
120,4636,15732,-322,-36,-101,9000,0,236000,907733,
28,4564,15908,-316,-10,-63,9000,0,236000,907735,
16,4508,15864,-347,-144,-79,9000,0,236000,907737,
92,4544,16052,-213,-200,-41,9000,0,236000,907750,
164,4580,16164,-243,-305,-36,9000,0,236000,907752,
160,4608,16004,-182,-259,-50,9000,0,236000,907754,
244,4724,16080,-228,-249,-40,9000,0,236000,907757,
228,4516,16272,-39,30,-8,9000,0,236000,907769,
296,4544,16356,-103,-5,7,9000,0,236000,907771,
360,4648,16216,-17,116,39,9000,0,236000,907774,
324,4604,16340,-11,153,12,9000,0,236000,907776,
180,4492,16320,153,487,92,9000,0,236000,907789,
176,4584,16212,156,427,99,9000,0,236000,907791,
116,4484,16236,204,512,127,9000,0,236000,907793,
164,4528,16192,206,474,159,9000,0,236000,907796,
-8,4652,16184,374,631,217,9000,1000,236000,907808,
-36,4636,16196,316,584,247,9000,1000,236000,907810,
16,4776,16016,405,661,236,9000,1000,236000,907813,
0,4768,15940,365,674,267,9000,1000,236000,907815,
-152,4840,16000,570,762,333,9000,1000,237000,907827,
-168,4784,16044,546,681,351,9000,1000,237000,907830,
-268,4876,15940,632,714,375,9000,1000,237000,907832,
-264,4756,15884,627,579,363,9000,1000,237000,907834,
-460,5008,15816,832,120,402,9000,1000,237000,907847,
-376,4892,15684,811,-31,424,9000,1000,237000,907849,
-448,5052,15972,903,-69,408,9000,1000,237000,907851,
-296,4928,15912,1049,-492,407,9000,1000,237000,907864,
-188,5144,15816,1119,-427,397,9000,1000,237000,907866,
-280,5108,15936,1123,-528,429,9000,1000,237000,907869,
-200,5376,15640,1233,-583,505,10000,1000,237000,907881,
-228,5376,15644,1292,-548,516,10000,1000,237000,907883,
-180,5412,15652,1212,-506,514,10000,0,237000,907886,
-208,5296,15656,1290,-471,546,10000,0,237000,907888,
-264,5156,15516,1347,-180,651,10000,0,237000,907900,
-212,5312,15616,1390,-78,639,10000,0,237000,907903,
-184,5288,15444,1351,-101,662,10000,0,237000,907905,
-420,5020,15588,1487,-163,792,10000,0,237000,907918,
-364,4972,15192,1477,-272,800,10000,0,237000,907920,
-248,4796,15080,1485,-202,812,10000,0,237000,907922,
-320,4736,15148,1476,-249,833,10000,0,237000,907924,
-76,4884,15032,1721,-342,932,10000,0,237000,907937,
200,4864,14916,1719,-316,924,10000,0,237000,907939,
-20,4964,14932,1738,-375,959,11000,0,237000,907941,
128,4760,14692,1789,-481,1010,11000,0,237000,907954,
244,4648,14604,1830,-567,997,11000,0,237000,907956,
304,4592,14284,1835,-549,971,11000,0,237000,907958,
364,4512,14384,1873,-617,984,11000,0,237000,907961,
740,4440,13696,1911,-501,927,11000,0,237000,907973,
948,4476,13684,1927,-518,909,11000,0,237000,907976,
916,4472,13696,1921,-462,911,11000,0,237000,907978,
992,4484,13468,1960,-452,901,11000,0,237000,907980,
1312,4300,12996,1904,-312,785,11000,0,237000,907993,
1256,4372,12908,1908,-410,726,11000,0,237000,907995,
1292,4380,12768,1859,-383,671,12000,0,237000,907997,
1688,4364,12268,1742,-797,491,12000,0,237000,908010,
1752,4400,12088,1682,-854,455,12000,0,237000,908012,
1864,4368,11956,1668,-963,390,12000,0,237000,908015,
1912,4344,11988,1636,-1010,348,12000,0,237000,908017,
2548,4432,11416,1388,-1500,-14,12000,0,237000,908029,
2636,4380,11228,1362,-1541,-98,12000,0,237000,908032,
2868,4424,11096,1294,-1672,-198,12000,0,237000,908034,
3404,4228,10360,982,-1625,-770,12000,0,237000,908046,
3492,4340,10216,870,-1664,-879,12000,0,237000,908049,
3536,4188,10132,838,-1601,-997,12000,0,237000,908051,
3756,4148,10040,715,-1623,-1127,12000,0,237000,908053,
4076,3640,9296,355,-1302,-1833,12000,0,237000,908066,
4260,3508,9224,225,-1329,-1976,12000,0,237000,908068,
4236,3356,8804,168,-1176,-2126,12000,0,237000,908071,
3964,2756,8264,-456,-1309,-2693,12000,0,237000,908083,
4684,2552,7672,-616,-587,-2996,12000,0,237000,908085,
5332,2464,7104,-829,114,-3203,12000,0,236000,908088,
4596,2344,7016,-842,206,-3326,12000,-1000,236000,908090,
4500,1864,6588,-1584,1101,-4244,12000,0,236000,908102,
4464,1772,6432,-1698,1155,-4339,12000,0,236000,908105,
4520,1792,6364,-1948,1166,-4487,12000,0,236000,908107,
4476,1352,6076,-2874,1711,-5228,12000,0,235000,908120,
4332,1272,6084,-3017,1825,-5387,12000,0,235000,908122,
4324,1260,5892,-3107,1901,-5502,12000,0,235000,908124,
4376,1136,5392,-4214,2361,-6342,11000,0,235000,908137,
4296,1220,5332,-4310,2496,-6520,11000,0,235000,908139,
4408,1176,5232,-4550,2590,-6649,11000,0,235000,908142,
4300,1104,5000,-4717,2729,-6776,11000,0,234000,908144,
4160,800,4748,-5714,3489,-7632,11000,0,234000,908157,
4080,676,4836,-5819,3627,-7750,11000,0,234000,908159,
3908,708,4784,-6039,3653,-7936,10000,0,234000,908161,
3648,208,4656,-6988,3864,-8848,10000,0,233000,908174,
3536,280,4564,-7209,3805,-9023,10000,0,233000,908176,
3404,112,4512,-7373,3838,-9169,9000,0,232000,908178,
3452,12,4452,-7520,3894,-9301,9000,0,232000,908181,
3088,-188,4804,-8454,3952,-10304,8000,0,231000,908193,
2980,-164,4932,-8610,3984,-10420,8000,0,231000,908195,
2976,-200,4936,-8907,3965,-10610,8000,0,231000,908197,
2868,-432,5324,-10074,4348,-11407,7000,0,230000,908210,
2756,-468,5336,-10383,4447,-11549,7000,1000,230000,908212,
2680,-692,5512,-10536,4563,-11711,7000,1000,230000,908214,
1644,-1028,5756,-11846,4829,-12489,5000,1000,229000,908227,
1540,-1156,5936,-12067,4860,-12607,5000,1000,228000,908229,
1432,-1100,5880,-12343,4845,-12718,5000,1000,228000,908232,
620,-1636,6668,-13515,4742,-13260,3000,2000,227000,908244,
576,-1712,7040,-13799,4635,-13304,3000,2000,227000,908246,
324,-1772,7268,-13980,4576,-13415,3000,2000,226000,908249,
-476,-2444,8632,-14986,3604,-13776,1000,2000,225000,908261,
-668,-2680,9028,-15186,3321,-13899,1000,2000,225000,908264,
-884,-2736,9328,-15272,2996,-13920,1000,3000,225000,908266,
-1564,-3404,10824,-15858,661,-14253,0,3000,223000,908279,
-1812,-3556,11160,-15835,237,-14254,0,3000,223000,908281,
-1680,-3612,11436,-16007,-318,-14344,-1000,3000,223000,908283,
-1516,-3928,13808,-16057,-3074,-14452,-2000,2000,221000,908296,
-1320,-3768,13916,-16200,-3412,-14488,-3000,2000,221000,908298,
-1272,-3896,14292,-16166,-3664,-14444,-3000,2000,221000,908301,
636,-3772,16128,-16923,-4264,-14784,-5000,2000,219000,908313,
684,-3564,16012,-17034,-3966,-14745,-5000,2000,219000,908315,
780,-3408,16240,-17368,-3790,-14800,-5000,1000,219000,908318,
1680,-3960,18596,-18304,-1896,-14654,-7000,1000,218000,908330,
1828,-4128,18864,-18370,-1389,-14629,-8000,1000,217000,908333,
1976,-4356,19488,-18508,-903,-14688,-8000,1000,217000,908335,
1276,-5640,21532,-18345,1818,-15066,-10000,1000,216000,908348,
620,-6088,22036,-18134,2163,-15121,-10000,1000,215000,908350,
-2028,-6816,23616,-17258,2485,-15281,-12000,1000,214000,908362,
-2328,-6980,23960,-17016,2376,-15167,-12000,1000,214000,908365,
-2860,-7028,24396,-16864,2206,-15157,-12000,1000,213000,908367,
-3916,-7244,25260,-16552,701,-14442,-14000,0,212000,908380,
-4136,-7592,25740,-16586,323,-14307,-14000,0,212000,908382,
-4284,-7680,25628,-16408,60,-14068,-15000,0,211000,908385,
-4100,-8332,26012,-15837,-22,-13435,-16000,0,210000,908397,
-4568,-8688,26316,-15690,237,-12906,-17000,0,210000,908399,
-4568,-8752,26368,-15620,318,-12552,-17000,0,210000,908402,
-3920,-8852,26728,-14556,2198,-11126,-18000,0,209000,908414,
-3944,-8704,26804,-14457,2546,-10896,-19000,0,208000,908417,
-3836,-8632,27048,-14127,2993,-10601,-19000,0,208000,908419,
-4236,-8940,27164,-12741,5334,-9562,-20000,0,207000,908432,
-4384,-8936,27164,-12353,5817,-9363,-20000,0,207000,908434,
-4616,-8868,26992,-12094,6173,-9206,-20000,0,207000,908436,
-5372,-8236,26268,-10488,7026,-8057,-21000,1000,206000,908449,
-5236,-7972,26272,-10316,6904,-7909,-22000,1000,206000,908451,
-5396,-7840,26292,-9994,6865,-7695,-22000,1000,205000,908453,
-5592,-7444,25712,-8777,6138,-7133,-23000,1000,205000,908466,
-5920,-7244,25580,-8438,5977,-6990,-23000,1000,204000,908468,
-5936,-7160,25384,-8288,5725,-6889,-23000,1000,204000,908471,
-5396,-5828,25340,-6914,4304,-6148,-24000,1000,204000,908483,
-5224,-5412,25452,-6855,4014,-6038,-24000,1000,203000,908486,
-3896,-4340,25152,-6062,3597,-5737,-24000,2000,203000,908498,
-3760,-4464,24960,-5819,3703,-5686,-24000,2000,203000,908501,
-3580,-4336,25008,-5670,3724,-5690,-24000,2000,203000,908503,
-3280,-4116,24252,-4707,4295,-5506,-25000,2000,202000,908516,
-3240,-4168,24232,-4550,4406,-5449,-25000,2000,202000,908518,
-3332,-4192,24208,-4334,4577,-5375,-25000,2000,202000,908520,
-3076,-3776,24032,-3579,5108,-5020,-25000,2000,201000,908533,
-3052,-3768,24020,-3422,5260,-4952,-25000,2000,201000,908535,
-3060,-3716,24072,-3318,5359,-4898,-25000,2000,201000,908538,
-3516,-3864,24124,-2333,5682,-4803,-25000,3000,200000,908550,
-3724,-3956,24208,-2171,5613,-4786,-25000,3000,200000,908552,
-3824,-3932,24204,-1859,5547,-4730,-25000,3000,200000,908555,
-4760,-3864,24196,-776,4034,-4684,-25000,3000,199000,908567,
-5312,-3852,24392,-450,3652,-4670,-25000,3000,199000,908570,
-5472,-3812,24136,-405,3057,-4704,-25000,3000,199000,908572,
-6748,-4264,24368,585,-461,-4333,-25000,3000,199000,908585,
-6680,-4236,24264,663,-1265,-4239,-25000,3000,199000,908587,
-6768,-4196,24348,838,-1850,-4123,-25000,3000,199000,908589,
-5576,-4320,24936,1263,-4362,-3465,-25000,2000,199000,908602,
-5328,-4392,24900,1413,-4442,-3320,-25000,2000,199000,908604,
-3956,-5080,25400,1994,-3697,-2578,-25000,2000,198000,908617,
-3708,-5304,25540,2230,-3282,-2412,-25000,2000,198000,908619,
-3552,-5300,25832,2408,-2907,-2304,-25000,2000,198000,908621,
-3432,-5500,25648,3691,-607,-1491,-24000,2000,198000,908634,
-3528,-5500,25396,3788,-255,-1317,-24000,2000,198000,908636,
-3712,-5492,25520,4001,64,-1102,-24000,2000,198000,908639,
-3792,-5256,25516,4733,1235,-285,-23000,2000,198000,908651,
-3864,-5248,25308,4865,1484,-193,-23000,2000,198000,908654,
-3976,-5168,25516,5007,1554,-40,-23000,2000,198000,908656,
-3684,-5216,25388,5938,1995,632,-23000,2000,198000,908669,
-3652,-5104,25376,6167,2001,684,-22000,2000,198000,908671,
-3612,-5156,25244,6349,2017,789,-22000,2000,198000,908673,
-3580,-5044,24948,7530,1577,1047,-22000,2000,198000,908686,
-3696,-5096,24524,7697,1487,1038,-21000,2000,198000,908688,
-3764,-5076,24620,7861,1287,1132,-21000,2000,198000,908690,
-3448,-4904,23996,8644,380,1418,-20000,3000,198000,908703,
-3344,-4792,23904,8755,119,1514,-20000,3000,198000,908705,
-3232,-4748,23996,8892,8,1596,-20000,3000,198000,908707,
-2396,-4496,22856,9359,-126,1732,-19000,3000,199000,908720,
-2148,-4564,22988,9559,-54,1718,-19000,3000,199000,908722,
-2088,-4676,22644,9670,123,1709,-19000,3000,199000,908724,
-2204,-4980,22384,10730,671,1808,-18000,3000,199000,908737,
-2264,-4776,22324,10772,733,1893,-17000,3000,199000,908739,
-2300,-4728,22304,10945,727,1907,-17000,3000,199000,908742,
-2152,-4216,21820,11267,1005,2025,-16000,3000,199000,908754,
-2136,-4384,21572,11393,1119,1977,-16000,3000,199000,908757,
-2252,-4392,21340,11414,1168,1973,-16000,3000,199000,908759,
-2568,-4592,20812,12030,1201,1966,-14000,3000,199000,908772,
-2696,-4620,20644,12108,1103,1952,-14000,3000,199000,908774,
-2736,-4608,20560,12315,958,1969,-14000,3000,199000,908776,
-3380,-4024,19872,12693,-163,1873,-13000,3000,199000,908789,
-3432,-3992,19740,12758,-525,1899,-13000,3000,200000,908791,
-3508,-3936,19624,12748,-783,1881,-12000,3000,200000,908793,
-3484,-3716,19668,12817,-2817,1850,-11000,3000,200000,908806,
-3400,-3624,19828,12878,-3107,1830,-11000,3000,200000,908808,
-3336,-3620,19656,12994,-3421,1848,-11000,3000,200000,908810,
-2316,-3508,19084,12968,-3831,1660,-9000,3000,200000,908823,
-2376,-3532,18880,13068,-3771,1602,-9000,3000,200000,908825,
-2300,-3452,18960,13085,-3672,1548,-9000,3000,200000,908827,
-1932,-3132,18112,13326,-3115,1356,-8000,2000,200000,908840,
-1776,-3052,17980,13475,-2914,1313,-7000,2000,200000,908842,
-1724,-3032,17876,13432,-2714,1285,-7000,2000,200000,908845,
-1720,-2640,17020,13707,-996,1003,-6000,2000,200000,908857,
-1776,-2676,16884,13783,-782,1011,-6000,2000,201000,908859,
-1944,-2568,16624,13735,-426,954,-5000,2000,201000,908862,
-2288,-2352,15960,13791,746,915,-4000,2000,201000,908874,
-2412,-2312,15972,13733,892,901,-4000,2000,201000,908877,
-2572,-2200,15804,13732,864,866,-4000,2000,201000,908879,
-3624,-2020,15356,13628,-216,771,-2000,2000,201000,908892,
-3696,-2000,15180,13694,-437,736,-2000,2000,201000,908894,
-3828,-1996,14992,13651,-764,734,-2000,2000,201000,908896,
-4100,-1760,13584,13824,-2362,525,0,2000,201000,908909,
-4076,-1664,13328,13772,-2785,454,0,2000,201000,908911,
-4008,-1640,13272,13834,-3121,391,0,2000,201000,908914,
-4140,-1064,12512,13732,-5504,75,0,2000,201000,908926,
-3968,-972,12268,13803,-5974,30,1000,2000,201000,908928,
-3996,-764,12004,13688,-6379,-56,1000,2000,201000,908931,
-3956,-552,11324,13235,-8807,-418,2000,1000,201000,908943,
-3880,-588,11128,13209,-9196,-508,2000,1000,201000,908946,
-3768,-516,10940,13141,-9632,-579,2000,1000,201000,908948,
-2708,-44,9468,12610,-10801,-999,4000,0,201000,908961,
-2460,192,9076,12475,-10832,-1082,4000,0,201000,908963,
-2348,196,9316,12279,-10837,-1134,4000,0,200000,908965,
-1796,952,8876,11633,-11058,-1470,5000,-1000,200000,908978,
-1724,1024,8820,11440,-10895,-1503,5000,-1000,200000,908980,
-1844,1088,8904,11282,-10947,-1562,6000,-1000,200000,908982,
-1532,1212,8860,10280,-10708,-1768,7000,-2000,200000,908995,
-1596,1232,8880,10046,-10693,-1859,7000,-2000,200000,908997,
-1388,1136,8808,9869,-10473,-1885,7000,-2000,200000,909000,
-900,1188,8452,9097,-8934,-2026,8000,-3000,199000,909012,
-796,1356,8504,8928,-8600,-2023,8000,-3000,199000,909014,
-800,1340,8932,8769,-8518,-1996,8000,-3000,199000,909017,
-532,2088,9352,7936,-7828,-1818,9000,-4000,199000,909029,
-596,2060,9600,7815,-7820,-1801,9000,-4000,199000,909031,
-456,2248,9556,7685,-7539,-1762,9000,-4000,199000,909034,
-116,2176,9088,7103,-6506,-1747,10000,-5000,199000,909046,
-80,2116,8800,7096,-6168,-1776,10000,-5000,199000,909048,
120,2020,8760,7031,-5973,-1763,10000,-5000,199000,909051,
-8,2016,8584,7113,-4955,-1677,11000,-5000,198000,909063,
-56,2152,8608,7032,-4871,-1656,11000,-5000,198000,909065,
68,2252,8496,6990,-4608,-1627,11000,-5000,198000,909068,
56,2740,9100,6856,-3725,-1566,12000,-6000,198000,909080,
-80,2604,9148,6722,-3475,-1594,12000,-6000,198000,909082,
-20,2548,9208,6649,-3482,-1597,12000,-6000,198000,909085,
-96,2480,9028,6314,-3342,-1703,13000,-6000,198000,909097,
-132,2628,9320,6217,-3475,-1735,13000,-6000,198000,909100,
-160,2932,9036,6180,-3409,-1731,13000,-6000,198000,909102,
336,3900,8380,5534,-3217,-1627,14000,-6000,197000,909114,
380,3776,8500,5390,-3073,-1568,14000,-6000,197000,909117,
500,3816,8340,5243,-3054,-1557,14000,-6000,197000,909119,
560,3776,7904,4264,-2119,-1392,14000,-7000,197000,909131,
656,3728,7628,4129,-1862,-1350,15000,-7000,197000,909134,
640,3624,7540,3889,-1582,-1304,15000,-7000,197000,909136,
860,3512,7228,2996,8,-1004,15000,-7000,197000,909149,
820,3528,7284,2809,270,-927,15000,-7000,197000,909151,
812,3544,7304,2745,541,-854,15000,-7000,197000,909153,
748,3584,7388,2503,821,-795,15000,-7000,197000,909155,
484,3884,7724,1701,1624,-480,15000,-6000,197000,909168,
384,3956,8036,1532,1692,-426,15000,-6000,197000,909170,
200,4056,8564,1526,1643,-349,15000,-6000,197000,909173,
16,4352,9452,988,534,-136,16000,-6000,197000,909185,
188,4368,9608,940,270,-119,16000,-6000,197000,909187,
280,4440,9816,944,137,-132,16000,-6000,197000,909190,
572,5700,10356,1182,-897,-24,16000,-6000,197000,909202,
592,5916,10636,1121,-1162,0,16000,-6000,197000,909205,
652,6060,10460,1157,-1405,-31,16000,-6000,197000,909207,
1304,6772,10924,863,-2270,-143,16000,-7000,197000,909219,
1564,6752,10904,828,-2265,-208,16000,-7000,197000,909222,
1512,6744,10824,731,-2259,-240,16000,-7000,197000,909224,
2352,6816,10748,280,-1512,-506,16000,-7000,197000,909237,
2316,6708,10888,256,-1306,-540,16000,-7000,197000,909239,
2276,6704,11156,277,-1117,-550,16000,-7000,197000,909241,
1920,6924,11564,-243,-634,-502,16000,-7000,196000,909254,
1756,6764,11732,-378,-591,-466,16000,-7000,196000,909256,
1764,6796,11812,-498,-654,-488,16000,-7000,196000,909258,
1544,6264,12140,-1108,-485,-488,16000,-7000,196000,909271,
1400,6088,12024,-1132,-580,-472,16000,-7000,196000,909273,
1456,6056,12192,-1131,-571,-481,16000,-7000,196000,909276,
1592,5408,12432,-1258,-496,-447,16000,-7000,196000,909288,
1540,5476,12356,-1212,-338,-439,16000,-7000,196000,909290,
1648,5368,12568,-1238,-304,-417,16000,-7000,196000,909293,
1828,5540,12960,-982,132,-290,16000,-7000,196000,909305,
1772,5724,13192,-968,145,-263,16000,-7000,196000,909308,
1680,5800,13252,-874,190,-266,16000,-7000,196000,909310,
1708,6084,13724,-771,441,-100,16000,-7000,196000,909323,
1752,6240,14040,-736,493,-135,16000,-7000,196000,909325,
1704,6348,14120,-731,568,-113,16000,-7000,196000,909327,
1756,6888,14164,-575,749,-176,16000,-7000,196000,909340,
1784,6912,14268,-589,810,-184,16000,-7000,196000,909342,
1848,7036,14280,-579,810,-188,16000,-7000,196000,909344,
1628,7292,14288,-848,860,-333,16000,-7000,196000,909357,
1656,7268,14496,-829,943,-348,16000,-7000,196000,909359,
1672,7288,14436,-928,862,-339,16000,-7000,196000,909362,
1508,7560,14748,-1124,675,-230,16000,-6000,196000,909374,
1468,7616,14628,-1259,600,-244,16000,-6000,196000,909376,
1472,7536,14764,-1285,538,-220,16000,-6000,196000,909379,
