Ax,Ay,Az,Gx,Gy,Gz,Roll,Pitch,Yaw,Timestamp,Target
656,5696,14904,-418,1560,-68,14000,-3000,180000,922937,
724,5812,14808,-436,1548,-68,14000,-3000,180000,922939,
636,5832,14900,-452,1483,-22,14000,-3000,180000,922942,
508,5832,14468,-475,903,112,14000,-3000,180000,922954,
484,5896,14440,-501,640,106,14000,-3000,180000,922957,
468,5984,14504,-455,559,117,14000,-3000,180000,922959,
652,6208,14604,-570,-442,137,14000,-3000,180000,922971,
692,6196,14636,-529,-514,136,14000,-3000,180000,922974,
652,6212,14608,-622,-762,146,14000,-3000,180000,922976,
1348,6184,14932,-716,-1241,135,14000,-3000,180000,922988,
1416,6196,14720,-733,-1287,113,14000,-3000,180000,922991,
1696,6192,14812,-728,-1210,93,14000,-3000,180000,922993,
1992,6152,14924,-752,-766,27,14000,-3000,180000,923005,
2020,6040,14916,-732,-571,28,14000,-3000,180000,923008,
2076,6208,14932,-782,-510,17,14000,-3000,180000,923010,
1964,6028,15056,-738,464,-9,14000,-3000,180000,923022,
1928,5944,15040,-742,5567000,220000,0,0,0,923022,
3072,5372,15332,-1109,559,-693,11000,-8000,220000,925447,
3096,4612,15596,-846,-56,-758,11000,-8000,220000,925459,
3200,4704,15540,-842,-187,-755,11000,-8000,220000,925461,
1016,5860,14948,-714,1131,24,14000,-3000,180000,923056,
960,5808,15140,-624,1200,40,14000,-3000,180000,923058,
904,5732,15000,-670,1133,18,14000,-3000,180000,923061,
640,5588,14868,-476,745,59,14000,-3000,180000,923073,
524,5612,14772,-497,638,64,14000,-3000,180000,923075,
508,5640,14652,-420,582,70,14000,-3000,180000,923078,
616,5700,14688,-462,397,84,14000,-3000,180000,923080,
896,5652,14716,-358,129,114,14000,-3000,180000,923092,
976,5664,14540,-417,75,91,14000,-3000,180000,923095,
944,5616,14504,-346,84,117,14000,-3000,180000,923097,
960,5568,14336,-425,251,144,14000,-3000,180000,923109,
1020,5488,14372,-390,234,171,14000,-3000,180000,923112,
1012,5540,14084,-412,352,142,14000,-3000,180000,923114,
1064,5700,14060,-496,292,227,14000,-3000,180000,923126,
1156,5808,14160,-498,341,219,14000,-3000,180000,923128,
1132,5640,14200,-559,285,208,14000,-3000,180000,923131,
1336,5868,14128,-630,371,245,14000,-3000,180000,923143,
1236,5908,14172,-597,400,256,14000,-3000,180000,923145,
1392,5896,14164,-620,470,237,14000,-3000,180000,923148,
1472,5956,14484,-668,504,172,14000,-3000,180000,923160,
1340,5884,14440,-718,529,158,14000,-3000,180000,923162,
1340,5900,14476,-721,486,135,14000,-3000,180000,923165,
1268,5796,14548,-735,614,31,14000,-3000,180000,923177,
1208,5676,14544,-788,571,51,14000,-3000,180000,923179,
1128,5664,14536,-714,620,32,14000,-3000,180000,923182,
992,5752,14828,-828,228,40,14000,-3000,180000,923194,
1036,5668,14644,-801,275,82,14000,-3000,180000,923196,
1052,5644,14892,-870,170,50,14000,-3000,180000,923199,
1136,5756,14972,-854,40,114,14000,-3000,180000,923211,
1088,5780,15012,-917,-53,114,14000,-3000,180000,923213,
1140,5708,15192,-858,-33,125,14000,-3000,180000,923215,
1484,5760,15288,-831,-43,166,14000,-3000,181000,923228,
1492,5708,15292,-807,100,135,14000,-3000,181000,923230,
1600,5772,15452,-850,95,141,14000,-3000,181000,923232,
1732,5748,15520,-731,663,107,14000,-3000,181000,923245,
1840,5688,15480,-780,669,85,14000,-3000,181000,923247,
1820,5660,15492,-714,822,89,14000,-3000,181000,923249,
1516,5744,15472,-648,1118,53,14000,-3000,181000,923262,
1488,5696,15452,-626,1171,40,14000,-3000,181000,923264,
1520,5708,15356,-661,1114,23,14000,-3000,181000,923266,
1200,5916,15488,-543,882,-63,13000,-3000,181000,923279,
1164,5904,15328,-595,744,-93,13000,-3000,181000,923281,
1192,5828,15412,-578,607,-98,13000,-3000,181000,923283,
1140,5804,15352,-611,199,-169,13000,-3000,181000,923296,
1180,5700,15464,-662,123,-175,13000,-3000,181000,923298,
1164,5720,15224,-602,94,-138,13000,-3000,181000,923300,
1380,5660,15212,-654,76,-195,13000,-3000,181000,923312,
1324,5644,15104,-562,149,-190,13000,-3000,181000,923315,
1424,5592,15112,-593,182,-184,13000,-3000,181000,923317,
1324,5644,15212,-536,296,-204,13000,-3000,181000,923329,
1340,5728,15220,-524,363,-177,13000,-2000,181000,923332,
1352,5628,15076,-544,307,-188,13000,-2000,181000,923334,
1144,5572,15300,-518,389,-242,13000,-2000,181000,923346,
1156,5476,15172,-464,365,-203,13000,-2000,181000,923349,
1212,5644,15224,-497,470,-213,13000,-2000,181000,923351,
1112,5572,14880,-478,335,-138,13000,-2000,181000,923363,
1096,5564,14752,-433,399,-128,13000,-2000,181000,923365,
1068,5652,14760,-494,363,-116,13000,-2000,180000,923368,
892,5756,14688,-507,301,-81,13000,-2000,180000,923380,
904,5592,14656,-498,218,-19,13000,-2000,180000,923382,
904,5544,14808,-518,189,-15,13000,-2000,180000,923385,
1028,5616,14800,-577,-211,10,13000,-2000,180000,923397,
1108,5564,14740,-634,-258,16,13000,-2000,180000,923399,
1188,5624,14668,-613,-357,25,13000,-2000,180000,923402,
1444,5452,14720,-692,-348,32,13000,-2000,180000,923414,
1608,5500,14664,-712,-348,40,13000,-2000,180000,923416,
1648,5492,14768,-700,-250,68,13000,-2000,180000,923419,
1728,5620,14716,-715,-9,35,13000,-2000,180000,923431,
1712,5700,14624,-662,44,64,13000,-3000,180000,923433,
1736,5660,14888,-728,1,50,13000,-3000,180000,923435,
1628,5708,14748,-679,107,47,13000,-3000,180000,923438,
1528,5736,15064,-757,210,-7,13000,-3000,180000,923450,
1600,5688,15272,-699,271,-8,13000,-3000,180000,923452,
1468,5696,15148,-713,292,-13,13000,-2000,180000,923455,
1648,5616,15192,-656,284,-120,13000,-2000,180000,923467,
1500,5608,15148,-680,333,-166,13000,-2000,180000,923469,
1672,5516,15104,-636,346,-168,13000,-2000,180000,923472,
1616,5644,15196,-604,575,-289,13000,-2000,180000,923484,
1652,5600,15076,-653,501,-338,13000,-2000,180000,923486,
1508,5600,14992,-580,594,-352,13000,-2000,180000,923489,
1232,5732,15084,-660,508,-382,13000,-2000,180000,923501,
1180,5704,15040,-686,533,-367,13000,-2000,180000,923503,
1256,5696,14980,-709,459,-361,13000,-2000,180000,923506,
920,5540,15108,-812,242,-370,13000,-2000,180000,923518,
924,5384,14884,-870,148,-392,13000,-2000,180000,923520,
908,5408,14972,-815,112,-385,13000,-2000,180000,923523,
972,5560,14904,-867,-172,-340,13000,-2000,180000,923535,
912,5600,14956,-799,-184,-366,13000,-2000,180000,923537,
1024,5664,14984,-865,-279,-350,13000,-2000,180000,923539,
1088,5656,15140,-712,-627,-319,13000,-2000,180000,923552,
1156,5592,15188,-757,-619,-300,13000,-2000,180000,923554,
1232,5504,15368,-691,-669,-338,13000,-2000,180000,923557,
1608,5648,15480,-652,-592,-424,13000,-2000,180000,923569,
1644,5672,15424,-583,-476,-460,13000,-2000,180000,923571,
1580,5636,15656,-625,-482,-465,13000,-3000,180000,923574,
1448,5668,15636,-481,-270,-576,13000,-3000,180000,923586,
1424,5708,15468,-479,-225,-596,13000,-3000,180000,923588,
1452,5588,15612,-490,-236,-615,13000,-3000,180000,923590,
1260,5488,15384,-478,-102,-664,13000,-3000,180000,923603,
1216,5456,15188,-465,-150,-676,13000,-3000,180000,923605,
1260,5440,15264,-424,-47,-662,13000,-3000,180000,923607,
1060,5464,14960,-488,-105,-622,13000,-3000,180000,923620,
992,5408,14900,-433,-75,-607,13000,-3000,180000,923622,
1068,5348,14980,-475,-116,-585,13000,-3000,180000,923624,
920,5192,14884,-463,-18,-512,13000,-3000,180000,923637,
828,5252,14916,-504,-55,-482,13000,-3000,180000,923639,
812,5268,14708,-487,12,-479,13000,-3000,180000,923641,
768,5280,14576,-577,-41,-332,13000,-3000,180000,923654,
688,5256,14480,-582,31,-268,13000,-3000,180000,923656,
700,5324,14476,-597,-30,-233,13000,-3000,180000,923658,
704,5508,14508,-713,-166,-137,13000,-3000,180000,923671,
744,5532,14552,-770,-261,-85,13000,-3000,180000,923673,
724,5548,14556,-765,-297,-62,13000,-3000,180000,923675,
972,5516,14596,-871,-769,19,13000,-3000,180000,923688,
952,5544,14604,-897,-749,49,13000,-3000,180000,923690,
1064,5592,14744,-907,-880,54,13000,-3000,180000,923692,
1388,5592,14948,-918,-1142,49,13000,-3000,180000,923705,
1412,5544,15108,-918,-1287,20,13000,-3000,180000,923707,
1548,5420,15108,-900,-1238,19,13000,-3000,180000,923709,
1900,5420,15072,-801,-1304,-117,13000,-3000,180000,923722,
1936,5408,15176,-770,-1207,-103,13000,-3000,180000,923724,
2168,5380,15052,-786,-1228,-139,13000,-3000,180000,923726,
2248,5344,15020,-642,-829,-308,13000,-3000,180000,923738,
2176,5396,15004,-571,-739,-323,13000,-3000,180000,923741,
2344,5424,15008,-616,-691,-355,13000,-3000,180000,923743,
2096,5380,15032,-579,19,-477,13000,-3000,180000,923755,
2176,5412,14948,-629,119,-471,13000,-3000,180000,923758,
2184,5344,14900,-587,304,-495,13000,-3000,180000,923760,
1944,5384,14864,-692,1079,-474,13000,-3000,180000,923772,
1740,5408,14860,-645,1252,-446,13000,-3000,180000,923775,
1664,5296,14884,-693,1325,-447,13000,-3000,180000,923777,
1028,5264,15020,-645,1514,-378,13000,-3000,180000,923789,
1096,5288,14940,-735,1435,-374,13000,-3000,180000,923792,
880,5252,14984,-674,1430,-368,13000,-3000,180000,923794,
496,5308,14928,-685,726,-266,13000,-3000,180000,923806,
480,5384,15092,-632,561,-242,13000,-3000,180000,923808,
412,5456,14880,-644,478,-241,13000,-3000,179000,923811,
536,5400,14972,-664,-462,-164,13000,-3000,179000,923823,
700,5348,14992,-593,-593,-143,13000,-3000,179000,923825,
792,5340,14944,-611,-715,-130,13000,-3000,179000,923828,
1492,5564,14892,-562,-1055,-177,13000,-3000,179000,923840,
1516,5672,15104,-489,-1010,-211,13000,-3000,179000,923842,
1720,5628,14928,-535,-1046,-196,13000,-3000,179000,923845,
2076,5864,15268,-514,-898,-332,13000,-3000,179000,923857,
2048,5860,15252,-550,-922,-331,13000,-3000,179000,923859,
2084,5896,15396,-499,-810,-385,13000,-3000,179000,923861,
2108,5964,15428,-475,-496,-520,13000,-3000,179000,923874,
2032,6100,15192,-386,-360,-561,13000,-3000,179000,923876,
2088,6060,15048,-447,-401,-609,13000,-3000,179000,923878,
1984,5948,15008,-368,-270,-710,13000,-3000,179000,923891,
1856,5876,15100,-420,-335,-707,13000,-3000,179000,923893,
1716,5920,15076,-353,-225,-747,13000,-3000,179000,923896,
1496,5740,14996,-437,-104,-780,13000,-3000,179000,923908,
1524,5756,14968,-387,-86,-773,13000,-3000,179000,923910,
1404,5744,15032,-452,-43,-787,13000,-3000,179000,923912,
1168,5640,14936,-478,-145,-771,13000,-3000,179000,923925,
1076,5540,14820,-503,-193,-778,13000,-3000,179000,923927,
996,5472,14640,-518,-281,-754,13000,-3000,179000,923929,
948,5532,14732,-624,-793,-712,13000,-3000,179000,923942,
924,5576,14600,-607,-812,-700,13000,-3000,179000,923944,
992,5520,14708,-666,-922,-711,13000,-3000,179000,923946,
1076,5464,14800,-688,-1228,-634,13000,-3000,179000,923959,
1288,5420,14864,-726,-1244,-625,13000,-3000,179000,923961,
1148,5388,14792,-750,-1308,-597,13000,-3000,179000,923963,
1524,5208,14808,-682,-961,-578,13000,-3000,179000,923976,
1392,5264,14848,-721,-912,-536,13000,-3000,179000,923978,
1540,5276,14844,-663,-751,-556,13000,-3000,179000,923980,
1504,5228,14960,-712,-134,-493,13000,-4000,179000,923993,
1532,5204,14916,-679,21,-485,13000,-4000,179000,923995,
1512,5204,15096,-729,83,-466,13000,-4000,179000,923997,
1292,5172,14904,-700,701,-387,13000,-3000,178000,924010,
1276,5264,14940,-712,711,-364,13000,-3000,178000,924012,
1164,5288,14916,-677,810,-377,13000,-3000,178000,924014,
1008,5524,14980,-765,739,-271,13000,-3000,178000,924027,
976,5444,14968,-703,805,-239,13000,-3000,178000,924029,
1064,5404,14892,-768,705,-229,13000,-3000,178000,924031,
820,5544,14952,-740,526,-196,13000,-3000,178000,924044,
788,5488,15020,-698,515,-189,13000,-3000,178000,924046,
840,5520,14964,-746,337,-195,13000,-3000,178000,924048,
684,5800,14864,-709,-189,-135,12000,-3000,178000,924061,
748,5676,15056,-744,-378,-113,12000,-3000,178000,924063,
816,5788,15208,-712,-452,-109,12000,-3000,178000,924065,
1112,5684,15448,-777,-1050,-150,12000,-3000,178000,924078,
1140,5636,15324,-731,-1071,-155,12000,-3000,178000,924080,
1184,5684,15404,-775,-1104,-155,12000,-3000,178000,924082,
1512,5680,15656,-651,-1189,-198,12000,-3000,178000,924094,
1644,5656,15560,-663,-1112,-218,12000,-4000,178000,924097,
1692,5692,15660,-645,-1131,-228,12000,-4000,178000,924099,
1648,5508,15600,-472,-674,-208,12000,-4000,178000,924111,
1632,5464,15768,-415,-602,-212,12000,-4000,178000,924114,
1600,5440,15516,-397,-519,-210,12000,-4000,178000,924116,
1688,5392,15556,-280,-194,-201,12000,-4000,178000,924128,
1576,5452,15480,-247,-150,-212,12000,-4000,178000,924130,
1680,5408,15516,-287,-94,-188,12000,-4000,178000,924133,
1508,5352,15216,-131,406,-180,12000,-4000,178000,924145,
1464,5320,15264,-130,427,-142,12000,-4000,178000,924147,
1544,5272,15172,-102,499,-135,12000,-4000,178000,924150,
1412,5416,14860,-55,589,-16,13000,-4000,178000,924162,
1276,5452,14844,-106,606,-38,13000,-4000,178000,924164,
1344,5424,14860,-79,577,-2,13000,-4000,178000,924166,
1268,5428,14792,-136,647,31,13000,-3000,178000,924179,
1320,5364,14612,-189,554,10,13000,-3000,178000,924181,
1356,5368,14700,-157,601,11,13000,-3000,178000,924183,
1224,5548,14484,-218,289,41,13000,-3000,178000,924196,
1204,5560,14360,-244,284,63,13000,-3000,178000,924198,
1328,5684,14424,-282,130,78,13000,-3000,178000,924200,
1544,5708,14440,-302,-6,96,13000,-3000,178000,924213,
1648,5736,14288,-373,-46,113,13000,-3000,178000,924215,
1480,5784,14288,-354,-21,74,13000,-3000,178000,924217,
1584,5780,14692,-502,43,46,13000,-3000,178000,924230,
1612,5688,14664,-511,115,49,13000,-3000,178000,924232,
1644,5732,14664,-531,79,40,13000,-3000,178000,924234,
1588,5664,14628,-544,207,8,13000,-3000,178000,924237,
1764,5744,14828,-620,277,17,13000,-3000,178000,924249,
1760,5724,14896,-572,402,10,13000,-3000,178000,924251,
1780,5800,14764,-638,370,-18,13000,-3000,178000,924254,
1584,5692,15152,-520,515,-26,13000,-3000,178000,924266,
1576,5684,15172,-535,492,-4,13000,-3000,178000,924268,
1552,5520,15180,-499,516,-27,13000,-3000,178000,924271,
1300,5436,15328,-438,355,-69,13000,-3000,178000,924283,
1244,5512,15304,-381,269,-89,13000,-3000,178000,924285,
1320,5480,15296,-381,305,-79,13000,-3000,178000,924287,
1268,5284,15056,-227,184,-51,13000,-3000,178000,924300,
1452,5260,15132,-221,189,-46,13000,-3000,178000,924302,
1476,5240,15068,-185,298,-43,13000,-3000,178000,924304,
1636,5256,14752,-37,703,50,13000,-3000,178000,924317,
1484,5276,14812,-74,704,47,13000,-3000,178000,924319,
1432,5324,14796,-4,761,61,13000,-3000,178000,924321,
1424,5332,14832,-42,766,53,13000,-3000,178000,924324,
1216,5568,14992,-59,632,67,13000,-3000,178000,924336,
1144,5592,14936,-131,516,98,13000,-3000,178000,924338,
1300,5688,14876,-109,508,104,13000,-3000,178000,924341,
1488,5688,14800,-216,144,35,13000,-3000,178000,924353,
1460,5700,14700,-161,159,57,13000,-3000,178000,924355,
1564,5616,14644,-236,110,27,13000,-3000,178000,924358,
1752,5644,14644,-192,74,-20,13000,-3000,178000,924370,
1840,5624,14592,-238,32,-12,13000,-3000,178000,924372,
1832,5552,14660,-231,28,8,13000,-3000,178000,924375,
1880,5572,14692,-204,123,-10,13000,-3000,178000,924377,
1964,5448,14756,-235,397,-66,13000,-3000,178000,924389,
1952,5484,14660,-232,441,-76,13000,-3000,178000,924392,
1860,5408,14600,-262,388,-107,13000,-3000,178000,924394,
1744,5596,14652,-321,484,-163,13000,-3000,178000,924406,
1744,5512,14512,-384,478,-140,13000,-3000,178000,924408,
1660,5656,14632,-345,522,-129,13000,-3000,178000,924411,
1604,5524,14560,-444,455,-127,13000,-3000,178000,924423,
1544,5608,14560,-388,500,-137,13000,-3000,178000,924425,
1480,5596,14620,-471,454,-139,13000,-3000,178000,924428,
1424,5584,14556,-516,327,-149,13000,-3000,178000,924440,
1456,5588,14644,-552,220,-156,13000,-3000,178000,924442,
1452,5444,14532,-516,265,-150,13000,-3000,178000,924444,
1432,5344,14824,-559,398,-136,13000,-3000,178000,924457,
1384,5340,14432,-473,465,-130,13000,-3000,178000,924459,
1408,5272,14532,-543,441,-118,13000,-3000,178000,924461,
1364,5356,14556,-474,645,-110,13000,-3000,178000,924474,
1280,5412,14528,-556,639,-146,13000,-3000,178000,924476,
1128,5428,14460,-502,675,-84,13000,-3000,178000,924478,
3680,5336,15168,-555,612,-716,11000,-7000,220000,925529,
3732,5244,15200,-612,499,-726,11000,-7000,220000,925532,
3988,5104,15012,-581,498,-741,11000,-7000,220000,925544,
4048,5104,15056,-551,549,-742,11000,-7000,220000,925546,
3996,5108,14992,-578,566,-739,11000,-7000,220000,925548,
3992,5040,14924,-714,930,-636,11000,-7000,220000,925561,
3816,5036,14672,-779,913,-656,11000,-7000,220000,925563,
3952,5128,14784,-766,1088,-597,11000,-7000,220000,925566,
3908,4916,14828,-948,1432,-492,11000,-7000,220000,925578,
3844,4748,14848,-1029,1498,-537,11000,-7000,220000,925580,
3888,4700,14880,-1021,1549,-533,11000,-7000,220000,925583,
3572,4252,15020,-984,1903,-546,11000,-7000,220000,925595,
3600,4200,14988,-952,1879,-535,11000,-7000,220000,925597,
3528,4200,14952,-884,1910,-536,11000,-7000,220000,925599,
3280,4596,14924,-706,1533,-570,11000,-7000,220000,925612,
3348,4652,14948,-662,1428,-580,11000,-7000,220000,925614,
3272,4844,14992,-610,1267,-572,11000,-7000,220000,925616,
3096,5344,15220,-547,175,-556,11000,-7000,220000,925629,
3028,5388,15228,-472,2,-556,11000,-7000,220000,925631,
3060,5488,15196,-548,-277,-596,11000,-7000,220000,925633,
3536,5040,15000,-526,-1120,-739,11000,-7000,220000,925646,
3676,5088,15036,-538,-1171,-764,11000,-7000,220000,925648,
3880,4880,14968,-491,-1212,-808,11000,-7000,220000,925650,
4292,4748,14920,-348,-992,-997,11000,-7000,219000,925663,
4384,4784,14836,-367,-984,-1024,11000,-7000,219000,925665,
4512,4788,14912,-298,-837,-1024,11000,-7000,219000,925667,
4464,4640,14488,-294,47,-1190,11000,-7000,219000,925680,
4436,4660,14704,-307,248,-1211,11000,-7000,219000,925682,
4536,4612,14664,-277,364,-1256,11000,-7000,219000,925684,
4128,4712,14672,-272,1281,-1303,11000,-7000,219000,925697,
4120,4708,14668,-311,1402,-1306,11000,-7000,219000,925699,
4004,4640,14744,-307,1584,-1297,11000,-7000,219000,925701,
3496,5100,14692,-316,2016,-1244,11000,-7000,219000,925714,
3392,5308,14768,-270,2105,-1223,11000,-7000,219000,925716,
3356,5304,14688,-338,2044,-1198,11000,-7000,219000,925718,
2808,5588,14740,-537,1630,-1187,11000,-7000,219000,925731,
2728,5560,14580,-613,1492,-1184,11000,-7000,219000,925733,
2600,5536,14704,-636,1285,-1183,11000,-7000,219000,925735,
2664,5224,14940,-673,353,-1150,11000,-7000,219000,925747,
2568,5288,14888,-716,148,-1179,11000,-7000,219000,925750,
2640,5228,14928,-675,21,-1157,11000,-7000,219000,925752,
2920,5168,15064,-747,-731,-1184,11000,-7000,219000,925764,
3012,5132,15104,-727,-752,-1208,11000,-7000,219000,925767,
3148,5080,15064,-779,-901,-1214,11000,-7000,219000,925769,
3232,5152,15296,-724,-977,-1233,11000,-7000,218000,925782,
3400,5040,15244,-795,-1078,-1236,11000,-7000,218000,925784,
3416,5060,15252,-730,-1018,-1260,11000,-7000,218000,925786,
3440,5032,15276,-752,-850,-1266,11000,-7000,218000,925799,
3592,5040,15320,-696,-663,-1276,11000,-7000,218000,925801,
3564,5116,15260,-736,-652,-1261,11000,-7000,218000,925803,
3588,5244,15392,-648,207,-1175,11000,-7000,218000,925816,
3560,5332,15260,-679,338,-1194,11000,-7000,218000,925818,
3488,5272,15420,-587,547,-1184,11000,-7000,218000,925820,
3000,6040,15584,-513,968,-910,11000,-7000,218000,925833,
2760,6180,15488,-535,972,-889,11000,-7000,218000,925835,
2616,6220,15636,-667,805,-848,11000,-7000,218000,925837,
2192,5376,15736,-934,271,-747,11000,-7000,218000,925850,
2076,5280,15736,-967,87,-761,11000,-7000,218000,925852,
2128,5144,15900,-860,-15,-752,11000,-7000,218000,925854,
2508,4932,15480,-691,-609,-788,11000,-7000,218000,925867,
2620,4808,15564,-669,-697,-787,11000,-7000,218000,925869,
2648,4740,15428,-628,-677,-795,11000,-7000,218000,925871,
2784,4556,15324,-325,-751,-791,11000,-7000,218000,925884,
2832,4508,15276,-260,-700,-784,11000,-7000,218000,925886,
2852,4592,15320,-279,-735,-779,11000,-7000,218000,925888,
3156,4676,15004,-120,-212,-726,11000,-7000,218000,925901,
3100,4584,14988,-128,-136,-731,11000,-7000,217000,925903,
3008,4616,14880,-64,43,-691,11000,-7000,217000,925905,
2988,4728,14604,77,627,-639,11000,-7000,217000,925917,
2924,4600,14640,154,753,-618,11000,-7000,217000,925920,
2956,4596,14564,103,778,-627,11000,-7000,217000,925922,
2888,4648,14048,278,1303,-559,11000,-7000,217000,925934,
2852,4572,14032,289,1396,-577,11000,-7000,217000,925937,
2960,4476,13976,330,1395,-567,11000,-7000,217000,925939,
2960,4608,13416,443,1494,-558,11000,-7000,217000,925951,
3044,4604,13332,468,1516,-553,11000,-7000,217000,925954,
2988,4624,13220,463,1438,-555,11000,-6000,217000,925956,
3316,4584,12812,489,1232,-668,11000,-6000,217000,925968,
3368,4632,12864,434,1131,-698,11000,-6000,217000,925971,
3412,4676,12668,498,1166,-730,11000,-6000,217000,925973,
3456,4536,12344,319,814,-884,12000,-6000,217000,925985,
3544,4488,12208,341,734,-937,12000,-6000,217000,925987,
3464,4504,12100,268,646,-1015,12000,-6000,217000,925990,
3648,4292,11716,191,-149,-1210,12000,-6000,217000,926002,
3812,4240,11612,183,-322,-1259,12000,-6000,217000,926004,
4016,4268,11620,176,-412,-1338,12000,-6000,217000,926007,
4712,4224,11028,141,-1049,-1758,12000,-7000,217000,926019,
4892,4168,10876,109,-1085,-1857,12000,-7000,217000,926021,
4908,4124,10768,104,-1233,-1936,12000,-7000,217000,926024,
5404,3464,10000,46,-1579,-2528,12000,-7000,216000,926036,
5536,3288,10084,69,-1586,-2590,12000,-7000,216000,926038,
5564,3284,9928,33,-1590,-2705,12000,-7000,216000,926041,
6060,2724,9148,-34,-1420,-3316,12000,-7000,216000,926053,
6244,2524,8940,-91,-1274,-3481,12000,-7000,216000,926055,
6320,2452,8836,-159,-1246,-3582,12000,-7000,216000,926058,
6844,1808,7920,-521,41,-4341,12000,-7000,215000,926070,
6928,1688,7832,-655,288,-4470,12000,-7000,215000,926072,
6920,1580,7816,-695,631,-4598,12000,-7000,215000,926075,
6792,1304,7032,-1168,2428,-5361,12000,-7000,215000,926087,
6584,1144,6916,-1225,2713,-5503,12000,-7000,215000,926089,
6416,1140,6848,-1464,2952,-5653,12000,-7000,215000,926091,
6152,716,6344,-2221,4207,-6279,12000,-7000,214000,926104,
6024,640,6288,-2423,4319,-6399,12000,-7000,214000,926106,
5956,584,6144,-2520,4475,-6545,12000,-7000,214000,926108,
5360,496,5664,-3411,4589,-7229,11000,-6000,213000,926121,
5244,484,5632,-3500,4629,-7322,11000,-6000,213000,926123,
4980,396,5436,-3732,4451,-7476,11000,-6000,213000,926125,
4740,100,5532,-4686,3479,-7951,11000,-6000,213000,926138,
4716,152,5500,-4935,3243,-8078,11000,-6000,212000,926140,
4752,60,5524,-5088,3081,-8194,11000,-6000,212000,926143,
5272,-492,5672,-6290,2346,-8848,10000,-6000,211000,926155,
5396,-760,5772,-6438,2371,-8977,10000,-6000,211000,926157,
5544,-864,5804,-6677,2276,-9152,10000,-6000,211000,926160,
6148,-1396,5856,-7698,2624,-10055,9000,-5000,210000,926172,
6356,-1496,5672,-7925,2726,-10244,9000,-5000,210000,926174,
6468,-1556,5648,-8084,2999,-10407,9000,-5000,210000,926177,
6780,-2116,5592,-8960,4624,-11487,8000,-5000,209000,926189,
6612,-2156,5388,-9096,5133,-11696,8000,-5000,209000,926192,
6412,-2276,5492,-9271,5546,-11959,8000,-5000,209000,926194,
4936,-2204,5860,-9825,8182,-12943,7000,-4000,207000,926206,
4440,-2228,5868,-10026,8495,-13204,6000,-4000,207000,926209,
4052,-2220,6048,-10109,8835,-13308,6000,-4000,207000,926211,
2936,-2252,6620,-11030,8490,-14393,5000,-3000,206000,926223,
2704,-2172,6964,-11330,8122,-14633,5000,-3000,206000,926226,
2760,-2356,7152,-11443,7747,-14815,5000,-3000,205000,926228,
1984,-2788,7576,-12859,5622,-15824,3000,-2000,204000,926241,
1964,-2816,7804,-13010,5255,-15933,3000,-2000,204000,926243,
2024,-2924,7812,-13274,4869,-16075,3000,-2000,203000,926245,
1892,-3484,9056,-14240,3417,-16796,1000,-2000,202000,926258,
1748,-3624,9140,-14515,3270,-16935,1000,-1000,201000,926260,
1776,-3640,9368,-14651,3212,-17027,1000,-1000,201000,926263,
1796,-3684,10584,-15952,3941,-17443,0,-1000,199000,926275,
1692,-3660,11092,-16172,4220,-17513,0,-1000,199000,926277,
1672,-3680,11064,-16247,4546,-17516,0,-1000,199000,926280,
460,-3656,12956,-17356,5857,-17869,-2000,0,197000,926292,
456,-3932,13252,-17363,6085,-17907,-2000,0,197000,926294,
-396,-3916,13612,-17573,6120,-17954,-3000,0,196000,926296,
-2964,-4492,15156,-19191,5223,-17562,-4000,0,195000,926309,
-3372,-4780,15648,-19632,5053,-17543,-5000,0,194000,926311,
-3768,-5172,15968,-19763,4829,-17406,-5000,0,194000,926314,
-5372,-6484,18608,-20294,1835,-16816,-7000,0,193000,926326,
-5748,-6620,19288,-20318,1425,-16531,-8000,0,192000,926328,
-5652,-6816,19916,-20511,849,-16329,-8000,0,192000,926331,
-4980,-6724,22600,-20599,-737,-15075,-10000,0,190000,926343,
-4780,-6864,22944,-20482,-777,-14824,-10000,0,190000,926346,
-4448,-6780,23496,-20538,-840,-14735,-11000,0,190000,926348,
-3708,-6832,24964,-20251,667,-13898,-13000,0,189000,926361,
-3768,-6880,25420,-20183,1000,-13679,-13000,0,188000,926363,
-3756,-6992,25612,-20018,1518,-13499,-13000,0,188000,926365,
-4244,-7564,27380,-18648,4135,-12617,-15000,0,187000,926378,
-4468,-7688,27492,-18349,4656,-12438,-16000,0,187000,926380,
-4592,-7720,27768,-18090,5238,-12331,-16000,0,186000,926382,
-5944,-8188,28044,-16318,6572,-11444,-17000,0,185000,926395,
-6204,-8076,28072,-16012,6660,-11263,-18000,0,185000,926397,
-6404,-8008,28008,-15730,6670,-11071,-18000,0,185000,926400,
-7360,-7116,27708,-14136,6522,-10177,-19000,0,184000,926412,
-7412,-7000,27552,-13767,6496,-10014,-20000,0,183000,926415,
-7428,-6616,27520,-13559,6218,-9891,-20000,0,183000,926417,
-7536,-5288,26872,-12180,4661,-9032,-21000,0,182000,926430,
-7564,-5064,26744,-12066,4294,-8944,-21000,0,182000,926432,
-7396,-4860,26736,-11787,3966,-8790,-21000,0,182000,926434,
-6308,-3684,26684,-10842,2375,-8134,-22000,0,181000,926447,
-6044,-3240,26080,-10666,2537,-7962,-22000,0,181000,926449,
-6000,-3280,26240,-10628,2338,-7884,-23000,0,181000,926452,
-4116,-2968,26284,-9902,2729,-7588,-24000,0,180000,926464,
-3876,-2984,26492,-9836,2921,-7539,-24000,0,180000,926467,
-3492,-2900,26524,-9647,3345,-7437,-24000,0,180000,926469,
-2544,-3036,26372,-8484,6143,-7235,-25000,1000,179000,926481,
-2552,-3132,26524,-8242,6595,-7228,-25000,1000,179000,926484,
-2448,-2912,26436,-7897,7043,-7224,-25000,1000,178000,926486,
-4176,-2968,27456,-6166,8461,-7433,-25000,1000,177000,926499,
-4464,-3012,27564,-5824,8600,-7476,-25000,1000,177000,926501,
-5320,-3028,27820,-5537,8385,-7443,-25000,1000,177000,926503,
-7452,-3248,28956,-3995,6462,-6884,-26000,2000,176000,926516,
-7688,-3316,28972,-3849,5839,-6792,-26000,2000,176000,926518,
-8236,-3656,29968,-2542,2367,-5800,-26000,2000,176000,926531,
-8116,-3676,29944,-2353,1788,-5598,-26000,2000,175000,926533,
-7684,-3800,30400,-2142,1330,-5376,-26000,2000,175000,926535,
-6112,-3788,30844,-718,88,-4163,-26000,2000,175000,926548,
-5776,-3848,30624,-429,53,-3935,-26000,2000,175000,926550,
-5308,-3840,30896,-145,205,-3779,-26000,2000,175000,926552,
-4036,-4172,31124,1381,1614,-2760,-26000,2000,175000,926565,
-3704,-4144,31364,1658,1945,-2597,-26000,2000,174000,926567,
-3480,-4300,31572,1981,2243,-2475,-26000,2000,174000,926570,
-2600,-4048,32172,3798,4354,-1974,-25000,2000,174000,926582,
-2540,-4092,32396,4162,4664,-1890,-25000,2000,174000,926584,
-2540,-4200,32504,4510,5000,-1833,-25000,2000,174000,926587,
-2940,-4824,31948,7028,6138,-1554,-24000,3000,174000,926599,
-3276,-4804,31936,7415,6144,-1534,-24000,3000,173000,926602,
-3400,-4884,31816,7909,6072,-1463,-24000,3000,173000,926604,
-4604,-5088,30380,9911,4712,-1187,-23000,3000,173000,926617,
-4744,-5004,30280,10207,4269,-1160,-23000,3000,173000,926619,
-4788,-5012,29824,10460,3975,-1065,-22000,3000,173000,926621,
-5360,-5488,28188,11704,1736,-560,-21000,4000,173000,926634,
-5336,-5488,27912,11845,1425,-411,-21000,4000,173000,926636,
-5220,-5532,27440,12008,1035,-275,-21000,4000,173000,926638,
-4280,-5940,26016,12591,190,501,-20000,4000,173000,926651,
-4080,-5868,26032,12864,141,652,-19000,4000,173000,926653,
-4024,-5936,25600,12879,213,787,-19000,4000,173000,926656,
-3512,-6428,24640,13671,897,1672,-18000,4000,173000,926668,
-3364,-6420,24308,13744,1076,1834,-18000,4000,173000,926670,
-3516,-6528,24184,13801,1197,1973,-17000,4000,173000,926673,
-3492,-6124,23008,14162,1791,2714,-16000,4000,173000,926685,
-3508,-6172,22852,14178,1687,2882,-16000,4000,173000,926687,
-3444,-6068,22616,14217,1704,2907,-15000,4000,173000,926690,
-3128,-6012,21748,14440,1108,3385,-14000,4000,174000,926702,
-3048,-5828,21760,14613,1053,3451,-14000,4000,174000,926705,
-2732,-5516,20468,15000,440,3653,-12000,5000,174000,926717,
-2828,-5448,19964,15152,330,3616,-12000,5000,174000,926720,
-2596,-5576,19976,15160,185,3566,-12000,5000,174000,926722,
-2660,-5524,18968,15585,-746,3434,-10000,5000,175000,926734,
-2480,-5432,18864,15580,-835,3383,-10000,5000,175000,926737,
-2332,-5340,18800,15702,-1026,3417,-10000,5000,175000,926739,
-1800,-4516,17824,15749,-1543,3358,-8000,5000,175000,926752,
-1416,-4384,17620,15695,-1166,3353,-8000,5000,175000,926754,
-1956,-4328,17680,15590,-993,3299,-8000,5000,175000,926756,
-1516,-4032,16008,15420,309,3175,-6000,5000,175000,926769,
-1512,-4012,15808,15289,715,3171,-6000,5000,176000,926771,
-1600,-3772,15540,15206,999,3221,-6000,5000,176000,926773,
-1824,-3388,14432,14720,2676,3277,-4000,5000,176000,926786,
-1928,-3352,14368,14622,2864,3343,-4000,5000,176000,926788,
-2124,-3248,14096,14482,3151,3302,-4000,5000,176000,926790,
-3152,-2960,13400,13948,3447,3379,-2000,5000,176000,926803,
-3528,-2808,13536,13871,3223,3397,-2000,6000,176000,926805,
-3904,-2464,13384,13756,2829,3449,-2000,6000,176000,926808,
-4372,-1980,12608,13031,-173,3516,-1000,6000,177000,926820,
-4028,-2008,13240,13230,-480,3409,0,6000,177000,926823,
-5032,-1712,12236,13111,-1167,3340,0,6000,177000,926825,
-4844,-1400,11520,12706,-5177,2976,0,5000,177000,926837,
-5028,-1212,11400,12850,-5940,2886,0,5000,177000,926840,
-5028,-1000,11156,12687,-6844,2827,0,5000,177000,926842,
-4728,-780,10796,12485,-10973,2415,2000,4000,177000,926854,
-4664,-796,10416,12502,-11773,2385,2000,4000,177000,926857,
-4568,-704,10392,12428,-12317,2297,2000,4000,177000,926859,
-3524,-492,10580,12127,-15283,1945,3000,2000,178000,926871,
-3152,-208,10840,12007,-15552,1862,3000,2000,178000,926874,
-2820,56,10712,11995,-15971,1822,4000,2000,178000,926876,
-1672,1012,11020,11281,-16982,1385,5000,0,178000,926888,
-1440,1084,10820,11195,-17214,1263,5000,0,178000,926891,
-1048,1080,10860,11012,-17092,1123,5000,0,178000,926893,
296,1276,10224,10535,-16007,347,6000,-1000,177000,926905,
188,1508,10216,10358,-15615,215,6000,-1000,177000,926908,
692,1756,10040,10248,-15361,88,7000,-1000,177000,926910,
1040,2624,9816,9531,-13202,-611,7000,-3000,177000,926922,
944,2696,10048,9396,-12957,-682,8000,-3000,177000,926925,
864,2712,10108,9252,-12512,-737,8000,-3000,177000,926927,
444,2920,10228,8182,-11200,-931,9000,-4000,177000,926939,
332,2892,10328,8085,-10928,-995,9000,-4000,177000,926942,
372,2808,10292,7876,-10806,-1041,9000,-4000,177000,926944,
292,2060,9736,7198,-9368,-1363,10000,-5000,176000,926956,
280,1976,9684,7051,-9172,-1392,10000,-5000,176000,926959,
256,1796,9392,7028,-8858,-1417,10000,-6000,176000,926961,
332,1464,8808,6515,-7531,-1734,11000,-6000,176000,926973,
400,1316,8980,6563,-7343,-1775,11000,-6000,176000,926975,
352,1392,8892,6534,-7173,-1784,11000,-6000,176000,926978,
156,1972,9672,6456,-7183,-1755,11000,-7000,176000,926990,
260,2088,9612,6358,-7077,-1760,12000,-7000,176000,926992,
288,1888,9592,6280,-7128,-1776,12000,-7000,176000,926995,
1116,1716,9124,6049,-6324,-2053,12000,-8000,175000,927007,
1316,1816,8780,6112,-5897,-2058,12000,-8000,175000,927009,
1376,1816,8676,6104,-5516,-2088,13000,-8000,175000,927012,
1352,3316,8140,6085,-4192,-2022,13000,-8000,175000,927024,
1244,3544,8080,5942,-3848,-1995,13000,-8000,175000,927026,
1244,3612,8052,5830,-3664,-1957,13000,-8000,175000,927029,
1224,3248,7564,4904,-1763,-2006,14000,-9000,174000,927041,
1192,3256,7236,4736,-1454,-2028,14000,-9000,174000,927043,
984,3168,7256,4658,-1027,-2010,14000,-9000,174000,927045,
260,3436,6496,3825,236,-1803,15000,-8000,174000,927058,
136,3644,6700,3666,287,-1737,15000,-8000,174000,927060,
-92,3700,6780,3528,221,-1667,15000,-8000,174000,927063,
-1096,4360,7784,2626,-1269,-1071,15000,-8000,174000,927075,
-1100,4232,8028,2451,-1728,-1003,15000,-8000,174000,927077,
-1024,4216,8152,2258,-2156,-984,15000,-8000,174000,927080,
-56,3752,8664,2054,-4012,-1146,16000,-9000,174000,927092,
144,3728,8884,2056,-4210,-1140,16000,-9000,174000,927095,
280,3776,8908,2144,-4437,-1210,16000,-9000,174000,927097,
1492,4276,8584,2319,-4581,-1496,16000,-9000,173000,927109,
1696,4328,8560,2316,-4367,-1491,16000,-9000,173000,927112,
1956,4432,8372,2411,-4312,-1579,16000,-9000,173000,927114,
2732,5044,7700,2381,-2873,-1837,17000,-10000,173000,927126,
2684,5080,7836,2459,-2588,-1868,17000,-10000,173000,927129,
2628,5072,7868,2375,-2203,-1879,17000,-10000,173000,927131,
2196,5844,8396,1962,-693,-1695,17000,-10000,173000,927143,
2148,5968,8660,1844,-447,-1656,17000,-10000,173000,927146,
2052,6172,9020,1741,-327,-1596,17000,-10000,173000,927148,
1120,6988,10548,880,-348,-1198,17000,-10000,172000,927160,
1200,7020,10820,647,-487,-1162,17000,-10000,172000,927163,
