Ax,Ay,Az,Gx,Gy,Gz,Roll,Pitch,Yaw,Timestamp,Target
-6444,-14484,5056,300,141,233,-69000,22000,335000,257862,
-6484,-14384,5136,314,155,262,-69000,22000,335000,257865,
-6504,-14428,4912,328,127,244,-69000,22000,335000,257877,
-6412,-14344,5212,338,111,248,-69000,22000,335000,257879,
-6452,-14468,4888,335,147,251,-69000,22000,335000,257882,
-6396,-14444,5036,347,75,223,-69000,22000,335000,257894,
-6424,-14348,5048,346,73,200,-69000,22000,335000,257896,
-6424,-14376,5104,361,67,213,-69000,22000,335000,257899,
-6368,-14412,4952,368,17,189,-69000,22000,335000,257911,
-6508,-14464,4992,358,14,184,-69000,22000,335000,257913,
-6496,-14388,5024,359,-16,176,-69000,22000,335000,257916,
-6412,-14444,5052,348,-74,188,-69000,22000,335000,257928,
-6472,-14428,4928,351,-53,176,-69000,22000,335000,257930,
-6404,-14428,4984,357,-89,165,-69000,22000,335000,257933,
-6396,-14452,5028,345,-129,176,-69000,22000,335000,257945,
-6292,-14484,5004,352,-120,175,-69000,22000,335000,257947,
1588,1772,16856,-280,-769,-210,5000,-4000,84000,264351,
1352,1828,16556,-326,-967,-1,5000,-4000,84000,264331,
1408,1852,16732,-326,-976,-46,5000,-4000,84000,264334,
1520,1844,1633,-14412,5004,360,-43,146,-69000,22000,
-6292,-14360,4804,355,-47,135,-69000,22000,335000,257988,
-6328,-14228,4832,347,-37,153,-69000,22000,335000,257990,
-6304,-14316,4836,351,-26,95,-69000,22000,335000,258003,
-6428,-14348,5012,352,-49,121,-69000,22000,335000,258005,
-6620,-14368,4852,305,-6,125,-69000,22000,335000,258007,
-6376,-14432,5076,323,-14,79,-69000,22000,335000,258020,
-6272,-14396,4784,340,-33,83,-69000,22000,335000,258022,
-6372,-14268,5012,327,-20,83,-69000,22000,335000,258025,
-6340,-14292,4976,308,-51,65,-69000,22000,335000,258037,
-6420,-14320,4900,303,-43,59,-69000,22000,335000,258039,
-6384,-14396,4928,312,-51,53,-69000,22000,335000,258042,
-6332,-14352,4780,321,-31,63,-69000,22000,335000,258054,
-6336,-14268,4948,296,-14,58,-69000,22000,335000,258057,
-6336,-14256,4908,278,-7,57,-69000,22000,335000,258059,
-6320,-14184,4588,262,-22,35,-69000,22000,335000,258071,
-6324,-14348,4788,258,-17,74,-69000,22000,335000,258074,
-6296,-14284,4900,261,-11,41,-69000,22000,335000,258076,
-6328,-14356,4824,208,-35,32,-69000,22000,335000,258088,
-6360,-14376,4868,194,-28,40,-69000,22000,335000,258091,
-6384,-14376,4908,178,-26,27,-69000,22000,335000,258093,
-6444,-14364,5032,136,-19,-16,-69000,22000,335000,258106,
-6532,-14472,4820,159,-51,-9,-69000,22000,335000,258108,
-6524,-14444,4984,152,-26,-13,-69000,22000,335000,258110,
-6604,-14452,4748,134,-95,-81,-69000,22000,335000,258123,
-6496,-14376,4920,130,-116,-52,-69000,22000,335000,258125,
-6592,-14448,4992,126,-101,-69,-69000,22000,335000,258127,
-6536,-14420,4940,107,-197,-100,-69000,22000,335000,258140,
-6636,-14484,4932,97,-202,-73,-69000,22000,335000,258142,
-6472,-14424,4996,64,-244,-79,-69000,22000,335000,258144,
-6532,-14460,4940,88,-263,-76,-69000,22000,335000,258157,
-6464,-14284,4960,74,-278,-56,-69000,22000,335000,258159,
-6516,-14340,4768,81,-288,-71,-69000,22000,335000,258162,
-6324,-14276,4904,64,-288,-32,-69000,22000,335000,258174,
-6372,-14376,5104,80,-257,-34,-69000,22000,335000,258177,
-6300,-14264,4912,61,-238,-18,-69000,22000,335000,258179,
-6432,-14288,4996,86,-222,7,-69000,22000,335000,258191,
-6424,-14280,4988,82,-207,11,-69000,22000,335000,258194,
-6264,-14244,5036,65,-214,15,-69000,22000,335000,258196,
-6452,-14388,5052,73,-161,20,-69000,22000,335000,258208,
-6380,-14280,5004,100,-167,29,-69000,22000,335000,258211,
-6464,-14372,5048,81,-150,4,-69000,22000,335000,258213,
-6348,-14332,4928,103,-154,5,-69000,22000,336000,258225,
-6460,-14272,4832,101,-123,-9,-69000,22000,336000,258228,
-6420,-14304,5192,111,-140,-17,-69000,22000,336000,258230,
-6536,-14308,5076,105,-191,-53,-69000,22000,336000,258242,
-6456,-14280,4932,107,-207,-56,-69000,22000,336000,258245,
-6392,-14340,4972,116,-206,-55,-69000,22000,336000,258247,
-6416,-14388,4924,113,-260,-67,-69000,22000,336000,258259,
-6528,-14336,4908,116,-263,-77,-69000,22000,336000,258262,
-6436,-14524,4996,111,-255,-51,-69000,22000,336000,258264,
-6308,-14432,4936,109,-236,-56,-69000,22000,336000,258277,
-6308,-14484,5008,97,-218,-56,-69000,22000,336000,258279,
-6248,-14420,4920,111,-195,-79,-69000,22000,336000,258281,
-6388,-14408,4992,129,-121,-32,-69000,22000,336000,258294,
-6256,-14452,5216,148,-107,-27,-69000,22000,336000,258296,
-6400,-14336,5184,-60,-90,-71,-69000,22000,336000,258455,
-6424,-14264,5264,-48,-92,-63,-69000,22000,336000,258457,
-6376,-14304,5332,-53,-105,-65,-69000,22000,336000,258459,
-6452,-14372,5200,-19,-156,-64,-69000,22000,336000,258472,
-6440,-14392,5112,-43,-173,-79,-69000,22000,336000,258474,
-6372,-14292,5280,-48,-165,-93,-69000,22000,336000,258477,
-6432,-14336,4964,-18,-222,-79,-69000,22000,336000,258489,
-6356,-14440,5288,-24,-248,-88,-69000,22000,336000,258491,
-6440,-14376,5144,6,-237,-69,-69000,22000,336000,258494,
-6444,-14532,5168,50,-231,-77,-69000,22000,336000,258506,
-6356,-14512,5120,41,-219,-76,-69000,22000,336000,258509,
-6356,-14520,5160,58,-227,-56,-69000,22000,336000,258511,
-6276,-14440,5216,83,-173,-67,-69000,22000,336000,258523,
-6360,-14436,5112,85,-168,-61,-69000,22000,336000,258526,
-6416,-14352,5160,82,-148,-48,-69000,22000,336000,258528,
-6340,-14368,5100,113,-101,-27,-69000,22000,336000,258540,
-6304,-14356,5128,114,-98,-37,-69000,22000,336000,258543,
-6360,-14456,5072,115,-102,-23,-69000,22000,336000,258545,
-6408,-14392,5056,112,-71,3,-69000,22000,336000,258558,
-6432,-14380,4892,107,-70,21,-69000,22000,336000,258560,
-6468,-14400,5184,102,-67,32,-69000,22000,336000,258562,
-6312,-14420,4976,111,-20,7,-69000,22000,336000,258575,
-6320,-14384,5164,141,-8,6,-69000,22000,336000,258577,
-6364,-14236,4856,135,-9,10,-69000,22000,336000,258579,
-6384,-14384,4952,126,18,17,-69000,22000,336000,258592,
-6272,-14228,4924,109,37,27,-69000,22000,336000,258594,
-6444,-14300,4892,108,23,28,-69000,22000,336000,258596,
-6240,-14248,5020,124,107,-31,-69000,22000,336000,258609,
-6284,-14244,5004,151,143,-19,-69000,22000,336000,258611,
-6284,-14256,5040,117,125,-56,-69000,22000,336000,258613,
-6308,-14268,5012,137,216,-29,-69000,22000,336000,258626,
-6372,-14248,5060,115,198,-22,-69000,22000,336000,258628,
-6332,-14244,4804,129,202,-27,-69000,22000,336000,258631,
-6324,-14188,4740,147,251,-74,-69000,22000,336000,258643,
-6336,-14228,5008,152,271,-83,-69000,22000,336000,258646,
-6224,-14184,5128,154,239,-33,-69000,22000,336000,258648,
-6324,-14240,4864,139,303,-54,-69000,22000,336000,258660,
-6304,-14228,4984,172,326,-70,-69000,22000,336000,258663,
-6388,-14268,4984,143,300,-60,-69000,22000,336000,258665,
-6308,-14336,5016,167,388,-62,-69000,22000,336000,258678,
-6392,-14288,5208,172,396,-47,-69000,22000,336000,258680,
-6328,-14336,4812,175,373,-72,-69000,22000,335000,258682,
-6476,-14244,5124,174,354,-75,-69000,22000,335000,258695,
-6448,-14348,5080,174,352,-87,-69000,22000,335000,258697,
-6528,-14232,4892,156,339,-64,-69000,22000,335000,258699,
-6440,-14412,5076,177,323,-70,-69000,22000,335000,258712,
-6436,-14256,5152,148,290,-52,-69000,22000,335000,258714,
-6452,-14400,5160,155,309,-77,-69000,22000,335000,258717,
-6420,-14344,5184,166,238,-37,-69000,22000,335000,258729,
-6456,-14368,5076,158,234,-17,-69000,22000,335000,258731,
-6440,-14344,5280,155,244,-26,-69000,22000,335000,258734,
-6388,-14264,5224,166,192,-21,-69000,22000,335000,258746,
-6480,-14268,5276,164,192,-13,-69000,22000,335000,258749,
-6456,-14296,5048,164,189,-30,-69000,22000,335000,258751,
-6312,-14388,5148,151,146,26,-69000,22000,335000,258763,
-6404,-14392,5080,167,144,9,-69000,22000,335000,258766,
-6508,-14136,5088,184,159,24,-69000,22000,335000,258768,
-6460,-14344,5184,193,118,7,-69000,22000,335000,258781,
-6364,-14352,5224,199,128,8,-69000,22000,335000,258783,
-6408,-14240,5208,170,118,30,-69000,22000,335000,258785,
-6428,-14352,5360,201,103,20,-69000,22000,335000,258798,
-6388,-14344,5152,197,71,31,-69000,22000,335000,258800,
-6340,-14256,5216,206,87,21,-69000,22000,335000,258802,
-6592,-14300,5128,206,-1,22,-69000,22000,335000,258815,
-6512,-14276,5252,195,-20,49,-69000,22000,335000,258817,
-6408,-14360,5208,215,-7,29,-69000,22000,335000,258819,
-6380,-14300,4956,212,-46,68,-69000,22000,335000,258832,
-6408,-14336,5116,198,-62,60,-69000,22000,335000,258834,
-6496,-14284,5064,209,-67,48,-69000,22000,335000,258837,
-6384,-14244,5024,194,-50,65,-69000,22000,335000,258849,
-6436,-14200,4976,185,-45,108,-69000,22000,335000,258851,
-6448,-14392,4980,201,-49,83,-69000,22000,335000,258854,
-6472,-14396,5124,198,-45,88,-69000,22000,335000,258866,
-6464,-14192,5028,183,-66,98,-69000,22000,335000,258869,
-6460,-14192,5012,182,-53,65,-69000,22000,335000,258871,
-6488,-14268,5072,161,-36,79,-69000,22000,335000,258883,
-6484,-14236,5144,162,-59,72,-69000,22000,335000,258886,
-6472,-14236,5040,155,-39,82,-69000,22000,335000,258888,
-6608,-14316,5056,162,-38,85,-69000,22000,335000,258900,
-6556,-14304,4936,116,13,94,-69000,22000,335000,258903,
-6496,-14256,4976,114,-3,93,-69000,22000,335000,258905,
-6448,-14384,5048,117,-17,86,-69000,22000,335000,258917,
-6484,-14244,4900,86,28,62,-69000,22000,335000,258920,
-6540,-14296,4884,87,7,107,-69000,22000,335000,258922,
-6312,-14348,4948,56,42,76,-69000,22000,335000,258935,
-6376,-14380,5104,70,49,69,-69000,22000,335000,258937,
-6460,-14324,4896,82,65,87,-69000,22000,335000,258939,
-6440,-14356,5036,76,92,85,-69000,22000,335000,258952,
-6268,-14320,4920,54,95,72,-69000,22000,335000,258954,
-6464,-14304,4936,62,141,59,-69000,22000,335000,258956,
-6336,-14356,4980,59,144,82,-69000,22000,335000,258969,
-6328,-14216,4892,41,162,76,-69000,22000,335000,258971,
-6332,-14328,4944,42,164,67,-69000,22000,335000,258973,
-6452,-14328,5032,28,182,65,-69000,22000,335000,258986,
-6336,-14352,4960,38,185,54,-69000,22000,335000,258988,
-6400,-14256,5032,48,186,55,-69000,22000,335000,258991,
-6296,-14276,5120,31,159,55,-69000,22000,335000,259003,
-6364,-14224,5020,33,155,48,-69000,22000,335000,259005,
-6468,-14144,5000,7,175,61,-69000,22000,335000,259008,
-6336,-14312,4848,-4,165,44,-69000,22000,335000,259020,
-6444,-14384,5040,-6,164,40,-69000,22000,335000,259022,
-6368,-14276,5040,-1,187,27,-69000,22000,335000,259025,
-6496,-14308,4984,-32,128,-11,-69000,22000,335000,259037,
-6516,-14352,5260,-22,105,20,-69000,22000,335000,259040,
-6540,-14356,5108,-24,104,-1,-69000,22000,335000,259042,
-6560,-14316,4980,-59,2,-9,-69000,22000,335000,259054,
-6496,-14344,5160,-62,0,6,-69000,22000,335000,259057,
-6484,-14368,5148,-66,-8,17,-69000,22000,335000,259059,
-6388,-14232,5056,-66,-46,28,-69000,22000,335000,259071,
-6388,-14196,4896,-62,-47,22,-69000,22000,335000,259074,
-6500,-14252,4988,-73,-77,31,-69000,22000,335000,259076,
-6424,-14124,4912,-92,-115,53,-69000,22000,335000,259089,
-6336,-14240,5016,-112,-113,46,-69000,22000,335000,259091,
-6424,-14256,5036,-106,-132,36,-69000,22000,335000,259093,
-6348,-14412,4960,-109,-21,-35,-69000,22000,335000,259106,
-6348,-14412,5056,-122,-38,-33,-69000,22000,335000,259108,
-6420,-14452,5032,-133,-50,-27,-69000,22000,335000,259110,
-6540,-14620,5260,-86,-9,-85,-69000,22000,335000,259123,
-6536,-14572,4996,-104,-51,-105,-69000,22000,335000,259125,
-6624,-14444,5188,-121,-35,-109,-69000,22000,335000,259127,
-6660,-14400,5260,-96,-145,-144,-69000,22000,335000,259140,
-6596,-14452,5176,-85,-170,-145,-69000,22000,335000,259142,
-6560,-14432,5232,-101,-155,-135,-69000,22000,335000,259145,
-6488,-14384,4964,-91,-266,-94,-69000,22000,335000,259157,
-6360,-14316,5008,-66,-226,-74,-69000,22000,335000,259160,
-6496,-14212,5004,-90,-249,-87,-69000,22000,335000,259162,
-6368,-14228,5032,-93,-282,-15,-69000,22000,335000,259174,
-6396,-14220,5024,-79,-263,-11,-69000,22000,335000,259177,
-6440,-14200,5064,-98,-268,-4,-69000,22000,335000,259179,
-6256,-14184,5108,-83,-201,-1,-69000,22000,335000,259191,
-6248,-14276,4960,-92,-204,-5,-69000,22000,335000,259194,
-6320,-14288,5092,-58,-167,26,-69000,22000,335000,259196,
-6420,-14224,5240,-72,-61,2,-69000,22000,335000,259209,
-6420,-14268,5124,-66,-58,-4,-69000,22000,335000,259211,
-6408,-14272,5000,-56,-62,-12,-69000,22000,335000,259213,
-6568,-14260,5180,-46,-51,-47,-69000,22000,335000,259226,
-6532,-14220,4992,-41,-73,-59,-69000,22000,335000,259228,
-6596,-14260,5072,-67,-92,-70,-69000,22000,335000,259230,
-6688,-14168,5068,-127,-267,-99,-69000,22000,335000,259243,
-6632,-14244,5064,-127,-297,-109,-69000,22000,335000,259245,
-6644,-14164,5268,-154,-322,-139,-69000,22000,335000,259248,
-6616,-14288,5156,-205,-517,-131,-69000,22000,335000,259260,
-6572,-14348,4992,-229,-541,-112,-69000,22000,335000,259262,
-6632,-14224,5224,-207,-570,-111,-69000,22000,335000,259265,
-6504,-14324,5200,-277,-600,-98,-69000,22000,335000,259277,
-6512,-14256,5308,-270,-612,-122,-69000,22000,335000,259280,
-6508,-14360,5096,-280,-641,-109,-69000,22000,335000,259282,
-6588,-14388,5236,-283,-624,-120,-69000,22000,335000,259295,
-6532,-14368,4936,-315,-645,-101,-69000,22000,335000,259297,
-6500,-14320,5292,-288,-616,-122,-69000,22000,335000,259299,
-6516,-14460,5128,-312,-641,-97,-69000,22000,336000,259312,
-6544,-14328,4932,-324,-631,-75,-69000,22000,336000,259314,
-6456,-14216,5156,-312,-679,-90,-69000,22000,336000,259316,
-6596,-14228,5180,-336,-686,-35,-69000,22000,336000,259329,
-6728,-14328,4944,-382,-713,17,-69000,22000,336000,259331,
-6596,-14320,5268,-397,-731,30,-69000,22000,336000,259334,
-6508,-14228,5128,-362,-678,-61,-69000,22000,336000,259346,
-6616,-14144,5236,-329,-689,-38,-69000,22000,336000,259349,
-6600,-14224,5208,-340,-704,-23,-69000,22000,336000,259351,
-6572,-14244,5236,-393,-745,-52,-69000,22000,336000,259363,
-6528,-14240,5192,-369,-757,-60,-69000,22000,336000,259366,
-6528,-14228,5176,-399,-775,-65,-69000,22000,336000,259368,
-6560,-14220,5312,-401,-868,-66,-69000,22000,336000,259381,
-6692,-14176,5172,-415,-844,-58,-69000,22000,336000,259383,
-6568,-14304,5256,-423,-873,-64,-69000,22000,336000,259385,
-6656,-14260,5160,-421,-932,-45,-69000,22000,336000,259398,
-6584,-14220,5152,-396,-925,-31,-69000,22000,336000,259400,
-6596,-14244,5072,-413,-974,-24,-69000,22000,336000,259402,
-6684,-14292,5140,-376,-1018,-11,-69000,22000,336000,259415,
-6556,-14172,5100,-373,-1029,-29,-69000,22000,336000,259417,
-6608,-14392,5000,-375,-1029,-5,-69000,22000,336000,259420,
-6676,-14372,5104,-326,-1048,29,-69000,22000,336000,259432,
-6384,-14308,4964,-314,-1026,51,-69000,22000,336000,259434,
-6332,-14444,5084,-303,-969,29,-69000,22000,336000,259437,
-6172,-14472,5032,-212,-830,17,-69000,22000,336000,259449,
-6356,-14488,5060,-202,-783,46,-69000,22000,336000,259452,
-6412,-14472,5200,-210,-774,46,-69000,22000,336000,259454,
-6356,-14512,5088,-127,-533,39,-69000,22000,337000,259466,
-6364,-14520,5080,-129,-511,33,-69000,22000,337000,259469,
-6372,-14484,4792,-93,-508,72,-69000,22000,337000,259471,
-6400,-14336,5116,-51,-374,57,-69000,22000,337000,259484,
-6340,-14452,4932,-69,-324,64,-69000,22000,337000,259486,
-6348,-14392,4976,-56,-312,64,-69000,22000,337000,259488,
-6448,-14340,4876,-18,-266,56,-69000,22000,337000,259501,
-6456,-14380,5164,-15,-266,41,-69000,22000,337000,259503,
-6588,-14380,4856,-24,-284,82,-69000,22000,337000,259506,
-6384,-14348,4928,-68,-365,87,-69000,22000,337000,259518,
-6408,-14336,4872,-93,-377,83,-69000,22000,337000,259520,
-6424,-14248,4916,-77,-378,71,-69000,22000,337000,259523,
-6476,-14268,4776,-105,-396,82,-69000,22000,337000,259535,
-6208,-14236,4748,-112,-381,60,-69000,22000,337000,259537,
-6376,-14320,4832,-115,-401,79,-69000,22000,337000,259540,
-6380,-14296,4936,-149,-419,39,-69000,22000,337000,259552,
-6488,-14420,4764,-156,-403,49,-69000,22000,337000,259554,
-6316,-14308,4840,-151,-444,32,-69000,22000,337000,259557,
-6,1728,16700,204,659,-591,5000,-4000,83000,264389,
1068,1776,16620,244,897,-678,5000,-4000,83000,264402,
1088,1768,16600,266,890,-671,5000,-4000,83000,264404,
1132,1792,16516,268,903,-690,5000,-4000,83000,264406,
940,1920,16572,291,949,-675,5000,-4000,83000,264419,
916,1804,16568,288,971,-662,5000,-4000,83000,264421,
940,1792,16672,299,970,-642,6000,-4000,83000,264423,
980,1720,16500,281,983,-654,6000,-4000,83000,264426,
656,1624,16644,279,940,-519,6000,-4000,83000,264438,
584,1704,16556,254,887,-532,6000,-4000,83000,264440,
548,1640,16556,268,873,-522,6000,-4000,83000,264443,
368,1816,16620,143,538,-347,6000,-4000,83000,264455,
388,1832,16576,133,473,-328,6000,-4000,83000,264457,
316,1692,16760,105,387,-310,6000,-4000,83000,264460,
356,1928,16616,99,327,-281,6000,-4000,83000,264462,
628,1816,16520,-27,-30,-200,6000,-4000,83000,264474,
548,1852,16532,-49,-91,-185,6000,-4000,83000,264477,
616,1828,16576,-76,-128,-201,6000,-4000,83000,264479,
784,1808,16488,-149,-268,-149,6000,-4000,83000,264491,
856,1852,16480,-177,-288,-137,6000,-4000,83000,264494,
848,1848,16484,-175,-282,-98,6000,-4000,83000,264496,
892,1780,16580,-192,-300,-128,6000,-4000,83000,264498,
924,1908,16820,-207,-259,-119,6000,-4000,83000,264511,
776,1980,16856,-210,-253,-126,6000,-4000,83000,264513,
892,1896,16564,-224,-271,-119,6000,-4000,83000,264515,
988,1868,16812,-183,-372,-165,6000,-4000,83000,264528,
988,1888,16784,-166,-375,-186,6000,-4000,83000,264530,
988,1820,16680,-154,-377,-187,6000,-4000,83000,264532,
1252,1796,16876,-58,-166,-222,6000,-4000,83000,264545,
1312,1704,16960,-24,-124,-216,6000,-4000,83000,264547,
1284,1768,16988,-1,-113,-232,6000,-4000,83000,264549,
1276,1736,16724,18,-55,-257,6000,-4000,83000,264552,
1228,1816,16700,88,150,-296,6000,-4000,83000,264564,
1344,1764,16628,113,197,-303,6000,-4000,83000,264567,
1244,1904,16604,107,229,-315,6000,-4000,83000,264569,
1004,1748,16780,160,329,-370,6000,-4000,83000,264581,
1108,1716,16620,166,335,-337,6000,-4000,83000,264584,
1152,1732,16660,171,333,-330,6000,-4000,83000,264586,
936,1800,16648,158,364,-345,6000,-4000,83000,264588,
828,1792,16668,207,368,-306,6000,-3000,83000,264601,
976,1852,16600,190,347,-331,6000,-3000,83000,264603,
768,1804,16476,183,327,-299,6000,-3000,83000,264605,
572,1828,16556,121,68,-220,6000,-3000,83000,264617,
512,1900,16572,79,-22,-216,6000,-3000,83000,264620,
420,1800,16656,64,-94,-228,6000,-3000,83000,264622,
500,1884,16688,48,-136,-190,6000,-3000,83000,264624,
424,1696,16728,-40,-461,-127,6000,-3000,83000,264637,
572,1776,16620,-51,-488,-111,6000,-3000,83000,264639,
492,1680,16508,-99,-535,-89,6000,-3000,83000,264641,
512,1692,16556,-185,-734,-11,6000,-4000,83000,264654,
456,1752,16452,-167,-796,25,6000,-4000,83000,264656,
504,1684,16496,-193,-824,39,6000,-4000,83000,264658,
536,1720,16556,-221,-853,46,6000,-4000,83000,264661,
736,1912,16492,-283,-962,74,6000,-4000,83000,264673,
824,1908,16624,-292,-933,86,6000,-4000,83000,264675,
928,1828,16508,-298,-938,79,6000,-4000,83000,264678,
1120,1792,16852,-233,-652,56,6000,-4000,83000,264690,
992,1824,16604,-222,-599,46,6000,-4000,83000,264693,
1068,1788,16580,-207,-523,65,5000,-4000,83000,264695,
1100,1836,16808,-192,-436,54,5000,-4000,83000,264697,
904,2000,16692,-84,9,33,5000,-4000,83000,264710,
924,2012,16872,-56,65,10,5000,-4000,83000,264712,
880,2052,16672,-63,102,11,5000,-4000,83000,264714,
488,2280,16780,24,302,41,6000,-4000,83000,264727,
576,2196,17020,47,307,55,6000,-4000,83000,264729,
548,2228,16956,39,350,47,6000,-4000,83000,264731,
540,2240,17036,42,337,74,6000,-4000,83000,264733,
320,2360,16768,55,270,138,6000,-4000,83000,264746,
176,2488,16964,35,269,156,6000,-4000,83000,264748,
160,2456,16948,36,261,152,6000,-4000,83000,264750,
160,2452,16976,25,212,196,6000,-4000,83000,264753,
-192,2528,16968,-38,18,288,6000,-4000,83000,264765,
-248,2612,17108,-64,-68,298,6000,-4000,83000,264767,
-336,2596,16896,-74,-118,324,6000,-4000,83000,264769,
-568,2548,17252,-195,-467,473,6000,-4000,83000,264782,
-632,2484,17264,-220,-512,499,6000,-4000,83000,264784,
-776,2504,17272,-225,-590,547,6000,-4000,83000,264787,
-912,2364,17428,-226,-633,562,6000,-4000,83000,264789,
-924,2492,17640,-206,-831,752,6000,-4000,83000,264802,
-900,2604,17520,-194,-844,789,6000,-4000,83000,264804,
-964,2532,17740,-190,-862,834,6000,-4000,83000,264806,
-1188,2652,17616,-66,-732,1113,6000,-4000,83000,264819,
-1268,2624,17536,-68,-689,1179,6000,-4000,83000,264821,
-1284,2656,17640,-31,-647,1214,6000,-4000,83000,264823,
-1648,2720,17564,87,-494,1533,6000,-4000,83000,264836,
-1812,2872,17488,88,-518,1615,6000,-4000,83000,264838,
-1924,2800,17660,130,-462,1681,6000,-4000,83000,264840,
-2440,2792,17524,226,-515,2017,6000,-4000,84000,264853,
-2420,2884,17388,248,-522,2065,6000,-4000,84000,264855,
-2460,2872,17400,269,-503,2136,6000,-4000,84000,264857,
-2660,3100,17392,414,-364,2528,6000,-4000,84000,264870,
-2844,3016,17372,429,-296,2589,6000,-4000,84000,264872,
-2740,2976,17352,478,-275,2665,6000,-4000,84000,264874,
-3176,3172,17416,606,-35,3100,6000,-4000,84000,264887,
-3316,3188,17232,646,-15,3202,6000,-4000,84000,264889,
-3512,3104,17568,673,3,3311,6000,-4000,84000,264891,
-3392,3212,17408,701,36,3416,6000,-4000,85000,264894,
-3892,3056,17452,810,103,3920,6000,-4000,85000,264906,
-3912,3136,17332,814,67,4030,6000,-4000,85000,264908,
-3944,3056,17296,838,84,4134,6000,-4000,85000,264911,
-4320,3096,17444,948,-72,4770,6000,-3000,85000,264923,
-4328,2836,17356,925,-105,4902,6000,-3000,86000,264925,
-4252,2884,17536,956,-160,5041,6000,-3000,86000,264927,
-4424,2984,17856,1040,-560,5734,6000,-3000,86000,264940,
-4496,2928,17948,1083,-642,5863,6000,-3000,86000,264942,
-4332,2908,17876,1104,-721,6005,6000,-3000,86000,264945,
-4168,2784,17632,1262,-956,6790,6000,-4000,87000,264957,
-4056,2740,17620,1297,-972,6947,6000,-4000,87000,264959,
-4024,2720,17660,1321,-974,7082,6000,-4000,87000,264962,
-3692,2840,17504,1452,-1079,7788,6000,-4000,88000,264974,
-3684,2932,17316,1475,-1088,7933,6000,-4000,88000,264976,
-3704,2852,17256,1491,-1072,8064,6000,-4000,88000,264979,
-3472,2924,17152,1503,-1045,8600,6000,-4000,89000,264991,
-3480,2832,17212,1492,-1055,8675,6000,-4000,89000,264993,
-3492,2832,17048,1486,-1045,8762,6000,-4000,89000,264996,
-3424,2456,17268,1458,-1241,9180,7000,-4000,90000,265008,
-3352,2388,17476,1445,-1253,9267,7000,-4000,90000,265010,
-3268,2396,17520,1444,-1295,9319,7000,-4000,91000,265013,
-3172,2220,17440,1471,-1434,9743,7000,-4000,91000,265025,
-2984,2224,17600,1449,-1448,9853,7000,-4000,92000,265027,
-3148,2256,17588,1451,-1467,9900,7000,-4000,92000,265030,
-3012,1896,17736,1467,-1649,10313,7000,-4000,93000,265042,
-3076,1892,17620,1454,-1720,10378,7000,-4000,93000,265045,
-3108,1960,17684,1456,-1779,10473,7000,-4000,93000,265047,
-3168,1592,17612,1414,-2253,10852,7000,-5000,94000,265059,
-3372,1596,17564,1453,-2339,10930,7000,-5000,94000,265062,
-3468,1424,17652,1464,-2426,10997,7000,-5000,94000,265064,
-3440,940,17232,1527,-2779,11296,7000,-5000,96000,265076,
-3284,896,17252,1569,-2763,11368,7000,-5000,96000,265079,
-3316,704,17172,1590,-2783,11421,7000,-5000,96000,265081,
-2988,384,16876,1882,-2633,11835,7000,-6000,97000,265094,
-3112,244,16788,1951,-2528,11889,7000,-6000,97000,265096,
-2996,252,16832,2013,-2440,11999,7000,-6000,97000,265098,
-2792,124,16756,2278,-1789,12753,7000,-6000,99000,265111,
-2724,160,16716,2295,-1625,12884,7000,-6000,99000,265113,
-2740,116,16844,2345,-1529,13048,7000,-6000,99000,265115,
-3004,-224,16696,2550,-1182,14012,7000,-6000,100000,265128,
-3156,-304,16616,2564,-1203,14180,7000,-6000,101000,265130,
-3080,-444,16696,2599,-1210,14359,7000,-6000,101000,265132,
-2604,-696,16264,2705,-1337,15329,7000,-6000,102000,265145,
-2504,-632,16064,2701,-1393,15518,7000,-6000,103000,265147,
-2532,-568,16076,2674,-1473,15715,7000,-6000,103000,265149,
-2680,-932,16292,2575,-2197,16728,7000,-7000,104000,265162,
-2596,-1116,16304,2558,-2381,16881,7000,-7000,105000,265164,
-2572,-1288,16228,2567,-2566,17105,7000,-7000,105000,265166,
-1572,-2024,16100,2682,-3340,18014,7000,-7000,107000,265179,
-1476,-1972,16104,2727,-3438,18194,7000,-7000,107000,265181,
-1148,-2176,16044,2780,-3511,18352,7000,-8000,107000,265184,
128,-2636,15648,3119,-3445,19241,7000,-8000,109000,265196,
168,-2676,15568,3179,-3367,19411,7000,-8000,110000,265198,
412,-2852,15428,3241,-3275,19573,7000,-8000,110000,265201,
1280,-2808,14876,3427,-2658,20206,7000,-9000,112000,265213,
1400,-3020,14876,3445,-2512,20291,7000,-9000,112000,265215,
1372,-2808,14664,3407,-2435,20358,7000,-9000,113000,265218,
1504,-2576,14180,3194,-2228,20768,7000,-9000,115000,265230,
1404,-2520,14428,3120,-2277,20862,7000,-9000,115000,265233,
1560,-2484,14392,3018,-2386,20913,6000,-10000,115000,265235,
1240,-2464,15124,2497,-3585,21314,6000,-10000,117000,265247,
1104,-2512,15132,2439,-3898,21383,6000,-10000,118000,265250,
1280,-2684,15244,2372,-4228,21448,6000,-10000,118000,265252,
2224,-3680,16356,2370,-5803,21847,6000,-11000,120000,265264,
2404,-3792,16120,2437,-6007,21914,6000,-11000,120000,265267,
2660,-3932,16216,2529,-6169,22013,6000,-11000,121000,265269,
5060,-4552,15884,3287,-6206,22207,6000,-12000,123000,265282,
5416,-4560,15736,3418,-6042,22188,5000,-12000,123000,265284,
5876,-4476,15564,3574,-5825,22171,5000,-13000,124000,265286,
7292,-4024,14876,4089,-4191,22070,5000,-13000,126000,265299,
7384,-3840,14860,4174,-3856,21999,5000,-13000,126000,265301,
7640,-3796,14736,4226,-3541,21976,5000,-13000,127000,265303,
7636,-3824,14784,4545,-2011,21738,5000,-14000,129000,265316,
7776,-3824,14744,4591,-1784,21663,5000,-14000,129000,265318,
8316,-3972,15012,4857,-661,21172,5000,-14000,131000,265331,
8344,-3852,14968,4888,-466,21089,5000,-14000,132000,265333,
8560,-3792,15056,4898,-321,20968,5000,-14000,132000,265335,
9224,-3348,15428,4930,490,20245,4000,-15000,134000,265348,
9148,-3180,15176,4953,570,20057,4000,-15000,135000,265350,
9252,-3192,15256,4923,670,19945,4000,-15000,135000,265352,
9088,-3060,15616,4795,915,19254,4000,-15000,137000,265365,
8988,-3184,15704,4788,882,19145,4000,-15000,137000,265367,
8952,-3160,15744,4767,897,19054,4000,-15000,138000,265369,
9112,-3544,15488,4618,873,18219,4000,-15000,139000,265382,
9148,-3528,15564,4606,848,18056,4000,-15000,140000,265384,
9140,-3428,15688,4586,875,17928,4000,-15000,140000,265386,
9320,-3400,15412,4355,759,17076,4000,-15000,142000,265399,
9564,-3460,15380,4311,747,16896,4000,-15000,142000,265401,
9648,-3496,15252,4299,707,16650,4000,-15000,142000,265403,
9796,-3088,15172,4041,554,15460,4000,-16000,144000,265416,
9996,-2996,15080,4017,518,15289,4000,-16000,144000,265418,
9896,-3100,15184,3952,496,15052,4000,-16000,144000,265420,
10816,-2948,14672,3654,484,13801,4000,-16000,146000,265433,
11028,-3032,14372,3607,528,13529,4000,-16000,146000,265435,
11196,-2868,14424,3553,556,13245,4000,-16000,146000,265438,
11312,-2292,14164,3149,1001,12004,3000,-16000,148000,265450,
11536,-2264,14368,3051,1076,11781,3000,-16000,148000,265452,
11460,-2148,14336,2948,1178,11564,3000,-16000,148000,265455,
10880,-2108,14596,2459,1344,10291,3000,-16000,149000,265467,
10976,-2036,14724,2327,1321,10087,3000,-16000,149000,265470,
10852,-2012,14728,2244,1227,9901,3000,-16000,149000,265472,
11044,-2244,15048,1780,810,8549,3000,-16000,150000,265484,
10976,-2360,14872,1741,793,8287,3000,-16000,151000,265487,
10896,-2424,14844,1688,675,8062,3000,-16000,151000,265489,
11112,-2784,14716,1423,385,6805,3000,-16000,151000,265502,
11116,-2796,14688,1408,360,6578,3000,-16000,151000,265504,
11144,-2904,14604,1377,372,6350,3000,-16000,152000,265506,
11160,-2940,14348,1117,477,5177,3000,-17000,152000,265519,
11284,-3020,14276,1059,449,4948,3000,-17000,152000,265521,
11260,-2988,14244,994,462,4769,3000,-17000,152000,265523,
11252,-2752,14192,665,342,3535,3000,-17000,153000,265536,
11348,-2808,14128,583,278,3310,3000,-17000,153000,265538,
11308,-2732,14052,532,242,3117,3000,-17000,153000,265540,
11704,-2764,14052,158,132,1896,2000,-17000,153000,265553,
11716,-2664,13980,112,141,1699,2000,-17000,153000,265555,
11788,-2676,14072,27,155,1477,2000,-17000,153000,265557,
11716,-2576,13932,-377,367,302,2000,-17000,153000,265570,
11728,-2540,14020,-444,403,127,2000,-17000,153000,265572,
11684,-2632,14228,-515,437,-105,2000,-17000,153000,265575,
11440,-2960,14304,-900,503,-1271,2000,-17000,153000,265587,
11352,-2956,14096,-952,489,-1474,2000,-17000,153000,265590,
11300,-3088,14292,-993,475,-1703,2000,-17000,153000,265592,
11272,-2952,14488,-1314,505,-2862,2000,-17000,153000,265604,
11252,-3004,14424,-1336,538,-3075,2000,-17000,153000,265607,
11280,-2992,14300,-1408,497,-3280,2000,-17000,153000,265609,
11128,-2832,14660,-1662,590,-4436,2000,-17000,152000,265621,
11136,-2876,14544,-1714,583,-4631,2000,-17000,152000,265624,
11144,-2800,14488,-1782,597,-4846,2000,-17000,152000,265626,
10816,-2724,14752,-2077,594,-5941,2000,-17000,151000,265639,
10824,-2772,14744,-2164,575,-6157,2000,-17000,151000,265641,
10876,-2732,14752,-2203,541,-6342,2000,-17000,151000,265643,
10596,-2680,14796,-2585,380,-7420,2000,-17000,151000,265656,
10596,-2764,15128,-2655,349,-7631,2000,-17000,150000,265658,
10484,-3024,14948,-2702,315,-7837,2000,-17000,150000,265660,
10208,-3136,15272,-3032,7,-8966,1000,-17000,149000,265673,
10292,-3228,15224,-3080,-33,-9177,1000,-17000,149000,265675,
10196,-3212,15280,-3148,-86,-9392,1000,-17000,149000,265678,
10012,-3148,15100,-3405,-270,-10602,1000,-18000,148000,265690,
9840,-3200,15364,-3449,-262,-10817,1000,-18000,148000,265692,
9816,-3132,15324,-3486,-291,-10974,1000,-18000,148000,265695,
9760,-3164,15260,-3704,-145,-11936,1000,-18000,146000,265707,
9576,-3288,15188,-3730,-92,-12165,1000,-18000,146000,265709,
9332,-3156,15260,-3899,221,-13064,1000,-18000,145000,265722,
9388,-3216,15368,-3937,244,-13234,1000,-18000,145000,265724,
9244,-3144,15132,-3980,300,-13405,1000,-18000,144000,265727,
9056,-2944,15480,-4163,541,-14314,1000,-18000,143000,265739,
8912,-2864,15348,-4214,576,-14479,1000,-18000,143000,265741,
8760,-2920,15428,-4260,601,-14597,1000,-18000,142000,265744,
8280,-3072,15536,-4474,594,-15430,1000,-18000,141000,265756,
8344,-3012,15656,-4514,591,-15593,1000,-18000,141000,265758,
8180,-3044,15740,-4577,579,-15729,1000,-18000,140000,265761,
7464,-3360,15800,-4700,501,-16456,1000,-18000,139000,265773,
7484,-3288,15924,-4719,457,-16584,1000,-18000,138000,265775,
7380,-3396,16072,-4737,443,-16721,1000,-18000,138000,265778,
7084,-3404,16112,-4782,435,-17420,1000,-18000,136000,265790,
7024,-3428,16076,-4781,457,-17533,1000,-17000,136000,265793,
6972,-3500,16260,-4783,449,-17648,1000,-17000,136000,265795,
6668,-3508,16084,-4816,608,-18161,1000,-17000,134000,265807,
6568,-3532,16076,-4788,624,-18269,1000,-17000,134000,265810,
6516,-3448,16048,-4798,685,-18350,1000,-17000,133000,265812,
6088,-3392,16168,-4750,925,-18748,1000,-17000,131000,265825,
6036,-3456,16128,-4713,959,-18795,1000,-17000,131000,265827,
5564,-3408,16044,-4673,1295,-19150,1000,-17000,129000,265839,
5492,-3424,16028,-4638,1363,-19186,1000,-17000,129000,265842,
5544,-3408,16192,-4633,1424,-19232,1000,-17000,129000,265844,
4976,-3356,16136,-4508,1748,-19451,1000,-17000,127000,265856,
4784,-3496,16128,-4498,1798,-19467,1000,-17000,126000,265859,
4880,-3380,16052,-4456,1865,-19491,1000,-17000,126000,265861,
4756,-3172,16116,-4295,2390,-19698,1000,-16000,124000,265874,
4640,-3152,16240,-4266,2489,-19696,1000,-16000,124000,265876,
4524,-3032,16132,-4226,2604,-19667,1000,-16000,123000,265878,
4072,-3152,16256,-4096,3219,-19579,2000,-16000,121000,265891,
4088,-3112,16052,-4064,3303,-19577,2000,-16000,121000,265893,
3960,-3032,16168,-4031,3410,-19541,2000,-16000,121000,265895,
3380,-3000,16248,-3878,3829,-19337,2000,-15000,119000,265908,
3188,-2864,16280,-3840,3881,-19302,2000,-15000,118000,265910,
2524,-2704,16436,-3761,3939,-19103,2000,-15000,117000,265923,
2408,-2672,16496,-3787,3951,-19070,2000,-15000,116000,265925,
2216,-2524,16420,-3759,3890,-19003,2000,-15000,116000,265927,
1600,-2532,16716,-3668,3566,-18727,2000,-14000,114000,265940,
1552,-2520,16816,-3655,3468,-18650,2000,-14000,114000,265942,
1472,-2500,16692,-3639,3401,-18580,2000,-14000,113000,265944,
1116,-2412,16968,-3489,3037,-18190,2000,-13000,112000,265957,
1192,-2372,17008,-3460,2965,-18131,2000,-13000,111000,265959,
1004,-2332,17044,-3412,2933,-18054,2000,-13000,111000,265961,
700,-2280,17076,-3208,2664,-17567,2000,-13000,109000,265974,
748,-2108,16980,-3186,2629,-17473,2000,-13000,109000,265976,
116,-1876,17172,-3061,2422,-16953,2000,-12000,107000,265989,
16,-1820,17224,-3029,2352,-16877,2000,-12000,107000,265991,
-20,-1888,17220,-2974,2308,-16806,2000,-12000,107000,265993,
-572,-1784,17488,-2764,2043,-16329,2000,-12000,105000,266006,
-664,-1768,17480,-2702,2013,-16221,2000,-12000,105000,266008,
-716,-1776,17716,-2646,1958,-16102,2000,-12000,105000,266010,
-420,-1384,17624,-2292,2018,-15507,2000,-11000,103000,266023,
-564,-1440,17616,-2236,2090,-15374,2000,-11000,103000,266025,
-588,-1284,17532,-2165,2153,-15251,2000,-11000,103000,266027,
-920,-940,17392,-1832,2491,-14517,2000,-11000,101000,266040,
-996,-924,17504,-1762,2527,-14379,2000,-11000,101000,266042,
-1072,-860,17520,-1692,2583,-14250,2000,-11000,101000,266045,
-1664,-820,17472,-1456,2862,-13536,2000,-10000,99000,266057,
-1756,-716,17496,-1416,2899,-13418,2000,-10000,99000,266060,
-1908,-808,17628,-1392,2935,-13301,2000,-10000,99000,266062,
-2956,-880,17808,-1119,2950,-12846,2000,-10000,98000,266074,
-3080,-844,17860,-1059,2971,-12813,2000,-10000,97000,266077,
-3236,-648,18136,-598,3068,-12413,2000,-9000,96000,266089,
-3368,-584,18124,-489,3115,-12296,3000,-9000,96000,266091,
-3196,-408,18104,-410,3213,-12082,3000,-9000,96000,266094,
-3240,64,18028,157,4022,-11419,3000,-8000,95000,266106,
-3132,348,17976,224,4209,-11262,3000,-8000,95000,266108,
-3208,532,17864,301,4345,-11080,3000,-8000,94000,266111,
-3740,1056,17828,613,4765,-10140,3000,-8000,93000,266123,
-3872,1040,17804,618,4743,-10002,3000,-7000,93000,266126,
-3868,1088,17720,661,4710,-9785,3000,-7000,93000,266128,
-4444,1240,17632,715,4012,-8888,3000,-7000,92000,266140,
-4368,1324,17616,727,3785,-8754,3000,-7000,92000,266143,
-4540,1296,17668,740,3581,-8559,3000,-7000,92000,266145,
-4136,1576,17224,779,2507,-7623,3000,-6000,91000,266157,
-4088,1592,17012,772,2366,-7471,3000,-6000,91000,266160,
-3872,1624,17168,771,2263,-7314,4000,-6000,91000,266162,
-3708,1880,16964,666,1758,-6518,4000,-6000,90000,266174,
-3748,1900,16920,650,1664,-6360,4000,-6000,90000,266177,
-3792,2028,16996,656,1561,-6219,4000,-6000,90000,266179,
-3412,1964,17272,537,1192,-5531,4000,-5000,90000,266192,
-3488,2128,17176,523,1143,-5420,4000,-5000,89000,266194,
-3448,2084,16968,527,1116,-5297,4000,-5000,89000,266196,
-3164,2052,17092,609,933,-4672,4000,-5000,89000,266209,
-2972,2116,17276,628,923,-4563,4000,-5000,89000,266211,
-2940,2176,17136,644,904,-4475,4000,-5000,89000,266213,
-2824,2196,16728,723,900,-3907,4000,-5000,88000,266226,
-2636,2272,16508,737,894,-3827,4000,-5000,88000,266228,
-2640,2252,16524,728,848,-3752,4000,-5000,88000,266230,
-2460,2420,16424,648,735,-3441,4000,-4000,88000,266243,
-2396,2480,16484,651,695,-3372,4000,-4000,88000,266245,
-2340,2400,16460,627,658,-3326,4000,-4000,88000,266247,
-1876,2436,16444,567,522,-3030,4000,-4000,88000,266259,
-1800,2372,16496,569,523,-3004,4000,-4000,88000,266262,
-1720,2244,16372,582,538,-2956,4000,-4000,87000,266264,
-1184,2336,16472,665,896,-2633,5000,-4000,87000,266277,
-1184,2376,16564,668,970,-2610,5000,-4000,87000,266279,
-1140,2272,16356,689,1064,-2551,5000,-4000,87000,266281,
-1180,2316,16204,705,1374,-2225,5000,-4000,87000,266294,
-1224,2344,16320,670,1384,-2178,5000,-4000,87000,266296,
-1208,2296,16160,667,1373,-2134,5000,-4000,87000,266298,
-1428,2228,16148,543,1023,-1826,5000,-4000,87000,266311,
-1328,2256,16172,485,892,-1787,5000,-4000,87000,266313,
-1324,2236,16152,477,797,-1738,5000,-3000,87000,266315,
-896,2328,16296,329,379,-1494,5000,-3000,87000,266328,
-684,2164,16224,324,313,-1435,5000,-3000,86000,266330,
-720,2292,16420,317,270,-1390,5000,-3000,86000,266332,
-328,2180,16408,233,134,-1168,5000,-3000,86000,266345,
-284,2092,16416,207,132,-1127,5000,-3000,86000,266347,
-216,2048,16360,202,128,-1123,5000,-3000,86000,266349,
-224,2040,16400,184,157,-986,5000,-3000,86000,266362,
-268,1960,16468,182,158,-963,5000,-3000,86000,266364,
-132,2052,16468,170,148,-924,5000,-3000,86000,266366,
-208,2064,16496,159,142,-907,5000,-3000,86000,266369,
112,2000,16540,167,142,-823,5000,-3000,86000,266381,
224,1980,16568,172,162,-801,5000,-3000,86000,266383,
188,1980,16640,158,200,-799,5000,-3000,86000,266386,
412,2156,16676,196,404,-801,5000,-3000,86000,266398,
484,2008,16660,175,421,-789,5000,-3000,86000,266400,
504,2044,16656,195,463,-810,5000,-3000,86000,266403,
508,2004,16628,212,470,-793,5000,-3000,86000,266405,
360,2012,16584,200,435,-739,5000,-3000,86000,266417,
292,1980,16868,235,424,-728,5000,-3000,86000,266420,
384,2060,16940,205,411,-707,5000,-3000,86000,266422,
468,2012,16832,218,250,-650,5000,-3000,86000,266435,
480,2016,16892,251,233,-626,5000,-3000,86000,266437,
556,1928,16728,228,248,-647,5000,-3000,86000,266439,
604,1932,16812,253,245,-623,5000,-3000,86000,266442,
608,1836,16712,205,225,-545,5000,-3000,86000,266454,
540,1804,16752,219,169,-542,5000,-3000,86000,266456,
568,2004,16776,210,181,-494,5000,-3000,86000,266458,
220,1760,16840,194,-39,-421,5000,-3000,86000,266471,
280,1612,17164,174,-69,-416,5000,-3000,86000,266473,
272,1600,16776,198,-118,-422,5000,-3000,86000,266476,
304,1688,16900,196,-162,-414,5000,-3000,86000,266478,
584,1860,16832,227,-218,-324,5000,-3000,86000,266491,
564,1884,16896,225,-219,-326,5000,-3000,86000,266493,
700,1908,16908,217,-189,-318,5000,-3000,86000,266495,
852,1864,16808,252,-89,-302,5000,-3000,86000,266508,
776,1852,16916,264,-74,-321,5000,-3000,86000,266510,
800,1956,16900,248,-48,-303,5000,-3000,86000,266512,
828,1920,16828,265,-10,-304,5000,-3000,86000,266514,
800,2076,16944,281,81,-264,5000,-3000,86000,266527,
728,1896,17152,288,112,-266,5000,-3000,86000,266529,
704,1900,16964,320,132,-282,5000,-3000,86000,266531,
556,1648,16836,393,171,-268,5000,-3000,85000,266544,
572,1688,16712,432,168,-258,5000,-3000,85000,266546,
588,1604,16920,419,191,-257,5000,-3000,85000,266548,
660,1700,16860,444,203,-261,5000,-3000,85000,266550,
700,1784,16572,483,298,-247,6000,-3000,85000,266563,
668,1896,16596,505,341,-251,6000,-3000,85000,266565,
652,1848,16528,490,366,-243,6000,-3000,85000,266568,
788,1708,16640,523,582,-188,6000,-3000,85000,266580,
888,1764,16588,544,608,-195,6000,-3000,85000,266582,
872,1924,16672,532,673,-201,6000,-3000,85000,266584,
912,1868,16588,533,717,-184,6000,-3000,85000,266587,
724,1980,16528,500,892,-122,6000,-3000,85000,266599,
736,1892,16768,486,914,-110,6000,-3000,85000,266601,
640,1836,16408,508,917,-120,6000,-3000,85000,266604,
380,1760,16636,459,829,-62,6000,-2000,85000,266616,
516,1684,16552,450,789,-27,6000,-2000,85000,266618,
372,1796,16496,449,769,-32,6000,-2000,85000,266621,
420,1604,16636,445,721,-29,6000,-2000,85000,266623,
504,1576,16556,391,633,67,6000,-2000,85000,266636,
608,1612,16512,412,630,64,6000,-2000,85000,266638,
592,1664,16724,413,646,85,6000,-2000,85000,266640,
392,1596,16652,405,660,100,6000,-2000,85000,266642,
464,1676,16576,425,644,218,6000,-2000,85000,266655,
456,1628,16632,425,618,273,6000,-2000,85000,266657,
460,1708,16476,400,621,253,6000,-2000,85000,266659,
400,1616,16324,352,487,334,6000,-2000,86000,266672,
276,1612,16388,348,461,371,6000,-2000,86000,266674,
196,1532,16388,331,415,355,6000,-2000,86000,266676,
380,1608,16392,354,367,399,6000,-2000,86000,266679,
460,1568,16232,306,222,439,6000,-2000,86000,266691,
384,1564,16232,282,217,458,6000,-2000,86000,266694,
476,1676,16424,264,231,449,6000,-2000,86000,266696,
760,1668,16460,224,305,493,6000,-2000,86000,266708,
768,1684,16524,207,294,507,6000,-2000,86000,266711,
644,1608,16448,204,306,501,6000,-2000,86000,266713,
808,1684,16348,209,316,513,6000,-2000,86000,266715,
716,1588,16536,208,389,567,6000,-2000,86000,266728,
668,1716,16368,215,412,551,6000,-2000,86000,266730,
792,1656,16608,232,394,567,6000,-2000,86000,266732,
512,1612,16572,180,350,537,6000,-2000,86000,266745,
576,1636,16644,146,336,559,6000,-2000,86000,266747,
496,1648,16388,169,313,561,6000,-2000,86000,266749,
480,1512,16588,143,273,544,6000,-2000,86000,266752,
452,1548,16676,96,101,498,6000,-2000,86000,266764,
436,1584,16820,105,66,518,6000,-2000,86000,266766,
504,1608,16780,86,57,495,6000,-2000,86000,266769,
616,1612,16832,92,39,508,6000,-2000,86000,266771,
836,1476,16688,110,163,501,6000,-2000,86000,266784,
916,1536,16720,141,215,497,6000,-2000,86000,266786,
972,1628,16724,150,247,503,6000,-2000,86000,266788,
920,1768,16824,211,463,491,6000,-2000,86000,266801,
984,1684,16636,221,499,521,6000,-2000,86000,266803,
1080,1816,16712,198,517,515,6000,-2000,86000,266805,
956,1784,16868,204,519,469,6000,-2000,86000,266807,
744,1704,16748,209,492,448,6000,-2000,86000,266820,
736,1700,16680,236,466,463,6000,-2000,86000,266822,
848,1756,16760,228,460,450,6000,-2000,86000,266824,
868,1668,16600,229,420,439,6000,-2000,86000,266837,
912,1700,16772,231,405,412,6000,-2000,86000,266839,
784,1684,16688,238,415,414,6000,-2000,86000,266841,
888,1704,16876,227,392,432,6000,-2000,86000,266844,
748,1776,16628,224,285,400,6000,-2000,86000,266856,
932,1716,16644,208,266,414,6000,-2000,86000,266858,
828,1832,16812,224,267,398,6000,-2000,86000,266861,
932,1656,16768,198,247,384,6000,-2000,86000,266873,
1056,1656,17036,187,236,379,6000,-2000,86000,266875,
1040,1704,16804,163,238,361,6000,-2000,86000,266878,
1020,1748,16704,185,257,344,6000,-2000,86000,266880,
1108,1856,16680,124,318,248,6000,-2000,86000,266892,
1076,1860,16620,132,323,219,6000,-2000,86000,266895,
1020,2012,16708,115,328,202,6000,-2000,86000,266897,
1080,1832,16820,133,363,71,6000,-2000,86000,266909,
1096,1704,16856,130,408,47,6000,-2000,86000,266912,
1096,1780,16856,145,419,24,6000,-2000,86000,266914,
1084,1740,16876,162,454,22,6000,-2000,86000,266916,
1200,1756,16712,234,608,-31,6000,-2000,86000,266929,
1124,1752,16720,223,643,-8,6000,-2000,86000,266931,
1024,1728,16708,233,676,-9,6000,-2000,86000,266933,
800,1988,16644,191,634,-45,6000,-2000,86000,266946,
788,1860,16468,174,617,-45,6000,-2000,86000,266948,
644,1812,16776,147,527,-46,6000,-2000,86000,266950,
716,1808,16660,137,531,-39,6000,-2000,86000,266952,
452,1564,16752,91,240,-107,6000,-1000,86000,266965,
428,1716,16720,73,165,-143,6000,-1000,86000,266967,
456,1684,16756,77,152,-113,6000,-1000,86000,266969,
572,1516,16768,105,48,-94,6000,-1000,86000,266982,
428,1544,16940,123,68,-74,6000,-1000,86000,266984,
452,1592,16836,125,82,-60,6000,-1000,86000,266986,
428,1592,16884,146,61,-49,6000,-1000,86000,266989,
484,1596,16748,191,61,63,6000,-1000,86000,267001,
308,1568,16556,183,53,86,6000,-1000,86000,267004,
368,1536,16904,170,13,96,6000,-1000,86000,267006,
372,1540,16604,184,-32,127,6000,-1000,86000,267008,
736,1620,16272,150,-214,160,6000,-1000,86000,267021,
712,1624,16536,143,-257,173,6000,-1000,86000,267023,
