Ax,Ay,Az,Gx,Gy,Gz,Roll,Pitch,Yaw,Timestamp,Target
528,1808,16448,-47,401,27,7000,0,88000,268812,
276,1776,16380,-131,362,6,7000,0,88000,268824,
364,1764,16752,-126,344,14,7000,0,88000,268827,
312,1768,16660,-166,324,-16,7000,0,88000,268829,
164,1648,16664,-176,278,-14,7000,0,88000,268831,
328,1724,16756,-214,164,-62,7000,0,88000,268844,
304,1604,16912,-230,156,-73,7000,0,88000,268846,
412,1552,16672,-227,135,-65,7000,0,88000,268848,
352,1612,16840,-242,128,-88,7000,0,88000,268850,
380,1648,16804,-241,124,-138,7000,0,88000,268863,
328,1624,16708,-230,120,-141,7000,0,88000,268865,
428,1648,16760,-213,87,-143,7000,0,88000,268867,
484,1584,16620,-245,115,-149,7000,0,88000,268869,
392,1620,16688,-221,168,-180,6000,0,88000,268882,
444,1572,16772,-221,147,-173,6000,0,88000,268884,
388,1620,16644,-212,186,-186,6000,0,88000,268886,
416,1624,16652,-213,163,-187,6000,0,88000,268888,
272,1616,16888,-180,195,-190,6000,0,88000,268901,
336,1608,16704,-181,168,-191,6000,0,88000,268903,
172,1624,16948,-101,119,-146,6000,0,88000,268937,
68,1612,16600,-91,124,-142,6000,0,88000,268940,
196,1572,16792,-62,125,-144,6000,0,88000,268942,
240,1628,16796,-82,104,-111,6000,0,88000,268945,
160,1544,17092,-66,19,-42,6000,0,88000,268957,
68,1584,17024,-54,-46,-30,6000,0,88000,268959,
24,1688,16888,-43,-69,-22,6000,0,88000,268961,
276,1664,17036,-61,-105,12,6000,0,88000,268964,
180,1712,17276,-56,-378,89,6000,0,88000,268976,
120,1664,17312,-58,-437,93,6000,0,88000,268978,
108,1688,17308,-68,-497,101,6000,0,88000,268981,
188,1692,17236,-74,-571,139,6000,0,88000,268983,
112,1576,17276,-64,-922,157,6000,0,88000,268995,
220,1628,17340,-35,-973,143,6000,0,88000,268997,
292,1488,17236,-41,-985,157,6000,0,88000,269000,
328,1524,17436,-13,-999,158,6000,0,88000,269002,
620,1680,17276,42,-930,61,6000,0,88000,269014,
632,1656,17080,57,-903,46,6000,0,88000,269017,
660,1708,17208,58,-868,37,6000,0,88000,269019,
672,1780,17200,66,-835,-11,6000,0,88000,269021,
784,1616,17196,123,-615,-162,6000,0,88000,269033,
736,1676,17172,131,-555,-150,6000,0,88000,269036,
716,1612,17216,150,-490,-187,6000,0,88000,269038,
752,1508,17288,172,-479,-224,6000,0,88000,269040,
540,1536,17172,256,-258,-290,6000,0,88000,269052,
452,1556,17336,243,-242,-302,6000,0,88000,269055,
412,1440,17112,241,-237,-343,6000,-1000,88000,269057,
352,1592,17172,279,-254,-345,6000,-1000,88000,269059,
120,1624,17132,271,-641,-351,6000,-1000,87000,269096,
184,1604,16904,272,-663,-365,6000,-1000,87000,269099,
232,1592,16880,275,-666,-329,6000,-1000,87000,269101,
92,1648,16980,272,-698,-342,6000,-1000,87000,269103,
196,1528,16964,324,-710,-293,6000,-1000,87000,269116,
92,1512,16760,310,-670,-267,6000,-1000,87000,269118,
168,1488,16856,296,-668,-267,6000,-1000,87000,269120,
236,1524,16492,381,-576,-262,6000,-1000,87000,269132,
284,1564,16656,391,-561,-205,6000,-1000,87000,269135,
388,1400,16460,405,-521,-201,6000,-1000,87000,269137,
332,1508,16352,432,-340,-167,6000,-1000,87000,269149,
240,1604,16464,432,-320,-188,6000,-1000,87000,269152,
96,1604,16532,430,-309,-164,6000,-1000,87000,269154,
200,1708,16588,418,-330,-146,7000,-1000,87000,269156,
64,1748,16652,342,-402,-150,7000,-1000,87000,269168,
44,1660,16724,336,-399,-138,7000,-1000,87000,269171,
36,1716,16604,327,-439,-142,7000,-1000,87000,269173,
176,1604,16588,306,-508,-153,7000,-1000,87000,269185,
280,1596,16692,330,-494,-161,7000,-1000,87000,269188,
136,1564,16736,339,-486,-134,7000,-1000,87000,269190,
200,1600,16528,344,-457,-165,7000,-1000,87000,269192,
480,1624,16380,382,-199,-165,7000,-1000,87000,269205,
348,1532,16388,369,-164,-179,7000,-1000,87000,269207,
372,1692,16500,396,-125,-155,7000,-1000,87000,269209,
264,1780,16228,350,-69,-140,7000,-1000,87000,269222,
188,1808,16384,347,-90,-131,7000,-1000,87000,269224,
212,1760,16256,319,-103,-116,7000,-1000,87000,269226,
244,1788,16564,259,-264,-116,7000,-1000,87000,269238,
180,1724,16644,226,-299,-69,7000,-1000,87000,269241,
288,1724,16552,232,-321,-79,7000,-1000,87000,269243,
292,1828,16604,239,-359,-51,7000,-1000,87000,269246,
180,1780,16680,186,-450,-19,7000,-1000,87000,269258,
184,1760,16816,200,-452,-11,7000,-1000,87000,269260,
320,1720,16648,199,-486,-20,7000,-1000,87000,269263,
284,1568,16512,192,-438,-2,7000,-1000,87000,269275,
440,1696,16500,217,-440,41,7000,-1000,87000,269277,
500,1632,16636,231,-404,5,7000,-1000,87000,269279,
540,1648,16640,215,-363,23,7000,-1000,87000,269282,
500,1616,16588,245,-221,42,7000,-1000,87000,269294,
588,1708,16544,246,-197,47,7000,-1000,87000,269296,
436,1784,16516,244,-173,71,7000,-1000,87000,269298,
496,1904,16580,203,-130,33,7000,-1000,87000,269311,
520,1812,16560,226,-92,42,7000,-1000,87000,269313,
540,1732,16604,235,-92,33,7000,-1000,87000,269315,
476,1636,16508,229,-75,13,7000,-1000,87000,269318,
504,1568,16716,239,48,27,7000,-1000,87000,269330,
576,1664,16560,263,55,48,7000,-1000,87000,269332,
572,1744,16624,258,88,52,7000,-1000,87000,269335,
456,1752,16636,253,70,35,7000,-1000,87000,269337,
260,1720,16544,242,20,70,7000,-1000,87000,269349,
204,1588,16432,249,-31,108,7000,-1000,87000,269351,
196,1568,16576,231,-45,90,7000,-1000,87000,269354,
344,1708,16572,202,-296,155,7000,-1000,87000,269366,
256,1792,16684,166,-323,141,7000,-1000,87000,269368,
400,1740,16388,176,-374,180,7000,-1000,87000,269371,
420,1788,16680,161,-391,171,7000,-1000,87000,269373,
436,1760,16560,112,-470,200,7000,-1000,87000,269386,
432,1752,16784,125,-460,187,7000,-1000,87000,269388,
488,1780,16656,110,-460,209,7000,-1000,87000,269390,
596,1752,16568,116,-411,193,7000,-1000,87000,269402,
640,1864,16436,124,-373,210,7000,-1000,87000,269405,
740,1804,16500,109,-413,187,7000,-1000,87000,269407,
796,1780,16496,116,-369,189,7000,-1000,87000,269409,
924,1680,16520,144,-277,162,7000,-1000,87000,269421,
744,1712,16516,134,-242,200,7000,-1000,87000,269424,
804,1848,16640,153,-273,184,7000,-1000,87000,269426,
780,1716,16404,174,-211,142,7000,-1000,87000,269438,
868,1732,16644,166,-170,111,7000,-1000,87000,269441,
812,1620,16368,160,-125,99,7000,-1000,87000,269443,
868,1760,16744,178,-134,89,7000,-1000,87000,269445,
688,1756,16676,186,-38,46,7000,-1000,87000,269458,
688,1684,16564,196,-58,32,7000,-1000,87000,269460,
692,1740,16548,201,-56,53,7000,-1000,87000,269462,
656,1688,16476,218,-46,15,7000,-1000,87000,269474,
668,1736,16352,203,-21,2,7000,-1000,87000,269477,
704,1724,16388,203,-57,23,7000,-1000,87000,269479,
824,1716,16376,206,-40,14,7000,-1000,87000,269481,
708,1884,16352,122,-42,51,7000,-1000,87000,269494,
676,1924,16232,93,-63,76,7000,-1000,87000,269496,
580,1872,16288,75,-71,59,7000,-1000,87000,269498,
720,1908,16504,74,-112,56,7000,-1000,87000,269500,
652,1704,16468,10,-158,18,7000,-1000,87000,269513,
636,1788,16596,-38,-154,46,7000,-1000,87000,269515,
576,1724,16676,-40,-188,31,7000,-1000,87000,269517,
516,1664,16760,-44,-236,27,7000,-2000,87000,269530,
568,1536,16744,-37,-238,24,7000,-2000,87000,269532,
484,1584,16884,-4,-214,38,7000,-2000,87000,269534,
512,1524,16812,-52,-218,14,7000,-2000,87000,269536,
668,1716,16888,10,-194,-9,7000,-2000,87000,269549,
844,1644,16708,5,-181,4,7000,-2000,87000,269551,
720,1708,16716,30,-171,-13,7000,-2000,87000,269553,
724,1636,16772,34,-159,19,7000,-2000,87000,269556,
896,1628,16672,104,-29,-9,7000,-2000,87000,269568,
736,1500,16772,107,14,-2,7000,-2000,87000,269570,
856,1584,16544,122,15,-26,7000,-2000,87000,269573,
668,1708,16656,134,66,-27,7000,-2000,87000,269585,
628,1696,16672,127,6,0,7000,-2000,87000,269587,
708,1624,16784,111,-12,-26,7000,-2000,87000,269589,
600,1772,16660,136,-10,-30,7000,-2000,87000,269592,
404,1668,16984,115,-167,-12,7000,-2000,87000,269604,
564,1676,16840,125,-133,17,7000,-2000,87000,269606,
532,1732,16924,127,-181,15,7000,-2000,87000,269608,
640,1624,16844,141,-125,22,7000,-2000,87000,269621,
752,1660,16800,152,-103,30,7000,-2000,87000,269623,
824,1672,16664,167,-110,1,7000,-2000,87000,269625,
796,1696,16704,143,-104,43,7000,-2000,87000,269628,
684,1752,16644,123,-170,39,7000,-2000,87000,269640,
704,1760,16556,119,-181,16,7000,-2000,87000,269642,
704,1780,16800,110,-228,30,7000,-2000,87000,269645,
776,1844,16848,86,-327,26,7000,-2000,87000,269657,
700,1884,16900,89,-351,28,7000,-2000,87000,269659,
808,1808,16688,83,-356,31,7000,-2000,87000,269661,
820,1940,16652,91,-372,24,7000,-2000,87000,269664,
944,1628,16848,158,-312,20,7000,-2000,87000,269676,
1012,1632,16668,176,-297,18,7000,-2000,87000,269678,
920,1584,16776,181,-274,-11,7000,-2000,87000,269681,
1044,1684,16600,196,-221,7,7000,-2000,87000,269683,
960,1812,16328,238,-51,-25,7000,-2000,87000,269696,
1032,1728,16392,246,-13,-50,7000,-2000,87000,269698,
1012,1696,16468,241,-13,-64,7000,-2000,87000,269700,
772,1780,16424,218,54,-108,7000,-2000,87000,269712,
708,1796,16436,235,69,-134,7000,-2000,87000,269715,
824,1864,16568,208,27,-161,7000,-2000,87000,269717,
740,1728,16404,197,17,-166,7000,-2000,87000,269719,
648,1668,16588,176,-4,-202,7000,-2000,87000,269732,
712,1824,16604,185,2,-197,7000,-2000,87000,269734,
692,1728,16648,193,25,-191,7000,-2000,87000,269736,
604,1736,16304,171,48,-173,7000,-2000,87000,269749,
676,1776,16544,160,82,-166,7000,-2000,87000,269751,
616,1776,16580,153,73,-163,7000,-2000,87000,269753,
616,1876,16372,124,55,-163,7000,-2000,87000,269755,
564,1812,16312,95,-20,-174,7000,-2000,87000,269768,
580,1800,16268,100,-34,-158,7000,-2000,87000,269770,
616,1812,16356,62,-75,-154,7000,-2000,87000,269772,
500,1780,16520,51,-180,-159,7000,-2000,87000,269785,
560,1728,16428,27,-180,-130,7000,-2000,87000,269787,
580,1776,16444,29,-199,-128,7000,-2000,87000,269789,
572,1832,16476,35,-181,-125,7000,-2000,87000,269791,
652,1772,16476,27,-142,-62,7000,-2000,87000,269804,
732,1848,16508,38,-126,-84,7000,-2000,87000,269806,
668,1800,16536,34,-96,-50,7000,-2000,87000,269808,
716,1684,16452,46,1,-51,7000,-2000,87000,269821,
680,1728,16436,27,12,-36,7000,-2000,87000,269823,
708,1696,16492,50,31,-33,7000,-2000,87000,269825,
548,1720,16456,58,13,-19,7000,-2000,87000,269827,
664,1656,16384,20,82,-39,7000,-2000,87000,269840,
640,1700,16248,46,71,-27,7000,-2000,87000,269842,
484,1692,16388,15,77,-58,7000,-2000,87000,269844,
512,1776,16448,6,78,-78,7000,-2000,87000,269846,
500,1800,16452,-31,-2,-31,7000,-2000,87000,269859,
568,1808,16476,-37,-21,-38,7000,-2000,87000,269861,
500,1852,16540,-61,-56,-29,7000,-2000,87000,269863,
528,1876,16532,-57,-34,-18,7000,-2000,87000,269866,
572,1676,16700,-85,-58,-34,7000,-2000,87000,269878,
520,1792,16592,-65,-62,-12,7000,-2000,87000,269880,
620,1684,16696,-85,-42,-16,7000,-2000,87000,269883,
472,1732,16636,-59,30,-12,7000,-2000,87000,269895,
524,1840,16576,-67,38,3,7000,-2000,87000,269897,
640,1676,16628,-59,22,1,7000,-2000,87000,269900,
540,1684,16564,-72,13,-23,7000,-2000,87000,269902,
604,1692,16512,-49,41,14,7000,-2000,87000,269914,
584,1724,16532,-40,66,28,7000,-2000,87000,269917,
612,1812,16628,-94,15,71,7000,-2000,87000,269930,
536,1772,16776,-91,-19,82,7000,-2000,87000,269932,
508,1788,16680,-87,-46,87,7000,-2000,87000,269934,
564,1808,16524,-79,-81,96,7000,-2000,87000,269937,
688,1800,16824,-50,-95,121,7000,-2000,87000,269949,
644,1760,16752,-44,-53,142,7000,-2000,87000,269951,
756,1748,16900,-57,-36,133,7000,-2000,87000,269953,
596,1720,16632,-55,-7,131,7000,-2000,87000,269956,
704,1560,16524,-21,66,161,7000,-2000,87000,269968,
728,1640,16588,-8,99,158,7000,-2000,87000,269970,
712,1648,16848,19,99,157,7000,-2000,87000,269973,
664,1704,16472,33,117,159,7000,-2000,87000,269985,
728,1660,16792,32,132,150,7000,-2000,87000,269987,
704,1836,16592,11,128,175,7000,-2000,87000,269990,
728,1684,16752,33,129,149,7000,-2000,87000,269992,
728,1728,16588,21,56,149,7000,-2000,87000,270004,
712,1712,16748,36,49,144,7000,-2000,87000,270007,
724,1740,16788,15,59,164,7000,-2000,87000,270009,
752,1720,16588,33,40,159,7000,-2000,87000,270011,
816,1808,16860,3,78,131,7000,-2000,87000,270024,
732,1672,16760,14,117,160,7000,-2000,87000,270026,
860,1668,16852,7,104,127,7000,-2000,87000,270028,
736,1644,16876,9,112,139,7000,-2000,87000,270030,
776,1648,16624,28,176,90,7000,-2000,87000,270043,
752,1544,16696,43,210,92,7000,-2000,87000,270045,
768,1728,16776,19,201,97,7000,-2000,87000,270047,
724,1688,16576,15,223,65,7000,-2000,87000,270049,
640,1780,16660,2,225,52,7000,-2000,87000,270062,
608,1740,16556,16,185,50,7000,-2000,87000,270064,
668,1744,16672,-1,187,45,7000,-2000,87000,270066,
632,1704,16632,12,149,49,7000,-2000,87000,270069,
636,1692,16784,31,-13,86,7000,-2000,87000,270081,
512,1540,16936,37,6,55,7000,-2000,87000,270083,
548,1636,16816,24,-19,81,7000,-2000,87000,270086,
744,1596,16700,66,-99,142,7000,-2000,87000,270098,
700,1556,16736,72,-111,133,7000,-2000,87000,270100,
652,1648,16692,73,-86,160,7000,-2000,87000,270102,
828,1528,16744,98,-97,174,7000,-2000,87000,270105,
744,1604,16776,115,10,196,7000,-2000,87000,270117,
788,1600,16644,130,38,184,7000,-2000,87000,270119,
852,1552,16528,138,48,171,7000,-2000,87000,270122,
948,1676,16620,109,80,194,7000,-2000,87000,270124,
828,1716,16580,134,128,193,7000,-2000,87000,270136,
908,1752,16780,146,136,144,7000,-2000,87000,270138,
912,1648,16852,129,169,169,7000,-2000,87000,270141,
792,1788,16600,100,133,139,7000,-2000,87000,270153,
772,1764,16704,94,119,108,7000,-2000,87000,270155,
592,1776,16644,67,79,126,7000,-2000,87000,270157,
668,1664,16508,72,81,105,7000,-2000,87000,270160,
636,1536,16612,38,-28,72,7000,-2000,87000,270172,
668,1616,16620,23,-52,55,7000,-2000,87000,270174,
668,1632,16656,20,-55,42,7000,-2000,87000,270177,
836,1616,16680,-14,-92,24,7000,-2000,87000,270192,
888,1664,16664,5,-73,19,7000,-2000,87000,270195,
848,1672,16660,3,-83,1,7000,-2000,87000,270197,
984,1608,16644,-6,-54,-15,7000,-2000,87000,270199,
900,1532,16608,38,35,-22,7000,-2000,87000,270212,
784,1596,16560,57,50,-1,7000,-2000,87000,270214,
748,1404,16800,65,80,-21,7000,-2000,87000,270216,
864,1448,16668,81,66,-7,7000,-2000,87000,270219,
896,1632,16544,114,193,-18,7000,-2000,87000,270231,
972,1656,16592,128,186,-2,7000,-2000,87000,270233,
876,1560,16556,119,194,-18,7000,-2000,87000,270235,
916,1600,16580,140,249,-5,7000,-2000,87000,270238,
668,1656,16688,113,262,-11,7000,-2000,87000,270250,
676,1604,16768,130,271,-19,7000,-2000,87000,270252,
648,1620,16648,98,212,-23,7000,-2000,87000,270255,
480,1508,16884,103,99,-42,7000,-2000,87000,270267,
528,1620,16816,91,83,-26,7000,-2000,87000,270269,
408,1560,16716,100,97,-47,7000,-2000,87000,270272,
604,1592,16924,93,43,-31,7000,-2000,87000,270274,
640,1556,16808,125,10,-34,7000,-2000,87000,270287,
780,1644,16812,107,36,-59,7000,-2000,87000,270289,
804,1740,16588,93,44,-25,7000,-2000,87000,270291,
748,1640,16600,125,39,-18,7000,-2000,87000,270293,
792,1576,16624,99,134,-5,7000,-2000,87000,270306,
840,1764,16468,101,128,-10,7000,-2000,87000,270308,
832,1676,16536,91,147,-3,7000,-2000,87000,270310,
812,1684,16620,80,147,-10,7000,-2000,87000,270313,
568,1592,16592,76,87,3,7000,-2000,87000,270325,
668,1588,16772,66,57,-10,7000,-2000,87000,270327,
556,1600,16724,57,38,-17,7000,-2000,87000,270330,
536,1584,16800,63,17,-20,7000,-2000,87000,270332,
452,1748,16736,81,-74,-17,7000,-2000,87000,270344,
540,1676,16776,81,-89,-7,7000,-2000,87000,270346,
648,1636,16708,76,-75,-8,7000,-2000,87000,270349,
816,1788,16884,93,71,-38,7000,-2000,87000,270361,
848,1724,16540,78,82,-40,7000,-2000,87000,270363,
908,1780,16788,88,118,-46,7000,-2000,87000,270366,
952,1760,16736,104,158,-56,7000,-2000,87000,270368,
616,1816,16864,125,242,-91,7000,-2000,87000,270380,
604,1704,16772,121,226,-91,7000,-2000,87000,270383,
568,1800,16596,151,219,-86,7000,-2000,87000,270385,
656,1684,16660,127,199,-115,7000,-2000,87000,270387,
588,1696,16664,162,187,-79,7000,-2000,87000,270400,
588,1824,16656,157,158,-129,7000,-2000,87000,270402,
596,1752,16876,149,165,-96,7000,-2000,87000,270404,
548,1728,16568,134,94,-70,7000,-2000,87000,270417,
540,1592,16652,119,86,-64,7000,-2000,87000,270419,
584,1800,16504,137,74,-51,7000,-2000,87000,270421,
536,1624,16744,131,62,-48,7000,-2000,87000,270423,
456,1628,16596,142,-13,-14,7000,-2000,87000,270436,
568,1656,16592,119,-21,-33,7000,-2000,87000,270438,
576,1592,16516,131,-31,-18,7000,-2000,87000,270440,
336,1712,16644,67,73,74,7000,-1000,87000,270477,
384,1872,16696,62,59,65,7000,-1000,87000,270480,
272,1900,16824,53,33,72,7000,-1000,87000,270482,
256,1940,16900,60,42,71,7000,-1000,87000,270484,
-28,1912,16924,4,-138,85,7000,-1000,87000,270497,
-28,2000,17112,8,-187,97,7000,-1000,87000,270499,
-60,2072,16876,0,-251,109,7000,-1000,87000,270501,
-136,1952,16832,-2,-290,103,7000,-1000,87000,270503,
-228,2048,17188,-73,-519,144,7000,-2000,87000,270516,
-224,2132,17180,-57,-547,148,7000,-2000,87000,270518,
-252,2040,17172,-40,-566,176,7000,-2000,87000,270520,
-320,2000,17068,-25,-640,230,7000,-2000,87000,270533,
-312,2032,17056,-18,-613,275,7000,-2000,87000,270535,
-400,2012,17052,-7,-604,293,7000,-2000,87000,270537,
-476,1920,17268,5,-570,337,7000,-2000,87000,270539,
-672,1992,16936,61,-491,382,7000,-2000,87000,270552,
-648,2152,16976,55,-459,421,7000,-2000,87000,270554,
-856,2048,17048,65,-471,435,7000,-2000,87000,270556,
-1432,2084,16764,45,-442,536,7000,-2000,88000,270569,
-1464,2156,17028,51,-466,562,7000,-2000,88000,270571,
-1596,2068,16992,68,-465,589,7000,-2000,88000,270573,
-1564,2128,16972,58,-460,626,7000,-2000,88000,270576,
-1988,2376,17116,46,-433,825,7000,-2000,88000,270588,
-2052,2480,17044,39,-428,860,7000,-2000,88000,270590,
-2060,2600,17072,32,-405,898,7000,-2000,88000,270592,
-2508,2672,16960,21,-423,1180,7000,-2000,88000,270605,
-2524,2632,16960,1,-430,1251,7000,-2000,88000,270607,
-2688,2752,17012,1,-410,1297,7000,-2000,88000,270610,
-2776,2628,16804,10,-408,1364,7000,-2000,88000,270612,
-3472,2532,16860,31,-417,1687,7000,-2000,88000,270624,
-3452,2608,16932,39,-416,1764,7000,-2000,88000,270627,
-3588,2672,16848,32,-441,1828,7000,-2000,88000,270629,
-3844,2672,17040,117,-479,2300,7000,-2000,88000,270641,
-3940,2652,16904,138,-464,2382,7000,-2000,88000,270644,
-4004,2644,16852,160,-456,2503,7000,-2000,88000,270646,
-4156,2580,16896,311,-339,3191,7000,-2000,89000,270659,
-4200,2584,17020,327,-323,3324,7000,-2000,89000,270661,
-4392,2588,16956,370,-297,3460,7000,-2000,89000,270663,
-4472,2488,16856,464,-324,4284,7000,-2000,89000,270675,
-4396,2396,16896,489,-352,4452,7000,-2000,89000,270678,
-4544,2488,16960,501,-415,4591,7000,-2000,89000,270680,
-4600,2564,16884,558,-787,5453,7000,-2000,90000,270692,
-4400,2416,16784,584,-895,5607,7000,-2000,90000,270694,
-4316,2420,16744,601,-897,5758,7000,-2000,90000,270697,
-3764,2492,16804,704,-1009,6602,7000,-2000,91000,270709,
-3712,2552,16696,713,-1000,6780,7000,-2000,91000,270711,
-3784,2436,16636,729,-985,6908,7000,-2000,91000,270714,
-3536,2164,16736,748,-1104,7737,7000,-2000,92000,270726,
-3556,2192,16672,762,-1124,7900,7000,-2000,92000,270728,
-3408,2240,16672,739,-1151,8036,7000,-2000,92000,270731,
-3516,2124,16640,730,-1507,8767,7000,-2000,93000,270743,
-3476,2068,16832,702,-1606,8913,7000,-2000,93000,270745,
-3436,2088,16720,678,-1713,9012,7000,-2000,93000,270747,
-3156,1884,16960,655,-2430,9652,7000,-2000,94000,270760,
-3024,1900,16976,643,-2570,9751,7000,-2000,94000,270762,
-2856,1896,16864,647,-2687,9848,7000,-2000,94000,270764,
-2248,1732,16780,592,-3287,10390,7000,-3000,95000,270777,
-2216,1760,17068,581,-3349,10466,7000,-3000,95000,270779,
-2092,1808,16968,581,-3456,10574,7000,-3000,95000,270781,
-1372,1672,16980,656,-3782,11003,7000,-3000,96000,270794,
-1228,1664,16880,654,-3763,11064,7000,-3000,97000,270796,
-1064,1784,16804,664,-3797,11144,7000,-4000,97000,270798,
-544,1584,16636,748,-3637,11431,7000,-4000,98000,270811,
-348,1512,16732,733,-3617,11449,7000,-4000,98000,270813,
-264,1516,16800,761,-3552,11507,7000,-4000,98000,270815,
-80,1260,16772,828,-3324,11695,7000,-5000,99000,270827,
-40,1208,16888,829,-3301,11721,7000,-5000,99000,270830,
-20,1212,16956,859,-3268,11756,7000,-5000,100000,270832,
136,848,17008,985,-3072,11928,7000,-5000,101000,270844,
200,784,17168,1019,-3029,11989,7000,-5000,101000,270847,
272,732,17172,1078,-2997,11996,7000,-5000,101000,270849,
392,600,17280,1291,-2859,12231,7000,-6000,102000,270862,
468,568,17336,1285,-2845,12269,7000,-6000,102000,270864,
500,428,17400,1378,-2824,12315,7000,-6000,103000,270866,
768,212,17160,1614,-2720,12617,7000,-6000,104000,270878,
876,168,17380,1673,-2713,12692,7000,-6000,104000,270881,
936,124,17264,1740,-2643,12729,7000,-6000,104000,270883,
988,100,17172,1948,-2414,13031,7000,-7000,105000,270895,
988,164,17172,1966,-2345,13082,7000,-7000,106000,270898,
1040,228,17208,1996,-2365,13125,7000,-7000,106000,270900,
1012,196,17056,2051,-2530,13413,7000,-7000,107000,270912,
892,264,16976,2062,-2551,13472,7000,-7000,107000,270915,
864,232,17024,2066,-2622,13525,7000,-7000,108000,270917,
796,136,17152,2065,-3029,13745,7000,-8000,109000,270929,
928,64,17188,2072,-3116,13799,7000,-8000,109000,270932,
828,48,17132,2091,-3218,13836,7000,-8000,109000,270934,
1132,-60,17140,2207,-3594,14111,7000,-8000,111000,270946,
1128,-60,17368,2246,-3638,14179,7000,-9000,111000,270949,
1204,-216,17172,2274,-3633,14184,7000,-9000,111000,270951,
1544,-404,17000,2501,-3591,14395,7000,-9000,113000,270963,
1508,-376,16944,2555,-3515,14415,7000,-9000,113000,270965,
1528,-248,16988,2586,-3487,14469,7000,-9000,113000,270968,
1704,-220,16700,2725,-3227,14629,7000,-10000,114000,270980,
1736,-120,16772,2754,-3206,14651,7000,-10000,115000,270982,
1672,-192,16736,2772,-3146,14673,7000,-10000,115000,270985,
1604,-192,16772,2864,-3005,14748,7000,-10000,116000,270997,
1680,-276,16784,2915,-3013,14786,7000,-10000,117000,271000,
1720,-252,16484,2947,-2997,14792,7000,-10000,117000,271002,
1996,-484,16608,3174,-2789,14834,7000,-11000,118000,271014,
2168,-544,16312,3244,-2722,14869,7000,-11000,118000,271017,
2132,-536,16328,3304,-2679,14883,7000,-11000,119000,271019,
2488,-536,16092,3499,-2125,14986,7000,-11000,120000,271032,
2568,-524,15940,3529,-1991,15012,7000,-11000,120000,271034,
2564,-588,15864,3531,-1905,15021,7000,-12000,121000,271036,
2768,-476,15788,3618,-1567,15115,7000,-12000,122000,271049,
2836,-480,15816,3624,-1495,15122,7000,-12000,122000,271051,
2884,-444,15860,3596,-1484,15147,7000,-12000,123000,271054,
3364,-512,16180,3664,-1231,15112,6000,-12000,124000,271066,
3552,-636,16188,3675,-1216,15122,6000,-12000,124000,271068,
3596,-760,16160,3673,-1166,15096,6000,-12000,125000,271071,
4156,-1088,16424,3822,-935,15069,6000,-13000,126000,271083,
4272,-1268,16484,3870,-887,15061,6000,-13000,127000,271086,
4364,-1172,16412,3896,-865,15048,6000,-13000,127000,271088,
4964,-1260,16656,4093,-548,15074,6000,-13000,128000,271101,
5228,-1088,16492,4095,-519,15068,6000,-13000,129000,271103,
5248,-1124,16616,4096,-454,15085,6000,-13000,129000,271105,
5764,-1156,16192,4076,-176,15029,6000,-13000,130000,271118,
5768,-1212,16020,4073,-182,14968,6000,-13000,131000,271120,
5876,-1276,15900,4070,-157,14933,6000,-13000,131000,271122,
6600,-1520,15540,3944,-166,14585,6000,-14000,132000,271135,
6644,-1456,15588,3942,-173,14499,6000,-14000,133000,271137,
6744,-1488,15600,3896,-183,14402,6000,-14000,133000,271139,
7252,-1536,15640,3745,-300,13810,6000,-14000,134000,271152,
7268,-1548,15428,3732,-351,13697,6000,-14000,134000,271154,
7304,-1560,15376,3687,-402,13582,6000,-14000,135000,271157,
7780,-1384,15748,3493,-520,12954,6000,-14000,136000,271169,
7848,-1320,15648,3464,-570,12838,6000,-14000,136000,271172,
7728,-1240,15872,3430,-559,12699,6000,-14000,136000,271174,
8108,-1248,15788,3235,-643,11883,6000,-15000,138000,271186,
8108,-1312,15688,3196,-615,11723,6000,-15000,138000,271189,
8108,-1408,15884,3168,-611,11553,6000,-15000,138000,271191,
8580,-1324,16092,3085,-593,10706,6000,-15000,139000,271204,
8532,-1348,15956,3076,-576,10556,6000,-15000,139000,271206,
8608,-1400,15816,3066,-581,10389,6000,-15000,140000,271208,
8864,-1508,15648,2983,-503,9653,6000,-15000,140000,271221,
8880,-1448,15548,2980,-456,9539,6000,-15000,141000,271223,
8956,-1680,15524,2953,-464,9407,6000,-15000,141000,271225,
9124,-1732,14912,2876,-203,8691,6000,-16000,142000,271238,
9188,-1752,14972,2863,-140,8578,6000,-16000,142000,271240,
9284,-1628,14864,2812,-77,8431,6000,-16000,142000,271242,
9280,-1368,14572,2508,36,7512,6000,-16000,143000,271254,
9312,-1364,14592,2432,-49,7360,6000,-16000,143000,271257,
9216,-1412,14380,2392,-67,7204,6000,-16000,143000,271259,
9384,-1448,14276,2056,-330,6301,6000,-16000,144000,271271,
9296,-1468,14284,2025,-345,6141,6000,-16000,144000,271274,
9296,-1544,14236,1997,-371,5993,6000,-16000,144000,271276,
9616,-1680,14228,1822,-333,5184,6000,-16000,144000,271288,
9608,-1652,14280,1814,-301,5045,6000,-16000,145000,271290,
9656,-1804,14144,1775,-197,4911,6000,-17000,145000,271293,
10184,-1656,14016,1655,345,4083,6000,-17000,145000,271305,
10116,-1488,13952,1622,460,3894,6000,-17000,145000,271307,
10324,-1324,13988,1578,577,3732,6000,-17000,145000,271310,
9840,-956,14072,1234,945,2827,6000,-17000,145000,271322,
9784,-904,14116,1147,988,2715,6000,-17000,146000,271324,
9600,-996,14252,1071,959,2566,6000,-17000,146000,271327,
9356,-1228,14396,708,769,1680,6000,-17000,146000,271339,
9252,-1308,14228,638,718,1507,6000,-17000,146000,271341,
9292,-1364,14356,610,686,1349,6000,-17000,146000,271343,
9608,-1560,14308,426,537,434,6000,-17000,146000,271356,
9860,-1612,14172,407,535,243,6000,-17000,146000,271358,
9964,-1516,14148,368,537,50,6000,-17000,146000,271360,
10348,-1272,13956,137,683,-951,6000,-17000,146000,271373,
10392,-1128,13912,94,708,-1122,6000,-17000,146000,271375,
10404,-1060,13896,27,744,-1296,6000,-17000,146000,271377,
10360,-848,14040,-417,733,-2244,6000,-17000,146000,271390,
10276,-800,14176,-522,681,-2409,6000,-17000,146000,271392,
10168,-776,14160,-614,657,-2561,6000,-17000,146000,271394,
10112,-704,14596,-1147,324,-3556,5000,-17000,145000,271406,
10132,-800,14812,-1209,264,-3741,5000,-17000,145000,271409,
10212,-884,14888,-1305,188,-3905,5000,-17000,145000,271411,
10064,-1364,15080,-1619,-159,-4787,5000,-17000,145000,271423,
10128,-1620,15288,-1641,-230,-4964,5000,-17000,145000,271426,
10088,-1652,15372,-1684,-207,-5151,5000,-17000,144000,271428,
10024,-2128,15260,-1731,-317,-6075,5000,-17000,144000,271441,
9956,-2076,15348,-1733,-335,-6244,5000,-17000,144000,271443,
7796,-2212,15648,-3068,708,-14144,6000,-16000,131000,271556,
7700,-2236,15604,-3087,664,-14244,6000,-16000,131000,271559,
7564,-2280,15464,-3124,656,-14357,6000,-16000,131000,271561,
7148,-2064,15680,-3194,534,-14881,6000,-16000,129000,271574,
7032,-1992,15684,-3228,506,-14952,6000,-16000,129000,271576,
6908,-1972,15744,-3270,449,-15035,6000,-16000,129000,271578,
6412,-1916,15656,-3465,174,-15502,6000,-15000,127000,271591,
6340,-1876,15600,-3499,116,-15552,6000,-15000,127000,271593,
6244,-1924,15728,-3511,47,-15669,6000,-15000,127000,271595,
6056,-2040,15772,-3620,-31,-16066,6000,-15000,125000,271608,
6128,-2020,15772,-3626,-16,-16119,6000,-15000,125000,271610,
6024,-1980,15720,-3632,1,-16188,6000,-15000,125000,271612,
5692,-2024,15808,-3667,246,-16437,6000,-15000,123000,271625,
5500,-2092,15828,-3654,306,-16474,6000,-15000,123000,271627,
5420,-2064,15764,-3671,354,-16530,6000,-15000,122000,271629,
4872,-1876,15964,-3689,687,-16738,6000,-15000,121000,271642,
4724,-1808,15872,-3696,740,-16787,6000,-15000,120000,271644,
4548,-1764,15948,-3719,777,-16822,6000,-15000,120000,271647,
3924,-1656,16280,-3755,919,-16996,6000,-14000,119000,271659,
3696,-1552,16388,-3759,927,-17029,6000,-14000,118000,271661,
3724,-1516,16476,-3764,935,-17079,6000,-14000,118000,271664,
3164,-1320,16984,-3767,957,-17241,6000,-14000,116000,271676,
2952,-1376,17084,-3753,982,-17233,6000,-14000,116000,271678,
2652,-1464,17448,-3532,1022,-17297,6000,-14000,114000,271691,
2480,-1396,17544,-3440,1058,-17279,6000,-14000,114000,271693,
2412,-1468,17536,-3381,1079,-17272,6000,-14000,114000,271696,
2244,-1348,17460,-2893,1579,-17082,6000,-13000,112000,271708,
2172,-1344,17416,-2801,1712,-17009,6000,-13000,112000,271711,
2216,-1284,17268,-2735,1802,-16969,6000,-13000,111000,271713,
2056,-1116,16888,-2263,2423,-16559,6000,-13000,110000,271725,
2008,-1076,17104,-2201,2515,-16473,6000,-12000,110000,271728,
1944,-1064,16800,-2145,2593,-16401,6000,-12000,109000,271730,
1736,-1284,16336,-1724,3038,-15763,6000,-12000,108000,271743,
1748,-1276,16204,-1651,3112,-15665,6000,-12000,107000,271745,
1740,-1268,16116,-1600,3170,-15533,6000,-12000,107000,271747,
1316,-1124,16108,-1420,3432,-14925,6000,-11000,106000,271760,
1372,-1104,16104,-1391,3427,-14836,6000,-11000,106000,271762,
372,-784,16224,-1243,3299,-14292,6000,-11000,104000,271774,
400,-784,16156,-1218,3279,-14204,6000,-10000,104000,271777,
300,-820,16404,-1191,3193,-14090,6000,-10000,104000,271779,
164,-384,16436,-1057,2978,-13563,6000,-10000,102000,271791,
264,-284,16516,-1028,2994,-13449,6000,-10000,102000,271794,
208,-120,16396,-987,2998,-13364,6000,-10000,102000,271796,
268,204,16296,-853,3022,-12695,6000,-9000,101000,271809,
236,164,16072,-834,3016,-12701,6000,-9000,101000,271811,
56,276,16172,-818,3045,-12531,6000,-9000,100000,271813,
-688,292,16124,-940,2824,-12078,7000,-9000,99000,271826,
-664,316,16156,-981,2740,-12021,7000,-8000,99000,271828,
-804,292,16012,-999,2615,-11972,7000,-8000,99000,271830,
-1196,700,16344,-1182,1711,-11929,7000,-8000,98000,271842,
-1192,732,16248,-1189,1550,-11948,7000,-8000,98000,271845,
-1028,812,16424,-1220,1453,-11923,7000,-8000,97000,271847,
-696,928,16604,-1272,1294,-11882,7000,-8000,96000,271859,
-584,1000,16560,-1261,1348,-11869,7000,-7000,96000,271862,
-692,916,16496,-1234,1445,-11825,7000,-7000,96000,271864,
-804,1236,16632,-1082,1873,-11546,7000,-7000,95000,271876,
-756,1128,16592,-1074,1932,-11447,7000,-7000,95000,271879,
-764,1264,16564,-1040,1994,-11364,7000,-7000,94000,271881,
-1392,1332,16528,-1008,2179,-10973,7000,-6000,93000,271893,
-1572,1472,16392,-1049,2165,-10933,7000,-6000,93000,271896,
-1620,1420,16436,-1063,2133,-10841,7000,-6000,93000,271898,
-2204,1664,16736,-1127,1578,-10549,7000,-6000,92000,271910,
-2360,1604,16852,-1099,1454,-10491,7000,-6000,92000,271913,
-2348,1712,16648,-1134,1331,-10437,7000,-6000,92000,271915,
-2132,1748,16920,-1064,938,-9981,7000,-6000,91000,271928,
-2204,1656,17016,-1032,952,-9860,7000,-5000,91000,271930,
-2160,1752,16980,-1002,961,-9754,7000,-5000,90000,271932,
-1896,1908,16708,-840,1263,-9015,7000,-5000,90000,271945,
-1880,2016,16736,-804,1321,-8874,7000,-5000,89000,271947,
-2024,1984,16648,-789,1359,-8726,7000,-5000,89000,271949,
-2500,2280,16412,-795,1344,-8029,7000,-5000,88000,271962,
-2516,2160,16480,-832,1284,-7926,7000,-5000,88000,271964,
-2664,2380,16408,-856,1207,-7827,7000,-5000,88000,271966,
-3132,2444,16556,-1058,488,-7401,7000,-4000,88000,271978,
-3092,2528,16792,-1078,359,-7318,7000,-4000,87000,271981,
-3072,2516,16800,-1169,192,-7245,7000,-4000,87000,271983,
-2664,2568,17380,-1119,-336,-6749,7000,-4000,87000,271995,
-2508,2524,17536,-1111,-343,-6666,6000,-4000,87000,271998,
-2392,2552,17460,-1032,-358,-6538,6000,-4000,86000,272000,
-1676,2508,17432,-678,72,-5914,6000,-4000,86000,272012,
-1536,2592,17136,-623,206,-5817,6000,-4000,86000,272014,
-1404,2512,17088,-535,366,-5690,6000,-4000,86000,272017,
-1652,2808,16664,-426,985,-5352,6000,-4000,85000,272029,
-1840,2852,16700,-432,998,-5333,6000,-4000,85000,272031,
-1924,2968,16552,-444,989,-5319,6000,-4000,85000,272033,
-2388,2868,16604,-539,667,-5213,6000,-3000,85000,272046,
-2316,2884,16808,-547,618,-5194,6000,-3000,84000,272048,
-2376,2744,16868,-545,600,-5172,6000,-3000,84000,272050,
-1736,2556,17048,-380,845,-4994,6000,-3000,84000,272063,
-1776,2528,17004,-313,949,-4920,6000,-3000,84000,272065,
-1756,2516,17032,-277,1090,-4896,7000,-3000,84000,272067,
-2100,2440,17128,-80,1739,-4492,7000,-3000,83000,272080,
-2000,2448,17108,-50,1784,-4446,7000,-3000,83000,272082,
-2080,2604,17012,-36,1781,-4357,7000,-3000,83000,272084,
-2220,2832,17036,-74,1775,-3942,7000,-2000,83000,272097,
-2224,2840,17092,-64,1740,-3883,7000,-2000,83000,272099,
-2292,2808,17132,-71,1735,-3821,7000,-2000,83000,272101,
-2148,2496,17288,-53,1540,-3374,7000,-2000,82000,272114,
-2256,2520,17400,-43,1491,-3262,7000,-2000,82000,272116,
-2040,2572,17120,-24,1500,-3207,7000,-2000,82000,272118,
-2088,2384,17160,54,1379,-2760,7000,-2000,82000,272130,
-2112,2564,17140,83,1294,-2683,7000,-2000,82000,272133,
-2076,2396,17088,109,1252,-2602,7000,-2000,82000,272135,
-1836,2456,16912,142,991,-2136,7000,-2000,82000,272147,
-1688,2440,16972,148,961,-2094,7000,-2000,82000,272150,
-1736,2548,16884,160,922,-2024,7000,-1000,82000,272152,
-1492,2392,16680,130,775,-1684,7000,-1000,82000,272164,
-1564,2448,16992,133,720,-1642,7000,-1000,82000,272166,
-1560,2412,17108,126,700,-1604,7000,-1000,81000,272169,
-1584,2292,16976,64,391,-1361,7000,-1000,81000,272181,
-1556,2284,17088,58,325,-1329,7000,-1000,81000,272183,
-1564,2264,17060,67,287,-1316,7000,-1000,81000,272186,
-1080,2232,17128,94,162,-1139,7000,-1000,81000,272198,
-928,2312,17208,99,169,-1084,7000,-1000,81000,272200,
-880,2280,17168,90,193,-1046,7000,-1000,81000,272203,
-756,2340,17052,125,217,-1008,7000,-1000,81000,272205,
-604,2332,16924,104,326,-801,7000,-1000,81000,272217,
-748,2420,16944,126,350,-762,7000,-1000,81000,272220,
-608,2368,16996,131,347,-726,7000,-1000,81000,272222,
-680,2248,16924,31,278,-610,7000,-1000,81000,272234,
-544,2288,16700,18,215,-596,7000,-1000,81000,272236,
-744,2296,16872,8,190,-579,7000,-1000,81000,272239,
-592,1996,16828,-23,-19,-540,7000,-1000,81000,272251,
-596,2104,16756,-21,-50,-509,7000,-1000,81000,272253,
-568,2108,17000,-13,-57,-532,7000,-1000,81000,272256,
-276,2028,16860,4,-47,-514,7000,-1000,81000,272258,
-64,2164,17000,69,133,-440,7000,-1000,81000,272270,
-112,2172,16648,54,148,-417,7000,-1000,81000,272273,
-72,2064,16776,47,167,-403,7000,-1000,81000,272275,
-192,2204,16876,-10,133,-323,7000,-1000,81000,272287,
-292,2200,16772,20,122,-302,7000,-1000,81000,272289,
-220,2128,16896,-7,106,-299,7000,-1000,81000,272292,
-280,2100,16928,-29,84,-307,7000,-1000,81000,272294,
-176,2080,16956,-33,-6,-261,7000,-1000,81000,272306,
-152,2060,16956,-48,-28,-273,7000,-1000,81000,272309,
-112,2196,17072,-43,-62,-232,7000,-1000,81000,272311,
-36,2120,17052,-14,-115,-167,7000,-1000,81000,272323,
12,2040,17020,-25,-92,-134,7000,-1000,81000,272326,
144,2020,17020,8,-69,-126,7000,-1000,81000,272328,
108,1972,17124,3,-47,-109,7000,-1000,81000,272330,
332,1992,16876,133,68,48,7000,-1000,81000,272342,
400,2008,16952,145,85,101,7000,-1000,81000,272345,
328,1916,16728,150,88,124,7000,-1000,81000,272347,
504,2248,16512,144,-8,238,7000,-1000,81000,272359,
484,2112,16692,138,-25,264,7000,-1000,81000,272361,
416,2184,16628,135,-131,251,7000,-1000,81000,272364,
428,2084,16776,110,-128,269,7000,-1000,81000,272366,
444,2120,16756,22,-303,257,7000,-1000,81000,272378,
548,2188,16616,8,-258,244,7000,-1000,81000,272381,
560,2164,16716,9,-308,221,7000,-1000,81000,272383,
544,2032,16952,-4,-398,108,7000,-1000,81000,272395,
444,2028,16896,12,-417,100,7000,-1000,81000,272398,
520,1848,17172,21,-398,82,7000,-1000,81000,272400,
564,1920,17188,20,-389,64,7000,-1000,81000,272402,
748,1860,17036,214,-11,73,7000,-1000,81000,272415,
328,2056,16948,254,260,120,7000,-1000,81000,272432,
248,1988,16864,279,207,103,7000,-1000,81000,272435,
284,1968,16772,247,153,84,7000,-1000,81000,272437,
316,1960,16672,257,118,97,7000,-1000,81000,272439,
464,2000,16644,205,-136,58,7000,-1000,81000,272452,
552,2076,16492,200,-163,80,7000,-1000,81000,272454,
604,2080,16596,185,-160,67,7000,-1000,81000,272456,
624,1932,16508,196,-146,43,7000,-1000,81000,272458,
332,2024,16588,164,-132,32,7000,-1000,81000,272471,
380,1960,16476,155,-143,26,7000,-1000,81000,272473,
424,2048,16724,132,-175,45,7000,-1000,81000,272475,
440,1936,16820,131,-258,95,7000,-1000,81000,272488,
348,1900,16648,156,-275,112,7000,-1000,81000,272490,
360,1908,16816,154,-298,129,7000,-1000,81000,272492,
468,1952,16812,147,-304,151,7000,-1000,81000,272495,
600,1852,16628,168,-327,266,7000,-1000,81000,272507,
644,2040,16544,162,-328,268,7000,-1000,81000,272509,
688,2032,16568,157,-341,267,7000,-1000,81000,272512,
688,2064,16372,102,-426,297,7000,-1000,81000,272524,
588,1996,16276,74,-464,287,7000,-1000,81000,272526,
652,2016,16280,66,-481,283,7000,-1000,81000,272528,
656,1920,16448,53,-485,295,7000,-1000,81000,272531,
720,1840,16600,83,-448,271,7000,-1000,81000,272543,
808,1796,16436,105,-436,235,7000,-1000,81000,272545,
728,1860,16504,105,-392,254,7000,-1000,81000,272547,
868,1712,16412,178,-116,276,7000,-1000,81000,272560,
724,1696,16564,184,-63,310,7000,-1000,81000,272562,
672,1888,16440,194,-22,308,7000,-1000,81000,272564,
668,1768,16336,195,16,317,7000,-1000,81000,272567,
404,1900,16408,130,96,315,7000,-1000,81000,272579,
264,1948,16388,125,73,284,7000,-1000,81000,272581,
424,1864,16288,94,30,289,7000,-1000,81000,272584,
300,1900,16428,74,-12,286,7000,-1000,81000,272586,
472,1852,16504,27,-198,261,7000,-1000,81000,272598,
476,1832,16676,23,-161,262,7000,-1000,81000,272601,
644,1824,16492,35,-131,268,7000,-1000,81000,272603,
804,1676,16484,67,79,306,7000,-1000,81000,272615,
640,1744,16516,77,101,328,7000,-1000,81000,272617,
672,1704,16376,79,150,348,7000,-1000,81000,272620,
792,1688,16404,92,181,348,7000,-1000,81000,272622,
624,1808,16384,69,284,438,7000,-1000,81000,272634,
512,1760,16392,41,275,456,7000,-1000,81000,272637,
560,1788,16560,62,285,453,7000,-1000,81000,272639,
