Ax,Ay,Az,Gx,Gy,Gz,Roll,Pitch,Yaw,Timestamp,Target
3656,884,15816,36,-1263,461,-3000,-9000,6000,425560,
3512,840,15800,103,-942,528,-3000,-10000,6000,425563,
3872,844,15876,-89,-759,441,-3000,-10000,6000,425575,
3856,896,15824,-161,-733,361,-3000,-10000,6000,425578,
3804,860,15812,-205,-773,313,-3000,-10000,6000,425580,
3740,884,15696,-262,-723,296,-3000,-10000,6000,425582,
3660,932,15948,-184,-755,407,-3000,-10000,6000,425595,
3960,880,15848,-283,-529,400,-3000,-10000,6000,425597,
4068,872,15880,-393,-579,389,-3000,-10000,6000,425599,
4072,900,15652,-401,-255,100,-3000,-10000,6000,425612,
3932,1004,15780,-493,-331,90,-3000,-10000,6000,425614,
3996,916,15776,-394,-214,110,-3000,-10000,6000,425616,
3848,840,15756,-479,-226,119,-3000,-10000,6000,425629,
3832,712,15616,-412,-222,110,-3000,-10000,6000,425631,
3828,748,15608,-450,-277,116,-3000,-10000,6000,425634,
3988,852,15640,-406,-238,108,-3000,-10000,6000,425646,
3784,796,15604,-402,-309,130,-3000,-10000,6000,425648,
3856,772,15600,-413,-312,137,-3000,-10000,6000,425651,
3908,824,15592,-412,-327,147,-3000,-10000,6000,425663,
3972,800,15576,-375,-333,152,-3000,-10000,6000,425665,
3868,748,15632,-384,-365,137,-3000,-10000,6000,425668,
3816,764,15600,-264,-420,171,-3000,-10000,6000,425680,
3748,752,15528,-312,-457,184,-3000,-10000,6000,425683,
3748,784,15372,-242,-492,234,-3000,-10000,6000,425685,
3912,844,15504,-266,-565,192,-3000,-10000,6000,425687,
3716,768,15556,-117,-736,327,-3000,-10000,6000,425700,
3696,812,15492,-176,-794,360,-3000,-10000,6000,425702,
3696,692,15444,-92,-833,399,-3000,-10000,6000,425704,
3464,928,15400,137,-1619,668,-3000,-10000,6000,425717,
3220,876,15536,86,-1378,694,-3000,-10000,6000,425719,
3484,820,15676,-58,-1375,724,-3000,-10000,7000,425721,
3772,784,15484,95,-1588,795,-3000,-11000,7000,425734,
3716,820,15508,54,-1644,767,-3000,-11000,7000,425736,
3568,956,15580,116,-1695,841,-3000,-11000,7000,425738,
3516,940,15432,97,-1743,817,-3000,-11000,7000,425741,
3500,888,15280,248,-2051,1007,-3000,-11000,7000,425753,
3424,844,15260,249,-2198,998,-3000,-11000,7000,425756,
3412,884,15232,359,-2191,1019,-3000,-11000,7000,425758,
3116,784,15208,580,-2504,1188,-3000,-11000,7000,425771,
3200,676,15160,627,-2468,1201,-3000,-11000,7000,425773,
3184,672,15192,589,-2652,1206,-3000,-11000,7000,425775,
3168,452,15936,636,-3569,1318,-3000,-12000,7000,425788,
3396,520,16044,594,-3821,1314,-3000,-12000,7000,425790,
3532,540,16132,601,-3935,1324,-3000,-12000,7000,425792,
4708,728,16376,232,-4319,1273,-3000,-12000,7000,425805,
4828,792,16380,261,-4175,1247,-3000,-12000,7000,425807,
4876,876,16460,152,-4098,1201,-3000,-12000,7000,425809,
4884,984,15700,35,-3201,849,-3000,-13000,7000,425822,
4896,968,15740,-89,-3131,850,-3000,-13000,7000,425824,
4820,924,15744,-24,-3047,825,-3000,-13000,7000,425826,
5136,968,15580,-229,-2919,744,-3000,-13000,8000,425839,
5308,1144,15544,-238,-2832,729,-3000,-13000,8000,425841,
5324,1108,15548,-306,-2770,683,-3000,-13000,8000,425843,
5888,928,15656,-383,-1915,447,-3000,-13000,8000,425856,
5828,856,15572,-464,-1768,412,-3000,-13000,8000,425858,
5908,948,15588,-457,-1560,342,-3000,-14000,8000,425861,
5716,1064,15484,-608,-828,195,-3000,-14000,8000,425873,
5648,972,15464,-599,-745,177,-3000,-14000,8000,425875,
5596,956,15356,-573,-633,154,-3000,-14000,8000,425878,
5472,892,15412,-620,-583,148,-3000,-14000,8000,425880,
5180,824,15344,-578,-358,167,-3000,-14000,8000,425893,
5344,876,15324,-653,-458,156,-3000,-14000,8000,425895,
5300,852,15360,-583,-377,198,-3000,-14000,8000,425897,
5084,948,15328,-656,-552,207,-3000,-14000,8000,425910,
4984,872,15400,-578,-413,235,-3000,-14000,8000,425912,
4996,896,15496,-628,-531,214,-3000,-14000,8000,425914,
4944,944,15252,-530,-551,282,-3000,-14000,8000,425927,
4976,1064,15372,-552,-602,290,-3000,-14000,8000,425929,
4996,928,15272,-503,-581,300,-3000,-14000,8000,425932,
5116,904,15472,-484,-670,365,-3000,-14000,8000,425944,
5172,792,15380,-454,-660,349,-3000,-14000,8000,425946,
5304,880,15464,-503,-583,368,-3000,-14000,8000,425949,
5244,860,15452,-452,-454,297,-3000,-14000,8000,425961,
5244,776,15400,-473,-418,251,-3000,-14000,8000,425964,
5240,884,15432,-429,-415,274,-3000,-14000,8000,425966,
5080,772,15328,-421,-282,255,-3000,-14000,8000,425978,
5200,728,15400,-409,-328,257,-3000,-14000,8000,425981,
5160,828,15216,-372,-237,242,-3000,-14000,8000,425983,
5176,772,15288,-407,-333,245,-3000,-14000,8000,425985,
5264,720,15428,-348,-169,166,-3000,-14000,8000,425998,
5092,712,15392,-367,-196,162,-3000,-14000,8000,426000,
5208,724,15372,-353,-121,185,-3000,-14000,8000,426002,
5068,764,15404,-360,-53,107,-3000,-14000,8000,426015,
5152,788,15504,-328,0,126,-3000,-14000,8000,426017,
5052,780,15412,-349,19,81,-3000,-14000,8000,426019,
5020,808,15192,-329,24,66,-3000,-14000,8000,426022,
5044,824,15364,-366,63,28,-3000,-14000,8000,426034,
5064,852,15416,-295,59,69,-3000,-14000,8000,426037,
4956,864,15616,-335,68,21,-3000,-14000,8000,426039,
4784,956,15464,-284,31,53,-3000,-14000,8000,426051,
4776,916,15388,-315,60,31,-3000,-14000,8000,426054,
4744,912,15232,-335,33,40,-3000,-14000,8000,426056,
4800,944,15408,-291,-5,75,-3000,-14000,8000,426058,
4864,836,15348,-352,-123,137,-3000,-14000,8000,426071,
4948,864,15460,-319,-185,146,-3000,-14000,8000,426073,
4852,960,15412,-343,-188,146,-3000,-14000,8000,426075,
5068,816,15464,-326,-271,233,-3000,-14000,8000,426088,
5128,804,15536,-403,-303,238,-3000,-14000,8000,426090,
5184,780,15268,-314,-291,274,-3000,-15000,8000,426092,
5352,892,15368,-443,-305,280,-3000,-15000,8000,426105,
5220,824,15396,-394,-247,306,-3000,-15000,8000,426107,
5360,864,15404,-479,-278,284,-3000,-15000,8000,426110,
5396,912,15516,-426,-200,307,-3000,-15000,8000,426112,
5448,920,15268,-528,29,293,-3000,-15000,8000,426125,
5492,904,15328,-515,31,288,-3000,-15000,8000,426127,
5508,888,15392,-552,65,268,-3000,-15000,8000,426129,
5420,1004,15380,-568,291,244,-3000,-15000,8000,426142,
5364,940,15372,-611,259,237,-3000,-15000,8000,426144,
5444,948,15372,-595,370,216,-3000,-15000,8000,426146,
5456,928,15376,-643,352,204,-3000,-15000,8000,426149,
5444,744,15460,-674,626,115,-3000,-15000,8000,426161,
5288,808,15408,-760,619,84,-3000,-15000,8000,426163,
5284,840,15456,-689,700,77,-3000,-15000,8000,426166,
5012,716,15396,-757,721,2,-3000,-15000,8000,426178,
4972,724,15308,-669,795,6,-3000,-15000,8000,426180,
4916,788,15220,-733,722,-25,-3000,-14000,8000,426183,
4808,780,15368,-659,721,13,-3000,-14000,8000,426185,
4712,688,15484,-675,463,15,-3000,-14000,8000,426198,
4656,660,15388,-612,492,57,-3000,-14000,8000,426200,
4704,732,15496,-653,426,65,-3000,-14000,8000,426202,
4828,608,15448,-598,278,42,-3000,-14000,8000,426215,
4840,656,15400,-666,242,-20,-3000,-14000,8000,426217,
4948,708,15516,-605,243,13,-3000,-14000,8000,426219,
5020,660,15504,-604,271,-14,-3000,-14000,8000,426221,
4944,620,15320,-554,192,-51,-3000,-14000,8000,426234,
5044,632,15116,-549,240,-63,-3000,-14000,8000,426236,
5020,700,15284,-543,138,-58,-3000,-14000,8000,426239,
4888,672,15360,-461,161,-54,-3000,-14000,8000,426251,
4920,820,15356,-443,79,-51,-3000,-14000,8000,426253,
4968,748,15468,-406,94,-61,-3000,-14000,8000,426256,
5128,804,15276,-428,34,-53,-3000,-14000,8000,426258,
5012,852,15352,-420,47,-95,-3000,-14000,8000,426271,
5076,716,15584,-394,18,-72,-3000,-14000,8000,426273,
5008,744,15552,-400,73,-90,-3000,-14000,8000,426275,
5044,772,15392,-350,57,-90,-3000,-14000,8000,426288,
5036,780,15324,-350,13,-108,-3000,-14000,8000,426290,
5024,740,15328,-311,79,-101,-3000,-14000,8000,426292,
5084,712,15352,-310,-7,-96,-3000,-14000,8000,426295,
5084,724,15428,-339,12,-133,-3000,-15000,8000,426307,
5032,804,15348,-278,49,-142,-3000,-15000,8000,426309,
5032,840,15496,-344,16,-140,-3000,-15000,8000,426312,
5056,816,15364,-297,49,-171,-3000,-15000,8000,426324,
4988,816,15444,-299,114,-165,-3000,-15000,8000,426327,
5004,804,15368,-288,29,-146,-3000,-15000,8000,426329,
4988,736,15384,-301,84,-157,-3000,-15000,8000,426331,
5008,812,15436,-322,-41,-166,-3000,-15000,8000,426344,
4948,804,15356,-293,19,-156,-3000,-15000,8000,426346,
4948,840,15348,-292,-49,-173,-3000,-15000,8000,426348,
4908,856,15452,-304,-79,-119,-3000,-15000,8000,426361,
5016,844,15404,-368,-71,-122,-3000,-15000,8000,426363,
5008,768,15680,-311,-150,-120,-3000,-15000,8000,426365,
5184,728,15484,-399,-74,-106,-3000,-15000,8000,426378,
5124,868,15440,-395,-101,-131,-3000,-15000,8000,426380,
5060,804,15520,-364,-38,-126,-3000,-15000,8000,426382,
5116,856,15496,-366,-20,-81,-3000,-15000,8000,426395,
5056,824,15384,-375,-10,-109,-3000,-15000,8000,426397,
5036,840,15588,-389,-88,-77,-3000,-15000,8000,426399,
5108,848,15396,-359,0,-113,-3000,-15000,8000,426401,
5232,904,15332,-444,-26,-100,-3000,-15000,8000,426414,
5148,908,15412,-395,34,-127,-3000,-15000,7000,426416,
4956,764,15480,-474,53,-115,-3000,-15000,7000,426418,
5208,848,15424,-408,75,-146,-3000,-15000,7000,426431,
5268,804,15248,-473,46,-163,-3000,-15000,7000,426433,
5156,852,15352,-451,76,-142,-3000,-15000,7000,426435,
5100,776,15412,-434,152,-177,-3000,-15000,7000,426448,
5064,728,15448,-448,145,-178,-3000,-15000,7000,426450,
5164,780,15520,-428,199,-189,-3000,-15000,7000,426452,
5048,772,15388,-428,64,-162,-3000,-15000,7000,426465,
5056,796,15244,-427,145,-178,-3000,-15000,7000,426467,
5164,832,15296,-413,105,-158,-3000,-15000,7000,426469,
5100,868,15508,-385,115,-158,-3000,-15000,7000,426472,
5128,740,15460,-404,53,-170,-3000,-15000,7000,426484,
5112,788,15328,-470,33,-150,-3000,-15000,7000,426487,
5176,820,15456,-419,38,-172,-3000,-15000,7000,426489,
5112,912,15392,-471,11,-145,-3000,-15000,7000,426501,
5124,900,15388,-400,90,-155,-3000,-15000,7000,426504,
5148,936,15260,-461,38,-147,-3000,-15000,7000,426506,
5044,788,15464,-412,75,-142,-3000,-15000,7000,426508,
5184,808,15540,-472,143,-168,-3000,-15000,7000,426521,
5180,772,15352,-422,82,-180,-3000,-15000,7000,426523,
5128,784,15356,-430,129,-184,-3000,-15000,7000,426525,
5220,828,15536,-429,125,-186,-3000,-15000,7000,426538,
5188,788,15456,-442,215,-223,-3000,-15000,7000,426540,
5108,744,15480,-450,152,-210,-3000,-15000,7000,426543,
5144,760,15372,-445,290,-271,-3000,-15000,7000,426555,
5164,832,15280,-439,238,-239,-3000,-15000,7000,426557,
5072,888,15372,-419,301,-256,-3000,-15000,7000,426560,
5036,768,15404,-453,224,-212,-3000,-15000,7000,426562,
4924,728,15616,-389,193,-217,-3000,-15000,7000,426575,
4900,796,15324,-454,92,-235,-3000,-15000,7000,426577,
4960,780,15248,-399,168,-206,-3000,-15000,7000,426579,
5012,992,15432,-453,89,-175,-3000,-15000,7000,426592,
5036,876,15436,-421,122,-182,-3000,-15000,7000,426594,
5048,864,15432,-445,89,-211,-3000,-15000,7000,426596,
5084,844,15456,-451,111,-214,-3000,-15000,7000,426609,
5216,988,15528,-490,114,-204,-3000,-15000,7000,426611,
5284,1020,15476,-484,144,-175,-3000,-15000,7000,426613,
5292,912,15404,-591,342,-257,-3000,-15000,7000,426626,
5188,924,15324,-605,296,-275,-3000,-15000,7000,426628,
5204,984,15548,-592,408,-280,-3000,-15000,7000,426630,
5240,1056,15500,-743,513,-350,-3000,-15000,7000,426643,
5352,924,15416,-706,595,-361,-3000,-15000,7000,426645,
5188,880,15308,-771,515,-366,-3000,-15000,7000,426647,
5204,944,15468,-803,672,-387,-3000,-15000,7000,426660,
5188,992,15460,-830,644,-384,-3000,-15000,7000,426662,
5016,896,15468,-848,699,-416,-3000,-15000,7000,426665,
5332,892,15720,-997,823,-426,-3000,-15000,7000,426677,
5360,812,15556,-1058,887,-421,-3000,-15000,7000,426679,
5436,836,15548,-1091,887,-432,-3000,-15000,7000,426682,
5524,1100,15768,-1383,1467,-549,-3000,-15000,7000,426694,
5688,1152,15928,-1462,1557,-598,-3000,-15000,7000,426696,
5736,1200,15964,-1501,1703,-609,-3000,-15000,7000,426699,
5700,1272,15896,-2002,2327,-796,-3000,-14000,7000,426711,
5612,1428,15856,-2066,2488,-848,-3000,-14000,7000,426713,
5600,1324,16040,-2143,2580,-895,-3000,-14000,7000,426716,
5936,1180,16148,-2749,3131,-1050,-3000,-14000,6000,426728,
5804,1152,16144,-2800,3236,-1086,-3000,-14000,6000,426731,
5984,1064,16096,-2945,3326,-1156,-3000,-14000,6000,426733,
5828,1088,16128,-3511,4008,-1412,-4000,-14000,6000,426745,
5724,1076,16248,-3573,4196,-1498,-4000,-13000,6000,426748,
5692,1268,16384,-3764,4288,-1559,-4000,-13000,6000,426750,
5196,1372,16464,-4320,4977,-1936,-4000,-13000,6000,426762,
5144,1372,16668,-4515,4999,-2019,-4000,-13000,6000,426765,
4976,1352,16624,-4555,5106,-2076,-4000,-13000,6000,426767,
4868,1356,16932,-5261,5103,-2340,-5000,-12000,5000,426780,
4744,1388,17132,-5363,5155,-2390,-5000,-12000,5000,426782,
4832,1392,17128,-5524,5091,-2475,-5000,-12000,5000,426784,
4704,1772,18472,-6236,5808,-3031,-5000,-12000,5000,426797,
4668,1816,18712,-6459,5918,-3224,-5000,-12000,5000,426799,
4684,1952,19076,-6554,6088,-3343,-5000,-11000,5000,426801,
3188,1792,22120,-7383,7232,-4114,-6000,-11000,4000,426814,
2888,1972,22184,-7397,7560,-4047,-6000,-11000,4000,426816,
2392,2520,22916,-7313,7876,-3868,-6000,-11000,4000,426818,
1780,2616,23524,-8259,9005,-3526,-7000,-10000,4000,426831,
1624,2552,23600,-8340,8613,-3588,-7000,-10000,4000,426833,
1188,2620,23668,-8407,8030,-3652,-7000,-9000,4000,426835,
-600,2764,22700,-8854,3112,-3459,-8000,-9000,3000,426848,
-668,2712,22452,-8935,2243,-3301,-8000,-9000,3000,426850,
-568,2828,22540,-9114,1101,-3141,-8000,-9000,3000,426853,
1068,3128,21100,-8976,-2836,-2710,-9000,-9000,3000,426865,
1608,2924,20668,-8764,-3025,-2706,-9000,-9000,3000,426867,
2080,2640,20312,-8540,-3000,-2659,-9000,-9000,3000,426870,
4748,204,20816,-6889,-27,-2183,-9000,-9000,2000,426882,
5288,-520,21012,-6433,999,-2059,-10000,-9000,2000,426884,
5456,-1172,21436,-5930,1733,-1885,-10000,-9000,2000,426887,
5520,-1396,20956,-4671,5227,-1133,-10000,-9000,2000,426899,
5144,-1336,21208,-4432,5495,-1001,-10000,-9000,2000,426902,
5052,-1080,21216,-4095,5772,-907,-10000,-9000,2000,426904,
5868,-1408,20152,-2485,7641,-205,-10000,-8000,2000,426916,
6704,-1916,20780,-1971,8237,-267,-10000,-8000,2000,426919,
7224,-2308,21304,-1292,8993,-236,-10000,-8000,2000,426921,
8056,-4424,24536,1695,15060,-760,-10000,-7000,2000,426934,
8008,-4264,25248,2828,15114,-451,-10000,-6000,1000,426936,
7224,-3904,25156,3297,15102,-135,-10000,-6000,1000,426938,
1964,-2312,25560,4919,17238,1425,-10000,-4000,1000,426951,
1496,-1916,25508,5228,16409,1420,-9000,-4000,1000,426953,
948,-1576,25648,5656,15454,1390,-9000,-4000,1000,426955,
-368,-1572,24940,5802,9994,1443,-9000,-3000,1000,426968,
-140,-1832,24972,5961,9065,1554,-9000,-3000,1000,426970,
196,-1940,25040,6122,8313,1644,-8000,-2000,1000,426972,
3184,-2492,24732,6928,6222,1588,-8000,-2000,1000,426985,
3368,-2484,24436,7080,6141,1464,-8000,-2000,1000,426987,
3648,-2432,24520,7302,6107,1401,-8000,-2000,1000,426989,
4080,-2320,23756,7652,6691,1292,-7000,-1000,1000,427002,
4236,-2516,23640,7792,6833,1308,-7000,-1000,1000,427004,
4388,-2620,23736,7874,6979,1320,-7000,-1000,1000,427006,
4644,-2916,22584,8915,8332,1329,-6000,0,1000,427019,
4560,-2848,22488,9062,8578,1323,-6000,0,1000,427021,
4492,-2768,22076,9317,8843,1355,-5000,0,1000,427024,
4384,-2680,21976,9446,9071,1343,-5000,0,1000,427026,
3916,-2132,21336,10027,10323,1273,-4000,0,1000,427039,
3828,-2100,21204,10059,10465,1289,-4000,0,1000,427041,
3880,-1996,21028,10216,10676,1252,-4000,1000,1000,427043,
3584,-2052,20512,10556,11431,1123,-3000,2000,1000,427056,
3500,-2020,20412,10588,11549,1069,-3000,2000,1000,427058,
3488,-2160,20512,10652,11556,1027,-2000,2000,1000,427060,
2916,-2200,19560,11121,11464,874,-1000,3000,2000,427073,
2684,-2304,19496,11154,11336,868,-1000,3000,2000,427075,
2656,-2184,19364,11351,11297,833,-1000,3000,2000,427077,
2424,-2048,18444,11789,10620,761,0,4000,2000,427090,
2352,-2100,18460,11956,10492,722,0,5000,2000,427092,
2316,-2052,18320,11999,10320,700,0,5000,2000,427095,
2348,-2112,17912,12158,10112,683,0,5000,2000,427097,
2180,-1852,16832,12878,9005,430,1000,6000,2000,427109,
2100,-1852,16664,12719,8789,372,1000,6000,2000,427112,
2160,-1560,16572,13038,8594,305,1000,6000,2000,427114,
1944,-1404,15432,13525,7338,238,3000,7000,2000,427126,
1984,-1264,15220,13503,7098,128,3000,7000,2000,427129,
2052,-1156,15100,13432,6884,1,3000,7000,2000,427131,
2004,-956,15080,13527,6722,-171,3000,7000,2000,427133,
1964,-1060,14436,13650,5696,-801,4000,7000,2000,427146,
1972,-1136,14184,13775,5584,-861,5000,7000,2000,427148,
2012,-1232,13984,13809,5330,-961,5000,7000,2000,427150,
1664,-848,12880,14453,4062,-1499,6000,8000,2000,427163,
1476,-516,12396,14630,3802,-1602,6000,8000,2000,427165,
1516,-396,12388,14640,3560,-1695,7000,8000,2000,427167,
1340,560,11480,14529,2361,-2175,8000,8000,1000,427180,
1444,668,11416,14440,2176,-2280,8000,8000,1000,427182,
1500,688,11256,14434,1929,-2418,9000,8000,1000,427184,
1532,720,10704,14184,806,-3235,10000,8000,1000,427197,
1444,744,10564,14218,539,-3378,10000,8000,1000,427199,
1440,640,10636,14242,461,-3456,10000,8000,1000,427201,
1304,664,10568,14238,181,-3585,11000,8000,1000,427204,
1008,712,9984,14259,-999,-4102,12000,8000,0,427216,
888,796,10144,14384,-1333,-4210,12000,8000,0,427219,
868,992,10032,14388,-1483,-4272,12000,8000,0,427221,
948,2240,9480,14138,-2636,-4737,14000,8000,0,427233,
1168,2196,9468,13976,-2677,-4814,14000,8000,0,427236,
1184,2440,9460,13955,-2832,-4967,14000,8000,0,427238,
1236,2732,9392,13845,-2882,-5071,14000,8000,359000,427240,
1480,3004,9120,12959,-3019,-5762,15000,7000,359000,427253,
1468,2852,8996,12897,-2916,-5913,16000,7000,359000,427255,
1480,2788,9032,13004,-3019,-6054,16000,7000,359000,427257,
1320,3084,8732,12557,-2753,-6440,17000,7000,358000,427270,
1188,3148,8608,12432,-2676,-6512,17000,7000,358000,427272,
1120,3304,8412,12437,-2645,-6559,17000,7000,358000,427275,
904,3908,8096,11768,-2635,-7031,18000,7000,357000,427287,
880,3824,7996,11728,-2647,-7092,19000,7000,357000,427289,
848,3868,8152,11591,-2668,-7185,19000,7000,357000,427292,
568,4244,7884,11134,-3055,-7561,20000,7000,356000,427304,
508,4208,7748,11089,-3206,-7659,20000,7000,356000,427306,
480,4192,7932,10978,-3230,-7743,20000,7000,356000,427309,
480,4212,7504,10620,-3996,-8344,21000,7000,355000,427321,
476,4316,7416,10545,-4041,-8425,21000,7000,355000,427323,
372,4400,7416,10498,-4228,-8552,22000,7000,354000,427326,
472,4712,7096,10063,-4870,-9122,22000,6000,353000,427338,
416,4544,7108,9980,-4821,-9155,23000,6000,353000,427340,
584,4472,7164,9778,-4769,-9140,23000,6000,353000,427343,
700,5272,6984,9396,-5018,-10133,24000,6000,352000,427355,
832,5340,6888,9213,-4872,-10296,24000,6000,352000,427358,
844,5436,6904,9081,-4821,-10417,24000,6000,352000,427360,
776,5588,7332,8280,-4084,-11193,25000,6000,350000,427372,
744,5540,7304,8203,-3948,-11355,25000,6000,350000,427375,
724,5576,7108,7931,-3820,-11361,25000,6000,350000,427377,
440,5892,6972,7341,-3166,-12108,26000,6000,349000,427389,
224,6032,6884,7082,-2985,-12297,26000,6000,349000,427392,
160,6104,7028,6960,-2782,-12418,26000,7000,348000,427394,
-508,6204,7744,6219,-1629,-13063,26000,7000,347000,427407,
-588,6148,7856,6120,-1466,-13092,26000,7000,347000,427409,
-648,6148,7900,5948,-1322,-13276,27000,7000,347000,427411,
-1308,5964,7736,5533,-841,-13568,27000,8000,346000,427424,
-1508,6132,7872,5452,-860,-13633,27000,8000,345000,427426,
-1596,6320,7628,5437,-804,-13683,27000,8000,345000,427428,
-2380,6364,7512,4924,-1088,-14081,27000,8000,344000,427441,
-2340,6348,7740,4920,-1144,-14179,28000,8000,344000,427443,
-2136,6396,7548,4867,-884,-14280,28000,9000,343000,427445,
-3100,6728,8428,4375,-1883,-14246,28000,9000,342000,427458,
-3064,6948,7952,4234,-1828,-14220,28000,9000,342000,427460,
-3128,6904,8096,4205,-2036,-14277,28000,9000,342000,427463,
-3116,6996,8520,3659,-2003,-14649,28000,10000,340000,427475,
-3188,6840,8696,3574,-2025,-14725,28000,10000,340000,427478,
-3228,6792,8724,3419,-1882,-14750,28000,10000,340000,427480,
-3748,6460,9172,2948,-1443,-14955,28000,11000,338000,427492,
-3804,6324,9388,2821,-1397,-15010,28000,11000,338000,427495,
-3984,6260,9220,2826,-1263,-15045,28000,11000,338000,427497,
-4504,5660,9388,2598,-922,-14981,28000,12000,337000,427510,
-4720,5628,9404,2583,-857,-14982,28000,12000,336000,427512,
-4804,5580,9324,2634,-896,-14916,28000,12000,336000,427514,
-5684,5232,8868,2485,-1297,-14891,28000,13000,335000,427527,
-5752,5140,8760,2537,-1443,-14866,28000,13000,335000,427529,
-5848,5232,8752,2476,-1591,-14818,28000,13000,334000,427531,
-6320,5868,8952,2442,-2272,-14594,28000,13000,333000,427544,
-6376,6000,8936,2290,-2432,-14639,28000,13000,333000,427546,
-6276,6108,9128,2244,-2539,-14664,28000,14000,332000,427549,
-5956,5828,10212,1616,-2752,-15056,28000,14000,331000,427561,
-5908,5576,10324,1578,-2645,-15055,28000,14000,331000,427564,
-5832,5340,10532,1488,-2572,-15080,28000,14000,330000,427566,
-6088,4760,11388,1405,-1438,-15238,28000,15000,329000,427578,
-6256,4628,11468,1322,-1221,-15263,28000,15000,329000,427581,
-7692,4124,11320,1050,-631,-15279,27000,16000,327000,427593,
-8248,3748,11580,965,-803,-15239,27000,16000,327000,427595,
-8476,3680,11616,1102,-1122,-15173,27000,16000,327000,427598,
-9832,2956,10900,1212,-3016,-14475,27000,17000,325000,427610,
-9924,2900,10904,1313,-3407,-14321,27000,17000,325000,427612,
-10004,3128,10916,1412,-3716,-14057,27000,17000,325000,427615,
-9840,4468,10848,1108,-5416,-13043,26000,17000,324000,427627,
-9776,4656,10716,1057,-5638,-12905,26000,17000,323000,427630,
-9636,4676,10636,862,-5925,-12827,26000,17000,323000,427632,
-8848,4252,11060,322,-6481,-12160,26000,17000,322000,427644,
-8672,4164,11108,192,-6476,-12051,26000,17000,321000,427647,
-8404,4208,11260,152,-6401,-11858,26000,17000,321000,427649,
-7828,4156,11088,-294,-5486,-11294,25000,17000,320000,427661,
-7920,4188,11132,-418,-5100,-11153,25000,17000,320000,427664,
-8780,3724,10960,-984,-4150,-10631,25000,17000,318000,427676,
-8992,3712,10900,-1035,-3983,-10473,24000,18000,318000,427679,
-9100,3592,10592,-1167,-4039,-10313,24000,18000,318000,427681,
-9612,3708,9940,-1412,-4368,-9307,24000,18000,317000,427693,
-9668,3760,9840,-1517,-4493,-9158,24000,18000,317000,427696,
-9812,4188,9800,-1550,-4522,-8948,24000,18000,317000,427698,
-9700,5212,9868,-2457,-5039,-8390,23000,18000,316000,427711,
-9728,5320,9904,-2643,-5000,-8289,23000,18000,315000,427713,
-9564,5360,10024,-2919,-5120,-8254,23000,18000,315000,427715,
-9232,5104,10016,-3970,-4848,-7626,22000,18000,314000,427728,
-9092,4968,10052,-4245,-4826,-7529,22000,18000,314000,427730,
-8924,4928,10208,-4366,-4665,-7394,22000,18000,314000,427732,
-8636,4548,9860,-5413,-4004,-6956,21000,18000,313000,427745,
-8492,4468,9772,-5565,-3828,-6857,21000,18000,313000,427747,
-8732,3792,9984,-6400,-3129,-6142,20000,18000,312000,427760,
-8888,3812,9828,-6461,-2981,-5985,20000,18000,312000,427762,
-8848,3740,9916,-6591,-2863,-5837,20000,18000,312000,427764,
-9404,4252,9908,-7315,-2561,-5090,19000,18000,312000,427777,
-9468,4248,9936,-7485,-2485,-4935,19000,18000,312000,427779,
-9536,4372,10148,-7646,-2451,-4830,19000,18000,311000,427782,
-9536,5012,10612,-8696,-2151,-4118,18000,18000,311000,427794,
-9384,4972,10736,-8833,-2002,-4004,18000,18000,311000,427796,
-9412,4892,10700,-9096,-1987,-3886,18000,18000,311000,427799,
-9352,4192,10932,-9893,-1467,-3211,16000,18000,310000,427811,
-9276,4032,11112,-10094,-1494,-3058,16000,18000,310000,427814,
-9268,3964,11068,-10112,-1334,-2883,16000,18000,310000,427816,
-9648,3192,11424,-10698,-1248,-2050,15000,18000,310000,427828,
-9576,3060,11500,-10695,-1202,-1903,15000,18000,310000,427831,
-10248,2808,12160,-10870,-1784,-913,14000,18000,310000,427843,
-10188,2744,12036,-10833,-1844,-720,13000,18000,310000,427846,
-10128,2876,12176,-10909,-2044,-514,13000,18000,310000,427848,
-10196,3292,13180,-10913,-2360,465,12000,18000,310000,427861,
-10144,3300,13200,-10988,-2445,624,12000,18000,310000,427863,
-10032,3484,13324,-10960,-2360,790,12000,18000,310000,427865,
-10172,3752,14064,-11220,-1960,1682,11000,18000,310000,427878,
-10156,3776,14284,-11219,-1837,1847,11000,18000,310000,427880,
-10004,3840,14268,-11307,-1780,1987,10000,18000,310000,427882,
-10344,3436,14644,-11510,-1274,3069,9000,18000,310000,427895,
-10328,3332,14784,-11496,-1219,3260,9000,18000,310000,427897,
-11092,2924,14732,-11439,-1023,4004,8000,18000,311000,427910,
-11332,2808,14716,-11394,-934,4399,8000,18000,311000,427912,
-11628,2836,14700,-11522,-994,4804,8000,18000,311000,427915,
-11368,2772,15260,-11158,-1629,6540,7000,18000,312000,427927,
-11260,2920,15424,-11130,-1760,6837,7000,18000,312000,427930,
-11112,3140,15544,-11058,-1778,7047,7000,18000,312000,427932,
-10064,3468,15980,-11321,-1821,8218,6000,17000,313000,427944,
-9928,3364,16004,-11395,-1771,8352,6000,17000,313000,427947,
-9624,3192,15936,-11436,-1745,8522,6000,17000,313000,427949,
-9100,1976,17252,-11562,-1586,9281,5000,17000,314000,427962,
-9092,1760,17488,-11258,-1421,9479,5000,17000,314000,427964,
-9084,1716,17380,-11136,-1429,9690,5000,17000,314000,427966,
-8868,988,17860,-10689,-1329,10633,4000,17000,315000,427979,
-8664,1072,17816,-10519,-1481,10817,4000,17000,315000,427981,
-8508,1184,17720,-10287,-1358,10949,4000,17000,316000,427983,
-8164,1180,18040,-9938,-1914,11809,3000,17000,317000,427996,
-8108,1204,18036,-9791,-1929,11875,3000,17000,317000,427998,
-8080,1408,18076,-9814,-2078,11948,3000,17000,317000,428001,
-7268,1604,18452,-9191,-2430,12578,2000,16000,319000,428013,
-6984,1636,18284,-9176,-2492,12653,2000,16000,319000,428016,
-5932,1496,18872,-8895,-2112,13155,2000,16000,320000,428028,
-5816,1392,18984,-8828,-2101,13177,2000,16000,320000,428030,
-5676,1436,18864,-8652,-1917,13164,1000,16000,321000,428033,
-5136,1400,19044,-8081,-1469,13582,1000,16000,322000,428045,
-5076,1376,19032,-7925,-1341,13623,1000,16000,322000,428048,
-5004,1512,19100,-7842,-1281,13749,1000,16000,322000,428050,
-4568,2012,19148,-7487,-804,13985,1000,16000,324000,428062,
-4360,2136,19116,-7405,-637,14015,1000,15000,324000,428065,
-4224,2104,19288,-7393,-494,14036,1000,15000,324000,428067,
-3492,2064,19568,-7256,134,14079,0,15000,326000,428080,
-3396,1876,19604,-7137,290,14063,0,15000,326000,428082,
-3184,1996,19660,-7066,368,14019,0,15000,326000,428084,
-2780,1788,19784,-6570,939,14061,0,15000,328000,428097,
-2784,1768,19672,-6544,971,14038,0,15000,328000,428099,
-2744,1776,19628,-6382,1020,14013,0,15000,328000,428101,
-2264,1912,19340,-5999,928,13846,0,15000,330000,428114,
-2372,1848,19268,-5944,914,13764,0,15000,330000,428116,
-2232,1840,19268,-5908,923,13715,0,16000,330000,428119,
-1416,1456,19372,-5407,725,13327,0,15000,331000,428131,
-1280,1448,19368,-5382,595,13318,0,15000,332000,428133,
-1296,1456,19280,-5194,641,13157,0,15000,332000,428136,
-700,1232,19408,-4470,538,12749,0,15000,333000,428148,
-516,1132,19664,-4276,569,12437,0,15000,333000,428151,
-416,1188,19472,-4141,611,12449,0,15000,334000,428153,
-340,1224,19516,-3971,627,12446,0,15000,334000,428155,
32,1232,19236,-3212,773,11858,0,15000,335000,428168,
104,1212,19188,-3021,762,11739,0,15000,335000,428170,
52,1196,19108,-2952,769,11587,0,15000,336000,428172,
60,1468,18744,-2178,862,10847,0,15000,337000,428185,
-16,1484,18728,-2082,760,10771,0,15000,337000,428187,
44,1600,18548,-1923,804,10581,0,15000,337000,428189,
104,1552,18352,-1846,653,10486,0,15000,337000,428192,
200,1700,17864,-1269,433,9894,0,15000,338000,428204,
276,1756,17720,-1193,350,9749,0,15000,338000,428206,
292,1728,17664,-1081,350,9633,0,15000,339000,428209,
720,1656,17280,-673,385,8890,0,15000,339000,428221,
736,1820,17228,-583,447,8778,0,15000,340000,428223,
744,1876,17184,-499,586,8588,0,15000,340000,428226,
784,1832,16988,-473,616,8487,0,15000,340000,428228,
744,1956,16860,-129,1226,7647,0,15000,341000,428240,
664,2024,16924,-58,1257,7513,1000,15000,341000,428243,
756,1896,16808,-10,1394,7390,1000,15000,341000,428245,
260,2144,16460,275,1540,6683,1000,15000,342000,428257,
248,2120,16408,307,1565,6518,1000,15000,342000,428260,
76,2200,16256,364,1520,6423,1000,15000,342000,428262,
-36,2172,16184,400,1502,6238,1000,15000,342000,428264,
-432,2196,15932,699,1233,5580,1000,15000,343000,428277,
-432,2240,15968,666,1157,5478,1000,15000,343000,428279,
-568,2340,15812,742,1084,5335,1000,15000,343000,428282,
-700,2556,15504,768,808,4713,2000,15000,343000,428294,
-744,2744,15372,845,887,4616,2000,15000,343000,428296,
-700,2728,15352,784,846,4494,2000,15000,343000,428299,
-768,2988,15264,805,1120,3838,2000,15000,344000,428311,
-828,2872,15320,747,1091,3707,2000,15000,344000,428313,
-784,2804,15252,775,1238,3600,2000,15000,344000,428316,
-1184,2812,15092,697,1453,3114,2000,15000,344000,428328,
-1344,2856,14988,743,1501,3002,2000,15000,344000,428331,
-1364,2940,15172,726,1488,2938,2000,15000,344000,428333,
-1956,2944,14916,820,1251,2556,2000,15000,345000,428345,
-1936,2896,14876,797,1216,2508,2000,15000,345000,428348,
