Ax,Ay,Az,Gx,Gy,Gz,Roll,Pitch,Yaw,Timestamp,Target
-3064,3180,15852,-1077,1549,441,5000,14000,100000,1266723,
-3156,2984,15596,-1217,1270,537,5000,14000,100000,1266736,
-3208,3144,15592,-1081,1282,607,5000,14000,100000,1266738,
-3088,3104,15680,-1215,1182,599,5000,14000,100000,1266740,
-2808,3180,15760,-1097,1156,758,5000,14000,101000,1266753,
-2852,3364,15652,-1226,1063,796,5000,14000,101000,1266755,
-3000,3248,15776,-1139,1126,846,5000,14000,101000,1266757,
-2728,3308,15788,-1242,1089,872,5000,14000,101000,1266770,
-2596,3376,15828,-1098,1170,864,5000,14000,101000,1266772,
-2868,3176,15656,-1207,1088,958,5000,14000,101000,1266784,
-2880,3240,15740,-1133,1117,972,5000,14000,101000,1266786,
-3000,3408,15884,-1174,1055,1035,5000,14000,101000,1266789,
-2796,3256,15808,-1138,1064,1165,5000,14000,101000,1266801,
-2940,3324,15780,-1146,1063,1236,5000,14000,101000,1266804,
-2816,3336,15776,-1127,1058,1223,5000,14000,101000,1266806,
-3120,3192,15868,-1011,1018,1316,5000,424,15196,-610,
-3192,3252,15972,-966,1017,1375,5000,14000,101000,1266823,
-2944,3268,16184,-994,853,1479,5000,14000,101000,1266835,
-2808,3376,16112,-845,980,1524,5000,14000,101000,1266838,
-2880,3316,16204,-949,904,1522,5000,14000,101000,1266840,
-2812,3216,16324,-716,1040,1689,5000,14000,102000,1266852,
-2812,3280,16224,-767,1060,1731,5000,14000,102000,1266855,
-2652,3304,16212,-681,1084,1727,5000,14000,102000,1266857,
-2356,3388,16388,-548,1138,1896,5000,14000,102000,1266870,
-2396,3344,16388,-529,1112,1875,5000,14000,102000,1266872,
-2448,3260,16356,-515,1140,1956,5000,14000,102000,1266874,
-2160,3308,16424,-350,1215,1963,5000,14000,102000,1266887,
-2188,3316,16288,-215,1286,1990,5000,14000,102000,1266889,
-2096,3268,16368,-252,1258,1963,5000,14000,102000,1266891,
-1916,3268,16148,31,1352,1874,5000,14000,102000,1266904,
-2084,3192,16124,-58,1294,1795,5000,14000,103000,1266906,
-2036,3104,16116,77,1354,1789,5000,14000,103000,1266908,
-1884,3184,16064,97,1486,1540,5000,15000,103000,1266920,
-1732,3180,16068,268,1556,1521,5000,15000,103000,1266923,
-1784,3224,16132,163,1542,1480,5000,15000,103000,1266925,
-2112,2960,16020,467,1711,1262,5000,15000,103000,1266937,
-2112,2944,16024,398,1669,1262,5000,15000,103000,1266940,
-2008,2988,16000,516,1718,1193,5000,15000,103000,1266942,
-1776,3124,15816,538,1745,977,5000,15000,103000,1266954,
-1692,3076,15828,591,1790,920,5000,15000,103000,1266957,
-1892,3060,15912,542,1827,930,6000,15000,103000,1266959,
-1648,3084,15588,562,2109,766,6000,15000,103000,1266971,
-1688,3080,15516,637,2224,781,6000,15000,103000,1266974,
-1480,3024,15544,568,2222,700,6000,15000,103000,1266976,
-1596,3232,15416,605,2531,653,6000,15000,103000,1266988,
-1876,3160,15300,484,2483,651,6000,15000,103000,1266991,
-1768,3184,15336,571,2531,658,6000,15000,103000,1266993,
-1900,3368,15236,305,2381,568,6000,15000,104000,1267005,
-1848,3360,15132,403,2395,532,6000,15000,104000,1267008,
-1816,3372,15144,204,2284,478,6000,16000,104000,1267010,
-2200,3304,14884,117,1986,333,6000,16000,104000,1267022,
-2184,3284,14948,-9,1878,346,6000,16000,104000,1267025,
-2232,3368,14960,31,1832,296,6000,16000,104000,1267027,
-2124,3424,15028,-262,1449,202,6000,16000,104000,1267039,
-2140,3396,14964,-332,1353,154,6000,16000,104000,1267042,
-2124,3456,14736,-367,1317,151,6000,16000,104000,1267044,
-2412,3348,14944,-663,919,8,6000,16000,104000,1267056,
-2464,3460,15060,-562,927,15,6000,16000,104000,1267059,
-2368,3280,15068,-711,786,-35,6000,16000,104000,1267061,
-2248,3432,14888,-798,576,-129,6000,16000,104000,1267073,
-2200,3348,14836,-971,503,-186,6000,16000,104000,1267076,
-2292,3292,15036,-874,567,-166,6000,16000,104000,1267078,
-2312,3272,14708,-1211,543,-336,6000,16000,104000,1267090,
-2168,3348,14680,-1100,638,-376,6000,16000,104000,1267093,
-2140,3388,14884,-1275,616,-370,6000,16000,104000,1267095,
-2268,3116,14660,-1367,824,-483,6000,16000,104000,1267107,
-2216,3196,14828,-1482,872,-479,6000,16000,104000,1267110,
-2364,3112,14896,-1399,906,-509,6000,16000,104000,1267112,
-2388,2964,14856,-1643,1041,-517,6000,16000,104000,1267124,
-2312,2944,14964,-1579,1060,-543,6000,16000,104000,1267127,
-2436,2928,15044,-1678,1026,-536,6000,16000,104000,1267129,
-2624,2736,15132,-1802,903,-668,5000,16000,104000,1267141,
-2672,2732,15112,-1767,895,-633,5000,16000,104000,1267144,
-2656,2788,15136,-1753,802,-678,5000,16000,104000,1267146,
-2700,2608,15760,-1712,619,-578,5000,16000,104000,1267158,
-2728,2484,15712,-1797,524,-598,5000,16000,104000,1267161,
-2732,2596,15616,-1708,576,-535,5000,16000,104000,1267163,
-3140,2760,15784,-1867,493,-373,5000,16000,103000,1267175,
-3064,2780,15716,-1704,584,-351,5000,16000,103000,1267178,
-3108,2908,15740,-1870,566,-335,5000,16000,103000,1267180,
-3544,2772,15720,-1744,583,-201,5000,16000,103000,1267192,
-3520,2832,15688,-1851,489,-173,5000,16000,103000,1267195,
-3728,2728,15836,-1724,488,-128,5000,16000,103000,1267197,
-3956,2828,15892,-1852,4,-98,5000,16000,103000,1267209,
-3808,2872,15892,-1793,-51,-128,5000,16000,103000,1267212,
-3772,2848,15876,-1885,-143,-53,5000,16000,103000,1267214,
-3584,2840,16128,-1833,-595,-125,4000,16000,103000,1267226,
-3500,2696,16220,-1752,-601,-97,4000,16000,103000,1267229,
-3464,2768,16216,-1790,-698,-169,4000,16000,103000,1267231,
-2664,2948,16216,-1579,-593,-273,4000,16000,103000,1267243,
-2668,2872,16300,-1701,-658,-311,4000,16000,103000,1267246,
-2452,2888,16284,-1560,-531,-305,4000,16000,103000,1267248,
-2396,2776,16556,-1478,-123,-433,4000,16000,103000,1267260,
-2496,2816,16604,-1237,24,-448,4000,16000,103000,1267263,
-2372,2780,16520,-1373,76,-463,4000,16000,103000,1267265,
-2344,2772,16652,-981,630,-498,4000,16000,103000,1267278,
-2364,2804,16480,-1056,663,-519,4000,16000,103000,1267280,
-2464,2796,16676,-901,784,-515,4000,16000,103000,1267282,
-2792,2808,16704,-780,1048,-672,4000,16000,103000,1267295,
-2832,2896,16520,-642,1064,-710,4000,16000,103000,1267297,
-2728,2868,16528,-706,1036,-747,4000,16000,103000,1267299,
-2896,2916,16356,-508,1047,-844,4000,16000,103000,1267311,
-3156,2928,16376,-473,1040,-798,4000,16000,103000,1267314,
-3076,2876,16444,-428,1005,-842,4000,16000,103000,1267316,
-3016,2856,16220,-253,837,-924,4000,16000,103000,1267328,
-2976,2860,16240,-295,763,-1013,4000,16000,103000,1267331,
-2940,2996,16364,-231,783,-962,4000,16000,103000,1267333,
-2936,2876,16156,-166,774,-1036,4000,16000,103000,1267345,
-3104,2868,16128,-49,890,-987,4000,16000,103000,1267348,
-2984,3020,16200,-146,834,-1026,4000,16000,103000,1267350,
-3072,3020,15996,83,975,-952,4000,16000,103000,1267363,
-3068,3124,15868,-76,946,-907,4000,16000,103000,1267365,
-3124,2932,16180,47,982,-913,4000,16000,103000,1267367,
-3340,3084,16036,-30,861,-853,4000,16000,103000,1267379,
-3232,3116,15920,-26,886,-881,4000,16000,103000,1267382,
-3232,3120,15952,-78,837,-870,4000,16000,103000,1267384,
-3120,3188,15996,-84,807,-911,4000,16000,103000,1267396,
-3144,2988,15988,-82,866,-824,4000,16000,103000,1267399,
-3296,3064,15936,-86,862,-901,4000,16000,103000,1267401,
-3328,3156,15808,-77,1204,-714,4000,16000,103000,1267413,
-3276,3352,15916,-192,1186,-762,4000,16000,103000,1267416,
-3236,3152,16000,-117,1339,-701,4000,16000,103000,1267418,
-3408,3192,15588,-270,1674,-732,4000,17000,103000,1267430,
-3476,3128,15580,-205,1754,-701,4000,17000,103000,1267433,
-3528,3084,15296,-372,1692,-735,4000,17000,103000,1267435,
-3480,3272,15212,-281,1709,-731,4000,17000,102000,1267447,
-3492,3240,15308,-389,1609,-736,4000,17000,102000,1267450,
-3628,3256,15052,-288,1564,-735,4000,17000,102000,1267452,
-4172,3180,15156,-531,1066,-730,4000,17000,102000,1267464,
-4168,3116,15224,-531,936,-770,4000,17000,102000,1267467,
-4224,3120,15104,-573,799,-726,4000,17000,102000,1267469,
-4236,3216,15300,-730,-179,-836,4000,17000,102000,1267481,
-4224,3140,15356,-680,-299,-787,4000,17000,102000,1267484,
-4168,3144,15364,-780,-488,-835,4000,17000,102000,1267486,
-4020,3084,15720,-732,-925,-868,4000,17000,102000,1267498,
-3796,3152,15576,-903,-995,-879,4000,17000,102000,1267501,
-3812,3168,15596,-790,-963,-846,4000,17000,102000,1267503,
-3368,3140,15968,-830,-866,-855,4000,17000,102000,1267515,
-3512,2932,16164,-719,-742,-829,4000,17000,102000,1267518,
-3520,3100,16120,-781,-690,-822,4000,17000,102000,1267520,
-3560,2940,16104,-621,-144,-749,4000,17000,102000,1267532,
-3516,2944,15964,-563,-50,-646,4000,17000,102000,1267535,
-3472,2984,16128,-596,3,-678,4000,17000,102000,1267537,
-3740,3084,15880,-381,331,-461,4000,17000,102000,1267549,
-3768,3076,15988,-540,291,-520,4000,17000,102000,1267552,
-3808,3008,15896,-404,379,-463,4000,17000,102000,1267554,
-3756,3092,15876,-507,385,-428,3000,17000,102000,1267566,
-3728,2948,15820,-389,420,-471,3000,17000,102000,1267569,
-3696,3044,15876,-491,356,-438,3000,17000,102000,1267571,
-4068,2876,15860,-396,95,-411,3000,17000,102000,1267583,
-4212,2936,15820,-429,49,-363,3000,17000,102000,1267585,
-3992,2952,15844,-380,-29,-386,3000,17000,102000,1267588,
-3808,2880,16200,-407,-435,-320,3000,17000,102000,1267600,
-3892,2848,16136,-443,-536,-328,3000,17000,102000,1267603,
-3892,2864,16036,-403,-592,-307,3000,17000,102000,1267605,
-3984,2660,16128,-449,-910,-298,3000,16000,102000,1267617,
-3932,2736,16096,-335,-885,-253,3000,16000,102000,1267620,
-3648,2860,16040,-423,-1002,-272,3000,16000,102000,1267622,
-3516,2752,16040,-318,-962,-170,3000,16000,102000,1267634,
-3464,2708,16080,-440,-1033,-169,3000,16000,102000,1267637,
-3520,2712,15988,-333,-935,-121,3000,16000,102000,1267639,
-3292,2672,16136,-369,-656,-17,3000,16000,102000,1267651,
-3116,2748,16120,-177,-525,7,3000,16000,102000,1267654,
-3124,2780,15972,-315,-466,36,3000,16000,102000,1267656,
-3312,2736,16068,-116,-56,93,3000,16000,102000,1267668,
-3412,2724,16128,-203,-39,125,3000,16000,102000,1267671,
-3448,2748,15992,-104,-17,88,3000,16000,102000,1267673,
-3456,2852,15840,-54,-76,155,4000,16000,102000,1267685,
-3428,2780,16064,-117,-140,103,4000,16000,102000,1267688,
-3404,2764,15952,-46,-138,98,4000,16000,102000,1267690,
-3532,2732,15968,-52,-439,19,4000,16000,102000,1267702,
-3488,2852,15876,61,-408,28,4000,16000,102000,1267705,
-3248,2932,16008,-27,-509,15,4000,16000,102000,1267707,
-3072,2964,15768,163,-663,-40,4000,16000,102000,1267720,
-3140,2876,15748,0,-708,-108,4000,16000,102000,1267722,
-3176,2916,15760,163,-648,-63,4000,16000,102000,1267724,
-3108,2988,15748,71,-601,-131,4000,16000,102000,1267736,
-2928,3004,15764,223,-533,-129,4000,16000,102000,1267739,
-2972,3048,15780,69,-524,-179,4000,16000,102000,1267741,
-2904,3036,15740,256,-228,-254,4000,16000,102000,1267753,
-2848,3076,15692,168,-256,-282,4000,16000,102000,1267756,
-3032,2980,15848,275,-134,-284,4000,16000,102000,1267758,
-2856,3348,15740,295,107,-336,4000,16000,102000,1267770,
-2796,3156,15692,289,135,-420,4000,16000,102000,1267773,
-2792,3156,15688,264,141,-384,4000,16000,102000,1267775,
-3228,3336,15488,301,166,-460,4000,16000,102000,1267787,
-3368,3220,15564,318,166,-446,4000,16000,102000,1267790,
-3256,3244,15524,264,87,-478,4000,16000,102000,1267792,
-3232,3208,15344,291,-57,-482,4000,16000,102000,1267804,
-3252,3236,15408,138,-175,-524,4000,15000,102000,1267807,
-3324,3224,15356,299,-186,-566,4000,15000,102000,1267809,
-3392,3360,15160,26,-514,-614,4000,15000,102000,1267821,
-3260,3388,15264,101,-534,-630,4000,15000,102000,1267824,
-3272,3428,15352,-30,-578,-612,4000,15000,102000,1267826,
-3172,3200,15284,-77,-595,-717,4000,15000,102000,1267838,
-3256,3100,15264,-77,-545,-680,4000,15000,102000,1267840,
-3424,3100,15332,-27,-546,-691,4000,15000,102000,1267843,
-3384,3164,15352,-93,-445,-587,4000,15000,102000,1267855,
-3356,3208,15448,-81,-442,-597,4000,15000,102000,1267857,
-3348,3256,15296,-160,-420,-488,4000,15000,102000,1267860,
-3308,3296,15264,-200,-579,-577,4000,15000,101000,1267872,
-3356,3164,15212,-199,-559,-523,4000,15000,101000,1267874,
-3332,3172,15192,-221,-655,-569,4000,15000,101000,1267876,
-3328,3000,15368,-192,-611,-510,4000,15000,101000,1267889,
-3204,3100,15348,-326,-674,-513,4000,15000,101000,1267891,
-3200,3136,15300,-215,-605,-450,4000,15000,101000,1267893,
-3116,3164,15408,-348,-570,-298,4000,15000,101000,1267906,
-3224,3136,15300,-237,-528,-295,4000,15000,101000,1267908,
-3180,3156,15420,-395,-595,-262,4000,15000,101000,1267910,
-3244,2860,15556,-321,-637,-292,4000,15000,101000,1267923,
-3256,2952,15668,-409,-698,-289,4000,15000,101000,1267925,
-3496,2740,15604,-283,-697,-290,4000,15000,101000,1267928,
-3284,2772,15672,-416,-866,-217,4000,15000,101000,1267940,
-3280,2856,15620,-334,-890,-221,4000,15000,101000,1267942,
-3212,2908,15600,-429,-893,-202,4000,15000,101000,1267944,
-3088,2788,15616,-407,-906,-165,4000,15000,101000,1267957,
-3120,2856,15512,-418,-895,-165,4000,15000,101000,1267959,
-3176,2780,15608,-341,-897,-179,4000,15000,101000,1267961,
-2960,2832,15744,-313,-787,-57,4000,14000,101000,1267974,
-2944,2920,15704,-368,-847,-88,4000,14000,101000,1267976,
-2912,2964,15692,-334,-793,-25,4000,14000,101000,1267978,
-2908,2960,15644,-431,-855,-15,4000,14000,101000,1267991,
-3052,2864,15636,-297,-838,-2,4000,14000,101000,1267993,
-3064,2896,15764,-421,-910,-13,4000,14000,101000,1267995,
-2988,2852,15576,-275,-959,-60,4000,14000,101000,1268008,
-2696,2924,15752,-416,-1046,-25,4000,14000,101000,1268010,
-2768,2912,15552,-237,-970,-40,4000,14000,101000,1268012,
-2692,3012,15916,-287,-972,17,4000,14000,101000,1268025,
-2884,3032,15940,-215,-936,19,4000,14000,101000,1268027,
-2664,3132,16020,-304,-923,52,4000,14000,101000,1268029,
-2676,3272,15672,-346,-779,-6,4000,14000,101000,1268042,
-2696,3372,15848,-329,-723,-19,4000,14000,101000,1268044,
-2764,3208,15824,-259,-713,-24,4000,14000,101000,1268046,
-2608,3316,15672,-232,-543,-69,4000,14000,101000,1268059,
-2704,3316,15644,-287,-627,-92,4000,14000,101000,1268061,
-2592,3380,15684,-258,-612,-91,4000,14000,101000,1268063,
-2504,3432,15640,-362,-795,-191,4000,14000,101000,1268076,
-2644,3436,15696,-275,-740,-188,4000,14000,101000,1268078,
-2660,3396,15824,-347,-805,-197,4000,13000,101000,1268080,
-2716,3424,15680,-239,-707,-92,4000,13000,101000,1268093,
-2592,3452,15764,-410,-723,-82,4000,13000,101000,1268095,
-2456,3300,15952,-250,-685,-72,4000,13000,101000,1268097,
-2360,3372,15748,-337,-633,-43,4000,13000,101000,1268110,
-2696,3348,15856,-243,-610,-42,4000,13000,101000,1268112,
-2632,3340,15816,-330,-579,-23,4000,13000,101000,1268114,
-2468,3252,15916,-318,-434,-32,4000,13000,101000,1268127,
-2268,3360,15900,-179,-353,-38,4000,13000,101000,1268129,
-2372,3304,15960,-232,-370,-42,4000,13000,101000,1268131,
-2352,3372,15768,-24,-206,25,4000,13000,101000,1268144,
-2524,3360,15604,-144,-265,-6,4000,13000,101000,1268146,
-2460,3356,15640,-2,-232,5,4000,13000,101000,1268148,
-2560,3512,15248,-118,-357,-66,4000,13000,101000,1268161,
-2672,3604,15404,31,-327,-37,4000,13000,101000,1268163,
-2624,3584,15308,-150,-359,-98,4000,13000,101000,1268166,
-2420,3612,15340,-97,-443,-224,4000,13000,101000,1268178,
-2428,3640,15248,-133,-453,-154,4000,13000,101000,1268180,
-2252,3596,15340,-80,-430,-197,4000,13000,101000,1268183,
-2340,3656,15164,-137,-361,-222,4000,13000,101000,1268195,
-2356,3612,15300,-153,-397,-279,4000,13000,101000,1268197,
-2336,3668,15056,-186,-398,-274,4000,13000,101000,1268200,
-2364,3660,15004,-234,-198,-320,5000,13000,101000,1268212,
-2260,3692,15332,-170,-159,-303,5000,13000,101000,1268214,
-2312,3656,15156,-235,-169,-362,5000,13000,101000,1268217,
-2676,3672,15156,-207,85,-373,5000,13000,101000,1268229,
-2508,3780,15080,-355,58,-428,5000,13000,101000,1268231,
-2564,3744,15240,-237,133,-407,5000,13000,101000,1268234,
-2712,3556,15244,-341,242,-426,5000,13000,101000,1268246,
-2912,3492,15216,-270,224,-427,5000,13000,101000,1268248,
-2964,3564,15248,-399,157,-423,5000,13000,101000,1268251,
-3068,3380,14864,-424,43,-515,5000,13000,101000,1268263,
-3272,3556,15412,-741,-343,-282,5000,13000,101000,1268316,
-3340,3508,15332,-640,-329,-300,5000,13000,101000,1268319,
-2892,3428,15520,-798,-420,-232,4000,13000,101000,1268331,
-2872,3388,15404,-765,-384,-194,4000,13000,101000,1268333,
-2860,3336,15572,-805,-334,-219,4000,13000,101000,1268336,
-2628,3360,15508,-797,94,-215,4000,13000,101000,1268348,
-2652,3436,15556,-667,276,-161,4000,13000,101000,1268350,
-2500,3572,15544,-739,309,-218,4000,13000,101000,1268353,
-2712,3288,15600,-518,927,-161,4000,13000,101000,1268365,
-2744,3308,15588,-685,943,-158,4000,13000,101000,1268367,
-2920,3276,15496,-494,1046,-120,4000,13000,101000,1268370,
-3120,3392,15784,-471,988,55,4000,13000,101000,1268382,
-3108,3292,15672,-606,855,2,4000,13000,101000,1268384,
-3140,3500,15660,-511,810,83,4000,13000,101000,1268387,
-3156,3632,15712,-699,337,-16,4000,13000,101000,1268399,
-3204,3700,15656,-567,319,-45,4000,13000,101000,1268401,
-3224,3588,15720,-719,180,-73,4000,13000,101000,1268404,
-2968,3568,15840,-712,-28,-150,4000,13000,101000,1268416,
-2744,3524,15952,-721,-59,-124,4000,13000,101000,1268419,
-2928,3480,15924,-737,-104,-182,4000,13000,101000,1268421,
-2896,3356,15968,-628,14,-58,4000,13000,101000,1268433,
-2928,3332,16020,-736,19,-42,4000,13000,101000,1268435,
-2788,3452,16096,-618,54,-8,4000,13000,101000,1268438,
-2796,3328,16176,-601,196,85,4000,13000,101000,1268450,
-2792,3352,16224,-485,308,139,4000,13000,101000,1268452,
-2948,3400,16152,-607,262,165,4000,13000,101000,1268455,
-2816,3512,16264,-421,294,210,4000,13000,101000,1268467,
-2812,3412,16224,-562,250,187,4000,13000,101000,1268470,
-2808,3532,16312,-382,282,186,4000,13000,101000,1268472,
-2960,3384,16268,-448,203,220,4000,13000,101000,1268484,
-3020,3596,16272,-378,243,214,4000,13000,101000,1268486,
-3112,3460,16408,-443,185,226,4000,13000,101000,1268489,
-2932,3548,16240,-334,-7,149,4000,13000,101000,1268501,
-2844,3516,16204,-332,-3,185,4000,13000,101000,1268503,
-2800,3628,16300,-323,-58,134,4000,13000,101000,1268506,
-2856,3536,16292,-233,-101,225,4000,13000,101000,1268518,
-2980,3628,16284,-310,-193,177,4000,13000,101000,1268521,
-2864,3660,16360,-212,-131,254,4000,13000,101000,1268523,
-2664,3516,16448,-215,65,292,4000,13000,101000,1268535,
-2744,3636,16484,-63,174,277,4000,13000,101000,1268538,
-2708,3652,16468,-163,138,304,4000,13000,101000,1268540,
-3300,3300,16688,117,603,408,5000,13000,101000,1268552,
-3228,3320,16752,65,601,434,5000,13000,101000,1268555,
-3172,3332,16732,220,721,459,5000,13000,101000,1268557,
-3424,3172,16856,311,895,700,5000,13000,101000,1268569,
-3660,3104,16820,382,902,748,5000,13000,101000,1268572,
-3652,3124,16956,394,943,809,5000,13000,101000,1268574,
-4120,3064,16920,564,1081,1095,5000,13000,102000,1268586,
-4076,3168,16868,663,1149,1164,5000,13000,102000,1268589,
-4012,3192,16828,675,1153,1198,5000,13000,102000,1268591,
-4008,3368,17044,921,1362,1508,5000,13000,102000,1268603,
-3932,3480,16968,835,1344,1541,5000,13000,102000,1268605,
-3860,3436,17008,975,1446,1610,5000,13000,102000,1268608,
-3364,3692,17168,1078,1866,1820,5000,13000,102000,1268620,
-3156,3792,17216,1241,2045,1869,5000,13000,102000,1268623,
-3120,3616,17400,1149,2086,1936,5000,13000,102000,1268625,
-2912,3708,17512,1610,3050,2097,6000,14000,102000,1268637,
-2848,3844,17700,1576,3187,2131,6000,14000,102000,1268640,
-2688,3904,17740,1776,3457,2132,6000,14000,102000,1268642,
-2308,4080,17824,2276,4967,2265,6000,14000,103000,1268654,
-2324,4068,17868,2327,5290,2275,6000,14000,103000,1268657,
-2308,4160,17768,2421,5592,2307,6000,14000,103000,1268659,
-2280,4184,17540,2923,7415,2278,6000,15000,103000,1268671,
-2192,4404,17724,3078,7761,2333,7000,15000,103000,1268674,
-2248,4396,17624,3146,8046,2250,7000,15000,103000,1268676,
-2308,4736,17404,3707,9707,2232,7000,16000,104000,1268688,
-2424,4740,17432,3654,9888,2186,7000,16000,104000,1268691,
-2228,4912,17392,3841,10204,2226,7000,16000,104000,1268693,
-2328,5124,17432,4043,11305,2095,8000,17000,104000,1268706,
-2188,5168,17456,4226,11542,2025,8000,17000,104000,1268708,
-2440,4992,17460,4158,11682,1982,8000,18000,104000,1268710,
-2492,5004,17128,4643,12947,1715,9000,19000,105000,1268722,
-2556,4996,17036,4648,13146,1724,9000,19000,105000,1268725,
-2552,4936,16872,4832,13457,1661,9000,19000,105000,1268727,
-2700,5156,16400,5234,14883,1714,10000,20000,105000,1268739,
-2876,5192,16376,5311,15115,1659,10000,21000,105000,1268742,
-3048,5212,16312,5393,15302,1692,10000,21000,105000,1268744,
-3400,5388,15684,5671,16216,1665,11000,22000,106000,1268756,
-3500,5404,15580,5750,16353,1682,11000,23000,106000,1268759,
-3564,5476,15592,5721,16499,1630,11000,23000,106000,1268761,
-3656,5576,15076,5906,17102,1399,12000,24000,107000,1268773,
-3696,5516,15148,5743,17153,1288,12000,25000,107000,1268776,
-3628,5596,14880,5876,17311,1247,12000,25000,107000,1268778,
-3692,5684,14804,5593,18390,812,13000,27000,107000,1268790,
-3464,5664,14540,5747,18798,737,13000,27000,108000,1268793,
-3552,5588,14344,5573,19028,657,13000,27000,108000,1268795,
-3412,5424,14084,5774,21342,289,14000,29000,108000,1268808,
-3400,5260,13960,5719,21703,262,14000,29000,108000,1268810,
-3348,5172,13864,5882,22303,217,14000,30000,109000,1268812,
-3600,4860,13044,6006,25055,260,15000,32000,109000,1268825,
-3880,4812,12960,6039,25692,243,16000,32000,109000,1268827,
-3952,4820,12648,6037,26199,294,16000,33000,110000,1268829,
-3836,4944,11924,6012,29206,312,17000,35000,111000,1268842,
-3844,4924,11888,6134,29826,341,17000,36000,111000,1268844,
-3920,4864,11600,5977,30369,273,18000,36000,111000,1268847,
-3856,5044,10964,5817,32767,-27,19000,39000,112000,1268859,
-3680,4952,10692,5681,32767,-110,19000,40000,113000,1268861,
-3700,4840,10460,5805,32767,-164,20000,40000,113000,1268864,
-3424,4816,9564,5607,32767,-625,21000,43000,114000,1268876,
-3568,4696,9556,5616,32767,-751,21000,44000,115000,1268879,
-3532,4708,9616,5756,32767,-717,22000,44000,115000,1268881,
-4176,4364,8008,6105,32767,-782,24000,47000,117000,1268894,
-4524,4220,7776,6383,32767,-769,24000,47000,117000,1268896,
-4596,4200,7796,6322,32767,-760,24000,48000,117000,1268898,
-5772,3740,6760,7245,32767,-462,27000,51000,120000,1268911,
-5268,3732,5660,7247,32767,-440,27000,51000,120000,1268913,
-6032,3576,5308,6887,32767,-236,28000,52000,120000,1268916,
-6416,3604,4108,7955,32767,-190,31000,55000,123000,1268928,
-7300,3740,4584,8102,32767,-158,31000,55000,124000,1268930,
-7168,4104,2616,8043,32767,-121,32000,56000,124000,1268933,
-8636,4256,2448,8210,32767,-292,35000,58000,128000,1268945,
-8668,4092,1984,8412,32767,-347,36000,59000,128000,1268948,
-8916,4040,1820,8366,32767,-421,37000,59000,129000,1268950,
-9640,4064,-748,8330,32767,-1074,41000,62000,133000,1268963,
-9916,4036,-76,8317,32767,-1156,42000,62000,134000,1268965,
-10040,3880,96,8454,32767,-1345,43000,63000,135000,1268967,
-10844,3772,-2024,8747,32767,-1620,49000,65000,140000,1268980,
-10904,3704,-2164,8596,32767,-1662,50000,65000,141000,1268982,
-11664,3376,-2900,8965,32767,-1468,57000,68000,148000,1268995,
-11668,3304,-3256,8822,32767,-1402,59000,68000,149000,1268997,
-11720,3304,-3588,9018,32767,-1358,60000,68000,151000,1268999,
-11656,3128,-4744,8973,32767,-1231,69000,70000,159000,1269012,
-11532,3252,-4948,9068,32767,-1296,71000,70000,161000,1269014,
-11500,3212,-5260,8936,32767,-1282,73000,70000,163000,1269017,
-11492,3380,-6868,8731,32767,-2071,83000,71000,173000,1269029,
-11504,3480,-6980,8781,32767,-2186,85000,71000,175000,1269032,
-11392,3584,-7044,8717,32767,-2393,87000,71000,177000,1269034,
-10916,4248,-8788,8450,32767,-3048,98000,71000,187000,1269047,
-10960,4456,-9096,8187,32767,-3240,100000,71000,189000,1269049,
-11192,5016,-9748,7458,32537,-3793,111000,71000,200000,1269061,
-10952,5320,-9736,7142,32197,-3905,113000,71000,202000,1269064,
-10908,5268,-9744,7092,32091,-3975,115000,70000,204000,1269066,
-11036,5384,-10444,5972,30920,-4428,124000,69000,212000,1269079,
-11396,5300,-10368,5814,30758,-4568,125000,69000,214000,1269081,
-11540,5212,-10408,5632,30564,-4572,126000,69000,215000,1269083,
-12648,4596,-11128,4953,29817,-4699,133000,67000,222000,1269096,
-12912,4556,-11348,4983,29577,-4568,135000,67000,223000,1269098,
-14544,4308,-12180,4388,26694,-3874,140000,65000,229000,1269111,
-14712,4152,-12448,4402,26102,-3759,141000,65000,229000,1269113,
-14824,4276,-12528,4230,25162,-3557,142000,64000,230000,1269116,
-15312,4768,-13300,3867,19841,-3042,145000,63000,233000,1269128,
-15408,4864,-13212,3799,18716,-2967,145000,62000,234000,1269131,
-15320,5116,-13244,3732,17615,-2988,146000,62000,235000,1269133,
-15200,5612,-14056,3412,11888,-2986,148000,61000,236000,1269146,
-15148,5720,-14308,3233,10931,-2980,148000,61000,237000,1269148,
-14312,5856,-14832,2922,6932,-2770,150000,61000,238000,1269160,
-14060,5908,-15080,2649,6211,-2678,150000,60000,238000,1269163,
-13832,6028,-15132,2640,5633,-2617,150000,60000,238000,1269165,
-13584,6144,-15124,1880,3150,-2201,151000,60000,239000,1269178,
-13708,6284,-15100,1694,2795,-2165,151000,60000,239000,1269180,
-13548,6256,-15076,1585,2511,-2063,151000,60000,239000,1269183,
-13388,6444,-14716,976,1134,-1725,152000,60000,240000,1269195,
-13352,6524,-14764,1014,961,-1650,152000,60000,240000,1269198,
-13964,6756,-14460,466,-299,-1250,152000,60000,240000,1269210,
-14076,6800,-14188,451,-472,-1176,152000,60000,240000,1269212,
-13992,6876,-14136,337,-689,-1054,152000,60000,240000,1269215,
-14024,7196,-13804,68,-1510,-726,152000,60000,240000,1269227,
-14092,7080,-13708,82,-1547,-611,152000,60000,240000,1269230,
-13984,7236,-13692,-72,-1723,-537,152000,60000,240000,1269232,
-13500,6916,-14100,-379,-2157,-124,152000,60000,240000,1269245,
-13748,6980,-13800,-614,-2284,-104,152000,60000,240000,1269247,
-13824,6856,-13792,-551,-2208,16,152000,60000,240000,1269249,
-14200,6608,-13908,-1046,-2140,474,152000,60000,240000,1269262,
-14044,6564,-13780,-1116,-2133,475,152000,60000,240000,1269264,
-14284,6584,-14076,-1457,-3176,932,151000,60000,239000,1269277,
-14476,6700,-13888,-1651,-3585,961,151000,60000,239000,1269279,
-14512,6772,-13920,-1594,-3964,1022,151000,60000,239000,1269282,
-15164,6680,-13988,-2105,-6761,1286,150000,61000,238000,1269294,
-15512,6676,-14128,-2038,-7379,1310,150000,61000,238000,1269297,
-15372,6692,-13964,-2192,-8042,1402,150000,61000,238000,1269299,
-15436,6436,-13812,-2424,-11969,1644,148000,62000,236000,1269312,
-15460,6428,-13920,-2488,-12783,1716,148000,62000,236000,1269314,
-15460,6208,-13652,-2861,-17109,1856,145000,63000,234000,1269327,
-15560,6212,-13560,-2802,-17802,1887,145000,63000,233000,1269329,
-15460,6140,-13476,-3010,-18576,1912,145000,63000,233000,1269331,
-14952,6112,-12520,-3258,-21945,1982,141000,65000,230000,1269344,
-14868,6056,-12464,-3392,-22471,2007,141000,65000,229000,1269346,
-14932,5896,-11892,-3831,-25667,2082,136000,67000,225000,1269359,
-15120,5996,-11704,-3803,-26123,2127,136000,67000,224000,1269361,
-14940,5892,-11536,-3948,-26770,2128,135000,67000,223000,1269364,
-14996,5720,-10472,-3994,-29538,2394,129000,69000,217000,1269376,
-15160,5740,-10396,-4164,-30089,2454,127000,69000,216000,1269379,
-15312,5544,-9808,-4313,-32768,2789,119000,71000,208000,1269391,
-15188,5580,-9656,-4366,-32768,2854,118000,71000,206000,1269393,
-15068,5484,-9600,-4400,-32768,2833,116000,71000,204000,1269396,
-14560,5304,-8768,-4709,-32768,2863,107000,72000,195000,1269408,
-14592,5296,-8548,-4861,-32768,2768,105000,72000,193000,1269411,
-14572,5340,-8436,-4831,-32768,2744,103000,72000,191000,1269413,
-14060,5228,-7208,-5099,-32768,2397,93000,72000,181000,1269426,
-14020,5124,-7148,-4968,-32768,2331,91000,72000,179000,1269428,
-13992,5060,-5928,-5216,-32768,2081,80000,72000,169000,1269441,
-13864,4988,-5772,-5193,-32768,2074,79000,72000,167000,1269443,
-13808,5004,-5716,-5222,-32768,2088,77000,72000,165000,1269445,
-13492,4780,-4508,-5315,-32768,2274,68000,71000,156000,1269458,
-13472,4692,-4488,-5197,-32768,2316,66000,70000,154000,1269460,
-13224,4692,-4020,-5316,-32768,2363,65000,70000,153000,1269463,
-12216,4588,-2860,-4915,-32768,2688,58000,68000,146000,1269475,
-11856,4488,-2796,-4975,-32768,2657,56000,68000,144000,1269478,
-10800,4576,-1740,-4837,-32768,2596,50000,66000,138000,1269490,
-10568,4672,-1344,-4699,-32768,2684,49000,66000,137000,1269493,
-10488,4636,-1064,-4621,-32768,2689,48000,65000,136000,1269495,
-9652,4632,-712,-4218,-32768,3036,44000,63000,132000,1269508,
-9580,4588,-516,-4365,-32768,3018,43000,62000,131000,1269510,
-9376,4604,-116,-4212,-32768,3067,42000,62000,130000,1269512,
-8324,5016,712,-4408,-32768,2904,39000,59000,127000,1269525,
-8236,5100,1028,-4358,-32768,2790,38000,59000,126000,1269527,
-8320,5216,1580,-4456,-32768,2723,38000,58000,125000,1269529,
-8172,5552,2292,-4346,-32768,2463,35000,56000,122000,1269542,
-8116,5568,2676,-4419,-32768,2431,34000,55000,122000,1269544,
-7824,5760,3344,-5098,-32768,2238,32000,52000,119000,1269557,
-7732,5696,3472,-5097,-32768,2227,31000,52000,119000,1269559,
-7796,5700,3492,-5425,-32768,2123,31000,51000,119000,1269562,
-7372,5384,4280,-6263,-32768,1525,29000,49000,116000,1269574,
-7000,5188,4044,-6547,-32768,1349,28000,48000,116000,1269577,
-7048,5168,3896,-6784,-32768,1176,28000,48000,116000,1269579,
-5740,5488,5440,-7673,-32768,3,26000,45000,114000,1269592,
-5428,5476,5464,-7958,-32768,-247,25000,44000,113000,1269594,
-5164,5556,5452,-8017,-32768,-411,25000,44000,113000,1269596,
-4792,5428,5856,-9310,-32768,-1010,23000,41000,111000,1269609,
-5060,5288,5792,-9409,-32768,-974,23000,40000,111000,1269611,
-5148,5192,5688,-9853,-32768,-886,22000,40000,110000,1269613,
-3572,4016,7456,-10036,-32768,-151,20000,37000,109000,1269626,
-3472,3884,7360,-10189,-32768,-145,20000,36000,109000,1269628,
-3612,3812,7444,-10287,-32768,-212,20000,35000,108000,1269631,
-3884,3736,7944,-11139,-32768,-401,18000,32000,107000,1269643,
-3840,3796,8396,-11349,-32768,-430,18000,32000,107000,1269646,
-3292,3688,9412,-11958,-32768,-123,16000,29000,106000,1269658,
-3184,3504,9860,-12203,-32768,-87,16000,28000,106000,1269660,
-3060,3336,10684,-12137,-32768,76,15000,28000,106000,1269663,
-1628,2624,11716,-12534,-30930,748,14000,25000,105000,1269675,
-2408,3684,11936,-12529,-30733,672,13000,24000,105000,1269678,
-1540,2960,12356,-12768,-29967,750,13000,24000,104000,1269680,
4748,2312,13048,-12216,-25754,1169,12000,21000,104000,1269692,
-936,1588,16648,-12123,-23712,1400,12000,21000,104000,1269695,
1908,2424,16512,-11585,-19110,1599,10000,19000,104000,1269707,
1972,2248,16720,-11254,-17795,1743,10000,18000,104000,1269709,
1944,2072,17088,-11090,-16301,1807,10000,18000,104000,1269712,
1404,2004,17628,-9692,-10623,2459,9000,17000,104000,1269724,
1136,1928,17880,-9618,-9816,2566,9000,16000,104000,1269727,
884,2024,17796,-9276,-8967,2728,9000,16000,104000,1269729,
440,2184,19212,-8515,-6272,2840,8000,16000,104000,1269741,
536,2164,19568,-8214,-5956,2740,8000,15000,104000,1269744,
540,2136,19700,-8201,-5787,2561,8000,15000,104000,1269746,
836,2308,20368,-7230,-4701,1851,7000,15000,104000,1269758,
980,2324,20520,-7086,-4482,1757,7000,15000,104000,1269761,
932,2336,20528,-6883,-4264,1672,7000,15000,104000,1269763,
748,2500,20956,-5929,-2970,1428,6000,14000,104000,1269775,
984,2452,20812,-5842,-2788,1354,6000,14000,104000,1269778,
548,2420,20880,-5641,-2530,1380,6000,14000,104000,1269780,
568,2552,20468,-4871,-1469,1195,6000,14000,104000,1269792,
644,2536,20512,-4661,-1231,1193,5000,14000,104000,1269795,
660,2624,20612,-4581,-1106,1101,5000,14000,104000,1269797,
548,2380,21108,-3696,-391,761,5000,14000,104000,1269809,
316,2252,20964,-3724,-366,678,5000,13000,104000,1269812,
324,2312,20952,-3492,-248,650,5000,13000,104000,1269814,
116,2016,21320,-2701,155,470,5000,13000,105000,1269826,
300,1924,21288,-2383,247,484,5000,13000,105000,1269828,
304,1828,21592,-2292,228,442,5000,13000,105000,1269831,
-284,1848,20932,-1252,384,575,5000,13000,105000,1269843,
-364,1856,20864,-1210,293,607,5000,13000,105000,1269845,
-260,1860,20636,-936,265,637,5000,13000,105000,1269848,
-132,2100,19904,-504,-155,541,4000,13000,105000,1269860,
60,2092,19964,-387,-212,477,4000,13000,105000,1269863,
-40,2008,19848,-353,-257,446,4000,13000,105000,1269865,
20,1832,19988,294,-141,238,5000,13000,105000,1269877,
76,1880,19872,467,-54,248,5000,13000,105000,1269880,
-84,1816,19688,451,-45,226,5000,13000,105000,1269882,
-132,1776,19776,646,59,274,5000,13000,105000,1269884,
-184,1936,19240,1076,599,272,5000,13000,105000,1269897,
-172,1928,18984,1295,786,279,5000,13000,105000,1269899,
32,1928,18916,1240,809,227,5000,13000,105000,1269901,
-132,2068,18736,1870,1641,198,5000,13000,105000,1269914,
-188,2088,18588,1824,1704,195,5000,13000,105000,1269916,
-468,1964,18640,2044,1838,257,5000,13000,105000,1269918,
-1296,1868,17788,2279,1926,500,5000,13000,105000,1269931,
-1364,1980,17696,2424,1912,527,5000,13000,105000,1269933,
-1512,1944,17532,2335,1750,606,5000,13000,105000,1269935,
-1656,2144,16788,2357,874,451,6000,13000,105000,1269948,
-1512,2036,16880,2281,708,444,6000,13000,105000,1269950,
-1548,2068,16876,2378,567,400,6000,13000,105000,1269952,
-1040,1892,16552,2320,424,178,6000,13000,105000,1269965,
-836,1872,16532,2351,495,93,6000,13000,105000,1269967,
-892,1924,16312,2342,533,140,6000,13000,105000,1269969,
-348,1856,15632,2485,1482,37,6000,13000,105000,1269982,
-612,1816,16104,2496,1782,70,6000,13000,105000,1269984,
-328,1932,15896,2529,1984,21,6000,13000,105000,1269986,
-660,1708,15572,2792,3240,34,7000,14000,105000,1269998,
-724,1632,15368,2700,3332,-44,7000,14000,105000,1270001,
-832,1640,15288,2844,3568,-5,7000,14000,105000,1270003,
-880,1808,15104,2815,4228,-112,7000,14000,105000,1270015,
-912,1796,15148,2957,4403,-136,7000,14000,105000,1270018,
-984,1836,15068,2873,4458,-135,7000,14000,105000,1270020,
-1408,1864,14692,3047,5297,-186,7000,15000,105000,1270032,
-1440,2140,14528,2951,5366,-97,7000,15000,105000,1270035,
-1700,2332,14420,3058,5546,-34,7000,15000,105000,1270037,
-1876,2936,14176,2728,5508,349,8000,15000,105000,1270049,
-2300,3252,13884,2748,5394,383,8000,15000,105000,1270052,
-2204,3132,13720,2576,5237,466,8000,15000,105000,1270054,
-2904,3724,13660,1819,3598,539,8000,16000,106000,1270066,
-3288,3888,13768,1677,3259,652,8000,16000,106000,1270069,
-3220,3780,13644,1533,2835,650,8000,16000,106000,1270071,
-2896,3664,14076,734,666,646,8000,16000,106000,1270083,
-2828,3560,14420,540,303,599,8000,16000,106000,1270085,
-2608,3500,14396,448,25,626,8000,16000,106000,1270088,
-1956,3292,14684,-142,-1161,664,8000,16000,106000,1270100,
-1844,3276,14456,-85,-1196,682,8000,16000,106000,1270102,
-1800,3368,14512,-254,-1367,727,8000,16000,106000,1270105,
-1224,3232,14888,-346,-1471,764,8000,15000,106000,1270117,
-1032,3436,14812,-485,-1459,729,8000,15000,106000,1270119,
-808,3308,15064,-407,-1324,737,8000,15000,106000,1270122,
-504,3308,15200,-441,-546,487,8000,15000,106000,1270134,
-572,3380,15172,-308,-339,455,8000,15000,106000,1270136,
-452,3372,15312,-421,-215,406,8000,15000,106000,1270139,
-800,3564,15444,-224,444,231,8000,15000,106000,1270151,
-908,3664,15564,-285,512,235,8000,15000,106000,1270153,
-1200,3616,15648,-216,613,214,8000,15000,106000,1270156,
-1560,3668,15784,-331,473,8,8000,15000,106000,1270168,
-1584,3596,15984,-341,376,-133,8000,15000,106000,1270170,
-1456,3696,15892,-349,330,-161,8000,15000,106000,1270173,
-1660,3712,16036,-515,-155,-479,8000,15000,106000,1270185,
-1892,3568,16148,-348,-189,-483,8000,15000,106000,1270188,
-1828,3548,16040,-471,-323,-572,8000,15000,106000,1270190,
-1876,3376,16128,-261,-600,-641,8000,15000,106000,1270202,
-1740,3440,15972,-408,-712,-696,8000,15000,106000,1270205,
-1964,3376,16000,-254,-770,-675,8000,15000,106000,1270207,
-2016,3608,15832,-433,-1261,-688,8000,15000,106000,1270219,
-1984,3572,15716,-367,-1329,-736,8000,15000,106000,1270222,
-1940,3732,15624,-476,-1454,-724,8000,15000,106000,1270224,
-1496,3516,15864,-662,-1694,-807,8000,14000,106000,1270236,
-1580,3492,15820,-635,-1672,-801,8000,14000,106000,1270239,
-1652,3344,15876,-671,-1724,-872,8000,14000,106000,1270241,
-1292,3228,16272,-579,-1393,-846,8000,14000,105000,1270253,
-1232,3252,16140,-683,-1379,-866,8000,14000,105000,1270256,
-1052,3236,16016,-550,-1178,-863,8000,14000,105000,1270258,
-1024,3260,16168,-590,-440,-899,8000,14000,105000,1270271,
-1032,3296,16152,-415,-232,-903,8000,14000,105000,1270273,
-1112,3276,16292,-508,-186,-906,8000,14000,105000,1270275,
-1736,3184,16556,-254,473,-689,8000,14000,105000,1270288,
-1944,3200,16484,-117,553,-665,8000,14000,105000,1270290,
-2032,3180,16372,-270,501,-629,8000,14000,105000,1270292,
-2508,3340,16252,-152,254,-595,8000,14000,105000,1270305,
-2428,3352,16000,-287,116,-629,8000,14000,105000,1270307,
-2424,3272,16312,-159,72,-613,8000,14000,105000,1270309,
-2360,3260,16244,-322,-512,-567,8000,14000,105000,1270322,
-2404,3284,16196,-232,-592,-593,8000,14000,105000,1270324,
-2336,3240,16268,-328,-692,-542,8000,14000,105000,1270326,
-1920,3440,16048,-277,-822,-536,8000,14000,105000,1270339,
-1668,3492,15972,-332,-785,-495,8000,14000,105000,1270341,
-1584,3556,15988,-283,-753,-524,8000,14000,105000,1270343,
-1564,3460,15852,-301,-517,-518,8000,13000,105000,1270355,
-1604,3304,15996,-313,-499,-579,8000,13000,105000,1270358,
-1640,3344,16068,-250,-400,-508,8000,13000,105000,1270360,
-2036,3160,16040,-159,-457,-358,8000,13000,105000,1270373,
-2184,3196,16064,-28,-467,-282,8000,13000,105000,1270375,
-2136,3112,16152,-157,-623,-252,8000,13000,105000,1270377,
-2280,3456,16140,-91,-1039,-117,8000,13000,105000,1270389,
-2204,3456,16060,-225,-1187,-123,8000,13000,105000,1270392,
-1964,3640,16056,-145,-1195,-132,8000,13000,105000,1270394,
-1516,3656,16268,-322,-1445,-288,8000,13000,105000,1270406,
-1520,3480,16156,-194,-1423,-306,8000,13000,105000,1270409,
-1584,3484,16536,-298,-1432,-330,8000,13000,105000,1270411,
-1608,3168,16776,-75,-1132,-403,8000,13000,105000,1270423,
-1540,3112,16796,-73,-998,-328,8000,13000,105000,1270426,
-1348,3084,16436,-9,-898,-331,8000,13000,105000,1270428,
-1404,2968,16192,249,-289,-295,8000,13000,105000,1270440,
-1196,2952,16064,155,-200,-321,8000,13000,105000,1270443,
-1360,3064,16080,314,-43,-256,8000,13000,105000,1270445,
-1164,3404,16408,406,679,-111,8000,13000,105000,1270458,
-1248,3440,16480,546,812,-88,8000,13000,105000,1270460,
-1128,3516,16384,446,830,-91,8000,13000,105000,1270462,
-1768,3356,16240,594,984,-23,8000,13000,105000,1270474,
-1928,3248,16296,522,913,8,8000,13000,105000,1270477,
-2044,3220,16088,604,866,38,8000,13000,105000,1270479,
-2220,3568,15884,466,220,123,8000,13000,105000,1270491,
-2044,3616,15964,457,114,105,8000,13000,105000,1270494,
