Ax,Ay,Az,Gx,Gy,Gz,Roll,Pitch,Yaw,Timestamp,Target
-6856,-7736,12440,-488,-1301,250,-39000,22000,265000,301786,
-6404,-7556,12348,-385,-1516,230,-39000,22000,265000,301799,
-6508,-7504,12280,-551,-1605,211,-39000,22000,265000,301801,
-6392,-7516,12200,-424,-1597,222,-39000,22000,265000,301803,
-6560,-7628,12160,-609,-1863,233,-39000,22000,266000,301816,
-6452,-7564,12100,-643,-1935,219,-39000,22000,266000,301818,
-6376,-7664,12316,-587,-1901,207,-39000,22000,266000,301820,
-6504,-7968,12464,-576,-1854,130,-39000,22000,266000,301833,
-6420,-8044,12636,-444,-1802,125,-39000,22000,266000,301835,
-6568,-8068,12552,-520,-1742,140,-39000,22000,266000,301837,
-6320,-8048,12724,-363,-1482,226,-39000,22000,266000,301850,
-6376,-7884,12580,-226,-1367,317,-39000,22000,266000,301852,
-6248,-7796,12196,-245,-1022,343,-39000,22000,266000,301864,
-6028,-7668,12464,-287,-1018,320,-39000,22000,266000,301867,
-6132,-7728,12404,-207,-903,355,-39000,22000,266000,301869,
-6012,-7704,12216,-277,-781,405,-39000,22000,266000,301882,
-6128,-7800,12300,-212,-736,397,-39000,22000,266000,301884,
-6012,-7760,12200,-283,-690,452,-39000,22000,266000,301886,
-6264,-7972,12384,-326,-524,490,-39000,22000,266000,301899,
-6300,-7900,12288,-167,-425,552,-39000,22000,266000,301901,
-6532,-8016,12188,-319,-458,565,-39000,22000,266000,301903,
-6636,-8140,12524,-175,-434,584,-39000,22000,266000,301916,
-6604,-8064,12580,-77,-419,627,-39000,22000,266000,301918,
-6564,-7972,12644,-113,-529,596,-38000,22000,266000,301921,
-6672,-7968,12724,89,-558,522,-38000,22000,267000,301933,
-6692,-8084,12740,99,-510,537,-38000,22000,267000,301936,
-6672,-8136,12704,90,-533,517,-38000,22000,267000,301938,
-6764,-8028,12840,278,-410,425,-38000,22000,267000,301950,
-6784,-8016,12844,187,-460,404,-38000,22000,267000,301953,
-6640,-7968,13044,318,-432,354,-38000,22000,267000,301955,
-6832,-7876,12884,303,-357,309,-38000,22000,267000,301967,
-6876,-7896,12868,160,-417,264,-38000,22000,267000,301970,
-6968,-7876,12936,287,-363,256,-38000,22000,267000,301972,
-7032,-7872,12968,197,-348,90,-38000,22000,267000,301985,
-6848,-7932,12968,146,-388,41,-38000,22000,267000,301987,
-6988,-7860,13060,203,-337,67,-38000,22000,267000,301989,
-6740,-7712,13120,82,-419,-16,-38000,22000,267000,302002,
-6728,-7764,13048,202,-343,-84,-38000,22000,267000,302004,
-6700,-7592,13204,58,-352,-82,-38000,22000,267000,302006,
-6648,-7688,13360,51,-180,-160,-38000,22000,267000,302019,
-6520,-7728,13448,157,-67,-135,-38000,22000,267000,302021,
-6572,-7656,13616,37,-91,-151,-38000,22000,267000,302024,
-6480,-7672,13644,104,260,-133,-38000,22000,267000,302036,
-6492,-7612,13652,140,349,-73,-38000,22000,267000,302038,
-6516,-7592,13680,80,391,-79,-38000,22000,267000,302041,
-6688,-7548,13628,98,522,-50,-38000,22000,267000,302053,
-6868,-7492,13540,-39,461,-68,-38000,22000,267000,302056,
-7032,-7584,13556,31,461,-94,-38000,22000,267000,302058,
-7240,-7556,13436,-15,105,-102,-38000,22000,267000,302070,
-7152,-7488,13576,-175,-49,-124,-38000,22000,267000,302073,
-7132,-7436,13436,-59,-65,-124,-38000,22000,267000,302075,
-6868,-7456,13544,-212,-309,-237,-38000,22000,267000,302088,
-7016,-7400,13492,-300,-389,-285,-38000,22000,267000,302090,
-6848,-7344,13648,-223,-342,-243,-38000,22000,267000,302092,
-6752,-7256,13516,-415,-403,-323,-38000,22000,267000,302105,
-6572,-7236,13500,-393,-399,-356,-38000,22000,267000,302107,
-6456,-7180,13600,-428,-410,-333,-38000,22000,267000,302109,
-6376,-7224,13424,-594,-286,-310,-38000,22000,267000,302122,
-6448,-7320,13444,-494,-216,-271,-38000,22000,267000,302124,
-6360,-7340,13432,-626,-234,-270,-38000,22000,267000,302127,
-6488,-7404,13400,-664,-242,-211,-38000,22000,267000,302139,
-6524,-7284,13312,-558,-189,-177,-38000,22000,267000,302142,
-6576,-7460,13312,-682,-281,-198,-38000,22000,267000,302144,
-6536,-7252,13324,-598,-388,-252,-38000,22000,267000,302156,
-6468,-7280,13380,-622,-374,-237,-38000,22000,267000,302159,
-6424,-7212,13380,-613,-357,-244,-38000,22000,267000,302161,
-6204,-7376,13400,-520,-153,-217,-38000,22000,267000,302173,
-6180,-7392,13368,-650,-156,-227,-38000,22000,267000,302176,
-6296,-7540,13448,-501,-68,-216,-38000,22000,267000,302178,
-6452,-7388,13400,-569,43,-263,-38000,22000,267000,302190,
-6472,-7372,13172,-608,50,-321,-38000,22000,267000,302193,
-6400,-7300,13220,-568,98,-298,-38000,22000,267000,302195,
-6372,-7448,13104,-671,2,-369,-38000,22000,267000,302207,
-6380,-7456,13200,-560,-8,-357,-38000,22000,267000,302210,
-6620,-7408,13244,-662,-85,-380,-38000,22000,267000,302212,
-6524,-7372,13128,-696,-279,-348,-38000,21000,267000,302225,
-6508,-7320,13216,-598,-211,-327,-38000,21000,267000,302227,
-6400,-7256,13196,-723,-317,-279,-38000,21000,267000,302229,
-6100,-7404,13088,-714,-349,-222,-38000,21000,267000,302242,
-6464,-7412,13096,-699,-298,-161,-38000,21000,267000,302244,
-6204,-7284,12992,-747,-366,-205,-38000,21000,267000,302246,
-6096,-7468,13032,-682,-135,-125,-38000,21000,267000,302259,
-5936,-7372,13124,-772,-119,-125,-38000,21000,267000,302261,
-6048,-7368,13064,-784,61,-117,-38000,21000,267000,302274,
-6324,-7516,13128,-644,138,-75,-38000,21000,267000,302276,
-6304,-7392,13060,-789,92,-116,-38000,21000,267000,302278,
-6388,-7516,13160,-715,160,-104,-38000,21000,267000,302291,
-6352,-7516,13012,-656,210,-102,-38000,21000,267000,302293,
-6516,-7516,13104,-764,163,-127,-38000,21000,267000,302296,
-6612,-7588,12960,-662,-76,-197,-38000,21000,267000,302308,
-6728,-7696,12960,-639,-95,-196,-38000,21000,267000,302311,
-6748,-7608,12988,-695,-173,-225,-38000,21000,267000,302313,
-6484,-7540,13152,-577,-232,-252,-38000,21000,267000,302325,
-6444,-7560,13200,-671,-297,-229,-38000,21000,267000,302328,
-6232,-7480,13048,-540,-258,-224,-38000,21000,267000,302330,
-6288,-7400,12744,-642,-160,-149,-38000,21000,267000,302342,
-6408,-7440,12764,-768,-208,-189,-38000,21000,267000,302345,
-6308,-7428,12816,-711,-107,-152,-38000,21000,267000,302347,
-6588,-7812,12940,-813,-23,-90,-38000,21000,267000,302360,
-6652,-7876,12884,-742,0,-135,-38000,21000,267000,302362,
-6720,-7884,12876,-743,49,-104,-38000,21000,267000,302364,
-6660,-7676,13004,-749,-3,-218,-38000,21000,267000,302377,
-6708,-7632,12920,-595,69,-240,-38000,21000,267000,302379,
-6748,-7592,13096,-734,-10,-276,-38000,21000,267000,302381,
-6864,-7568,13168,-675,-39,-485,-38000,21000,267000,302394,
-6952,-7704,13036,-574,41,-444,-38000,21000,267000,302396,
-6960,-7564,12984,-683,-61,-522,-38000,21000,267000,302399,
-7012,-7524,12904,-647,-320,-609,-38000,21000,267000,302411,
-7072,-7484,12864,-699,-374,-602,-38000,21000,267000,302414,
-6888,-7428,12752,-678,-456,-661,-38000,21000,267000,302416,
-6616,-7604,12944,-672,-589,-656,-38000,21000,267000,302428,
-6704,-7760,13004,-783,-656,-662,-38000,21000,267000,302431,
-6528,-7724,12948,-673,-602,-663,-38000,21000,267000,302433,
-6396,-7784,13020,-628,-500,-546,-38000,21000,267000,302446,
-6228,-7824,12836,-755,-478,-566,-38000,21000,267000,302448,
-6268,-7952,12856,-614,-317,-530,-38000,21000,267000,302450,
-5872,-7832,13152,-566,178,-527,-38000,21000,267000,302463,
-6244,-7772,12996,-631,188,-575,-38000,21000,267000,302465,
-6212,-7604,13040,-535,310,-521,-38000,21000,267000,302467,
-6700,-7724,13188,-567,477,-654,-38000,21000,267000,302480,
-6728,-7680,13248,-489,500,-711,-38000,21000,267000,302482,
-6964,-7668,13016,-518,455,-701,-38000,21000,267000,302485,
-7028,-7452,12960,-589,122,-872,-38000,21000,267000,302497,
-7060,-7420,12944,-470,129,-906,-38000,21000,267000,302500,
-6916,-7504,12948,-590,-8,-940,-38000,21000,267000,302502,
-6648,-7384,13124,-675,-353,-976,-38000,21000,267000,302514,
-6640,-7436,13028,-564,-359,-1001,-38000,21000,267000,302517,
-6572,-7468,12960,-667,-444,-1001,-38000,21000,267000,302519,
-6504,-7644,13092,-655,-495,-992,-38000,21000,267000,302532,
-6324,-7488,13000,-683,-494,-951,-38000,21000,267000,302534,
-6320,-7476,13228,-670,-546,-995,-38000,21000,267000,302536,
-5884,-7468,13080,-593,-411,-1001,-38000,21000,267000,302549,
-5900,-7524,13244,-748,-402,-990,-38000,21000,267000,302551,
-5768,-7504,13148,-618,-365,-1001,-38000,21000,267000,302553,
-5860,-7564,12964,-667,133,-954,-38000,21000,267000,302566,
-5820,-7608,13000,-822,110,-969,-38000,21000,267000,302568,
-5940,-7640,12784,-669,236,-927,-38000,21000,267000,302570,
-6392,-7608,13084,-685,277,-1039,-38000,21000,267000,302583,
-6332,-7628,13116,-649,224,-1077,-38000,21000,267000,302585,
-6052,-7476,13072,-518,105,-1162,-38000,21000,267000,302598,
-6048,-7428,13036,-592,53,-1111,-38000,21000,267000,302600,
-6044,-7524,12956,-513,72,-1154,-38000,21000,267000,302603,
-6020,-7632,13104,-441,50,-988,-38000,21000,266000,302615,
-6080,-7636,13080,-566,6,-1002,-38000,21000,266000,302617,
-6120,-7556,12916,-437,-2,-937,-38000,20000,266000,302620,
-5948,-7416,12988,-542,-217,-795,-38000,20000,266000,302632,
-5880,-7536,13016,-603,-330,-813,-38000,20000,266000,302635,
-5856,-7400,12984,-588,-310,-758,-38000,20000,266000,302637,
-5852,-7528,13064,-745,-585,-615,-38000,20000,266000,302649,
-5912,-7656,12824,-670,-575,-596,-38000,20000,266000,302652,
-5636,-7564,12984,-794,-593,-541,-38000,20000,266000,302654,
-5556,-7696,12868,-885,-592,-478,-38000,20000,266000,302667,
-5448,-7628,12968,-765,-514,-431,-38000,20000,266000,302669,
-5592,-7748,13040,-912,-508,-435,-39000,20000,266000,302671,
-5544,-7644,13136,-873,-260,-420,-39000,20000,266000,302684,
-5404,-7820,12924,-851,-152,-403,-39000,20000,266000,302686,
-5484,-7872,12864,-909,-117,-465,-39000,20000,266000,302688,
-5624,-7980,12984,-736,97,-472,-39000,20000,266000,302701,
-5636,-8040,12972,-778,111,-460,-39000,20000,266000,302703,
-5676,-8144,12964,-716,130,-513,-39000,20000,266000,302706,
-5524,-8024,13076,-542,422,-463,-39000,20000,266000,302718,
-5472,-7976,12956,-644,426,-451,-39000,20000,266000,302720,
-5404,-8028,13212,-509,505,-438,-39000,20000,266000,302723,
-5752,-8092,13056,-437,629,-308,-39000,20000,266000,302735,
-5860,-7952,12964,-538,521,-310,-39000,20000,266000,302737,
-5836,-7984,13028,-426,559,-271,-39000,20000,266000,302740,
-5844,-7816,13148,-490,469,-276,-39000,20000,266000,302752,
-5592,-7816,12912,-495,387,-289,-39000,20000,266000,302755,
-5892,-7932,12988,-464,395,-248,-39000,20000,266000,302757,
-5508,-7836,12972,-597,431,-246,-39000,20000,266000,302770,
-5632,-7756,13108,-490,498,-268,-39000,20000,266000,302772,
-5460,-7712,13196,-622,491,-211,-39000,20000,266000,302774,
-5868,-7788,12928,-761,529,-146,-39000,20000,266000,302787,
-5968,-7816,13028,-652,555,-100,-39000,20000,266000,302789,
-6008,-7904,13048,-808,466,-93,-39000,20000,266000,302791,
-6140,-7948,12952,-820,125,-77,-39000,20000,266000,302804,
-6148,-8012,13004,-807,56,-41,-39000,20000,266000,302806,
-6084,-8016,13008,-857,-75,-77,-39000,20000,266000,302809,
-5980,-7984,12780,-792,-291,-91,-39000,20000,266000,302821,
-5976,-8044,12984,-900,-322,-66,-39000,20000,266000,302823,
-6056,-8148,12928,-813,-331,-104,-39000,20000,266000,302826,
-5836,-8108,13004,-717,-179,-61,-39000,20000,266000,302838,
-5620,-8116,12880,-862,-252,-89,-39000,20000,266000,302841,
-5764,-8188,12992,-718,-152,-93,-39000,20000,266000,302843,
-5300,-7884,12796,-713,55,-76,-39000,20000,266000,302855,
-5492,-7928,12920,-731,86,-98,-39000,20000,266000,302858,
-5248,-7864,12768,-686,208,-49,-39000,20000,266000,302860,
-5788,-8096,12868,-703,457,-19,-39000,20000,266000,302873,
-5748,-8264,12704,-576,488,-5,-39000,20000,266000,302875,
-5836,-8100,12880,-690,443,-28,-39000,20000,266000,302877,
-5844,-7972,12980,-642,437,-7,-39000,20000,266000,302890,
-5840,-7844,12780,-502,486,26,-39000,20000,266000,302892,
-5748,-7916,12820,-641,444,-6,-39000,20000,266000,302894,
-5800,-7988,12872,-590,525,46,-39000,20000,266000,302907,
-5864,-8012,12812,-525,557,68,-39000,20000,266000,302909,
-5904,-8028,12976,-603,505,37,-39000,20000,266000,302911,
-6048,-7904,12852,-546,473,59,-39000,20000,266000,302924,
-6176,-7908,13000,-608,437,70,-39000,20000,266000,302926,
-5984,-7932,12784,-564,391,45,-39000,20000,266000,302929,
-6120,-7824,12780,-531,290,39,-39000,20000,266000,302941,
-6344,-7952,12676,-679,168,-11,-39000,20000,266000,302943,
-6352,-7936,12800,-529,170,-12,-39000,20000,266000,302946,
-6272,-7860,12876,-523,-101,-111,-39000,20000,266000,302958,
-6096,-7884,12884,-586,-141,-146,-39000,20000,266000,302961,
-6124,-7864,12596,-521,-56,-116,-39000,20000,266000,302963,
-5964,-7780,12840,-575,-1,-96,-39000,20000,266000,302975,
-6052,-7716,12884,-503,27,-76,-39000,20000,266000,302978,
-6064,-7716,12904,-571,-38,-60,-39000,20000,266000,302980,
-6164,-7684,12808,-574,-196,-7,-39000,20000,266000,302993,
-6032,-7540,12812,-463,-183,-20,-39000,20000,266000,302995,
-6020,-7636,12788,-606,-240,37,-39000,20000,266000,302997,
-6136,-7760,12576,-623,-412,97,-39000,20000,266000,303010,
-6492,-7776,12488,-556,-353,178,-39000,20000,266000,303012,
-6260,-7964,12476,-658,-409,130,-39000,20000,266000,303014,
-6128,-8228,12836,-487,-530,74,-39000,20000,266000,303027,
-6112,-8164,12788,-521,-521,78,-39000,20000,266000,303029,
-6220,-8228,12880,-430,-492,13,-39000,20000,266000,303031,
-6096,-8132,13240,-224,-31,-42,-39000,20000,266000,303044,
-6060,-8052,13068,-316,-36,-107,-39000,20000,266000,303046,
-5956,-7968,13012,-162,133,-90,-39000,20000,266000,303049,
-6188,-8136,13096,-205,697,-180,-39000,20000,266000,303061,
-6268,-7952,13136,-236,693,-192,-39000,20000,266000,303063,
-6372,-8016,13060,-200,822,-214,-39000,20000,266000,303066,
-6720,-8200,13088,-249,776,-321,-39000,21000,266000,303078,
-6624,-8180,12952,-186,783,-346,-39000,21000,266000,303081,
-6676,-8204,12936,-250,786,-314,-39000,21000,266000,303083,
-6780,-8388,13332,-324,760,-444,-39000,21000,266000,303096,
-6880,-8476,13264,-175,793,-440,-39000,21000,266000,303098,
-6924,-8552,13356,-299,715,-484,-39000,21000,266000,303100,
-6808,-8808,13888,-201,797,-666,-39000,21000,266000,303113,
-6756,-8900,13756,-86,870,-661,-39000,21000,266000,303115,
-6808,-8840,13848,-171,829,-727,-39000,21000,266000,303117,
-6868,-9092,14136,22,1157,-920,-39000,21000,266000,303130,
-6908,-9164,14168,3,1206,-903,-39000,21000,266000,303132,
-6816,-9108,14088,10,1291,-982,-39000,21000,266000,303135,
-6800,-9160,14408,93,1671,-1226,-39000,21000,266000,303147,
-6840,-9064,14340,-35,1636,-1282,-39000,21000,266000,303149,
-6940,-9228,14436,87,1751,-1354,-39000,21000,266000,303152,
-6908,-9376,14916,20,1844,-1749,-39000,21000,265000,303164,
-6932,-9360,14948,-113,1758,-1867,-39000,21000,265000,303167,
-6760,-9484,14940,29,1851,-1919,-39000,21000,265000,303169,
-6188,-9636,15668,-40,1904,-2359,-39000,21000,265000,303181,
-6152,-9712,15808,-66,1892,-2461,-39000,21000,265000,303184,
-6188,-9708,16012,-12,1973,-2459,-39000,21000,265000,303186,
-5432,-9348,16216,-86,2109,-2865,-39000,21000,265000,303198,
-5280,-9132,16232,-83,2108,-2946,-39000,21000,264000,303201,
-4956,-9068,16316,-124,2145,-3001,-39000,21000,264000,303203,
-4512,-8708,16744,-386,2162,-3439,-39000,21000,264000,303216,
-4380,-8708,16804,-317,2245,-3517,-39000,21000,264000,303218,
-4276,-8664,16788,-502,2237,-3546,-39000,21000,264000,303220,
-3576,-8336,17424,-787,2229,-3673,-40000,20000,263000,303233,
-3392,-8236,17588,-705,2225,-3610,-40000,20000,263000,303235,
-3384,-8208,17372,-928,2089,-3615,-40000,20000,263000,303237,
-2664,-7824,17700,-1357,1547,-3390,-40000,20000,263000,303250,
-2664,-7700,17772,-1475,1411,-3267,-40000,20000,263000,303252,
-1928,-7104,17260,-2224,370,-2923,-40000,20000,263000,303265,
-1756,-6896,17400,-2253,153,-2780,-40000,20000,263000,303267,
-1664,-6996,17476,-2513,-144,-2666,-40000,20000,263000,303270,
-1144,-6732,17032,-3490,-1312,-1946,-40000,20000,263000,303282,
-1264,-6768,16952,-3503,-1532,-1790,-40000,19000,263000,303284,
-932,-6704,16724,-3788,-1823,-1633,-40000,19000,263000,303287,
-528,-6472,16480,-4559,-3159,-516,-41000,19000,263000,303299,
-268,-6532,16428,-4637,-3319,-247,-41000,19000,263000,303302,
-164,-6428,16292,-4908,-3634,-60,-41000,19000,263000,303304,
420,-6156,15084,-5652,-4616,1352,-41000,19000,263000,303316,
560,-5988,15000,-5885,-4716,1652,-41000,18000,263000,303319,
640,-6216,14180,-6729,-5118,3097,-41000,18000,264000,303331,
596,-6220,14116,-6724,-5131,3434,-42000,18000,264000,303334,
684,-6220,13816,-6948,-5264,3678,-42000,18000,264000,303336,
432,-6272,12580,-7431,-5682,5169,-42000,18000,265000,303348,
164,-6412,12452,-7469,-5694,5505,-42000,18000,265000,303351,
284,-6240,12332,-7574,-5823,5713,-42000,18000,265000,303353,
116,-6348,11320,-7761,-6179,6779,-42000,18000,266000,303366,
336,-6244,10920,-7911,-6239,6928,-43000,18000,267000,303368,
204,-6344,10800,-7873,-6127,7058,-43000,18000,267000,303370,
-252,-6524,9688,-8044,-6095,7931,-43000,18000,268000,303383,
-324,-6484,9592,-8136,-6150,8083,-43000,18000,268000,303385,
-408,-6548,9344,-8029,-6077,8281,-43000,18000,268000,303387,
-1208,-6700,8156,-7956,-6126,9005,-44000,18000,269000,303400,
-1424,-6892,8184,-7842,-6231,9092,-44000,18000,269000,303402,
-1580,-6860,7908,-7815,-6329,9157,-44000,18000,270000,303404,
-1808,-7128,7816,-7193,-6882,9453,-44000,18000,271000,303417,
-1932,-7172,7848,-6931,-6851,9520,-44000,18000,271000,303419,
-1628,-6884,7576,-6064,-7189,9900,-44000,18000,272000,303432,
-1712,-6984,7496,-5923,-7291,9991,-44000,18000,273000,303434,
-1736,-6756,7208,-5723,-7312,10055,-44000,18000,273000,303436,
-2344,-6508,6540,-4983,-7943,10387,-44000,18000,274000,303449,
-2556,-6600,6404,-4767,-8056,10452,-44000,18000,274000,303451,
-2344,-6656,6304,-4673,-8127,10438,-44000,18000,275000,303454,
-2760,-6820,6200,-3668,-8810,10687,-44000,18000,276000,303466,
-2872,-6864,6028,-3367,-8788,10780,-44000,18000,276000,303468,
-3176,-6976,6336,-3285,-8823,10804,-44000,18000,276000,303471,
-3716,-7628,6616,-2177,-8500,11171,-44000,19000,278000,303483,
-3596,-7700,6984,-1829,-8344,11212,-44000,19000,278000,303486,
-4016,-6940,6984,-603,-8794,11462,-43000,19000,280000,303498,
-3932,-6796,7036,-407,-8897,11495,-43000,19000,280000,303501,
-3952,-6696,7008,-158,-8817,11514,-43000,19000,280000,303503,
-3444,-5900,6404,602,-8595,11399,-43000,19000,282000,303515,
-3384,-5696,6276,787,-8583,11373,-43000,19000,282000,303518,
-3628,-5544,6432,830,-8568,11342,-43000,19000,282000,303520,
-3984,-5072,6004,1279,-8382,11166,-42000,19000,284000,303533,
-4164,-4936,6024,1442,-8324,11172,-42000,19000,284000,303535,
-4384,-4992,6184,1402,-8347,11132,-42000,19000,284000,303537,
-5716,-4704,6116,1760,-8632,11148,-41000,20000,285000,303550,
-5844,-4780,6052,1978,-8572,11196,-41000,20000,286000,303552,
-5872,-4768,5928,1893,-8673,11261,-41000,20000,286000,303554,
-6464,-4784,5952,2491,-9671,11457,-40000,20000,288000,303567,
-6388,-4668,5848,2636,-9859,11450,-40000,20000,288000,303569,
-6096,-3968,5228,3081,-11100,11587,-39000,20000,290000,303582,
-6100,-3804,5120,3242,-11267,11630,-39000,20000,290000,303584,
-5924,-3632,4988,3279,-11351,11608,-39000,20000,290000,303586,
-5964,-3152,4476,3672,-11561,11587,-38000,20000,292000,303599,
-6060,-3048,4572,3886,-11624,11591,-37000,20000,292000,303601,
-6268,-3052,4888,3812,-11767,11513,-37000,20000,292000,303604,
-6572,-2508,5040,4542,-12718,11213,-36000,20000,294000,303616,
-6476,-2584,5204,4768,-12818,11113,-36000,20000,294000,303618,
-6372,-2192,5324,4857,-13052,11021,-36000,20000,295000,303621,
-6204,-2064,6972,6027,-13078,10474,-35000,19000,296000,303633,
-6128,-2368,7388,6173,-12846,10335,-34000,19000,297000,303636,
-5496,-2448,8808,7711,-11659,9935,-33000,19000,298000,303648,
-5520,-2256,8724,8128,-11379,10013,-33000,19000,299000,303651,
-5592,-2000,8408,8214,-11188,10042,-32000,19000,299000,303653,
-5188,-1208,8884,9245,-9095,10473,-31000,19000,300000,303665,
-5248,-1260,8468,9504,-8549,10477,-31000,19000,301000,303668,
-5216,-1316,8448,9560,-8131,10507,-30000,19000,301000,303670,
-6652,-2284,9320,10337,-4871,10453,-29000,19000,302000,303683,
-6732,-2352,9636,10446,-4153,10465,-29000,19000,302000,303685,
-7164,-2336,9920,10565,-3579,10426,-28000,19000,302000,303687,
-9368,-1632,11160,11465,-1797,10424,-27000,19000,304000,303700,
-9680,-1424,11532,11433,-1662,10394,-27000,20000,304000,303702,
-10688,-352,13528,11875,-896,9709,-25000,20000,305000,303715,
-10792,-40,13588,12056,-701,9561,-25000,20000,305000,303717,
-10984,204,13800,11965,-641,9393,-24000,20000,305000,303719,
-12208,1472,14960,11905,-48,8351,-23000,21000,306000,303732,
-12336,1668,15064,11983,228,8248,-23000,21000,306000,303734,
-12720,1760,15156,11834,248,8108,-22000,21000,306000,303737,
-15632,1716,14440,11280,1015,7189,-21000,21000,307000,303749,
-16152,1532,14100,11058,972,7033,-21000,21000,307000,303751,
-16660,1388,13920,10946,697,6983,-20000,21000,307000,303754,
-17044,836,14596,10306,-1184,5695,-19000,22000,308000,303766,
-17644,336,15328,10031,-1189,5340,-19000,22000,308000,303769,
-17840,596,16376,10281,-1795,4936,-18000,22000,308000,303771,
-17456,1784,16664,10212,-3458,2920,-17000,22000,308000,303783,
-17560,1980,16724,10096,-3823,2592,-17000,22000,309000,303786,
-17476,2132,16812,10214,-4034,2296,-17000,22000,309000,303788,
-17156,2596,17960,10173,-4854,487,-16000,21000,309000,303801,
-16964,2588,17884,10116,-5001,89,-15000,21000,309000,303803,
-15768,2552,18780,10369,-5015,-1629,-14000,21000,309000,303815,
-15504,2604,18996,10293,-4892,-1842,-14000,21000,309000,303818,
-15100,2516,19088,10453,-4579,-2101,-14000,21000,309000,303820,
-14312,3024,19744,10628,-2713,-2896,-13000,21000,309000,303833,
-14200,3288,19924,10533,-2417,-3056,-13000,21000,309000,303835,
-14184,3444,19944,10639,-2001,-3148,-12000,21000,309000,303837,
-14060,3824,20332,10322,-441,-3968,-11000,20000,308000,303850,
-14052,3860,20432,10185,-335,-4156,-11000,20000,308000,303852,
-14172,4176,21064,9463,746,-4801,-10000,21000,308000,303865,
-14104,4288,20856,9166,984,-4842,-10000,21000,308000,303867,
-14288,4320,21116,9063,1208,-4983,-10000,21000,308000,303869,
-14048,4484,22720,8165,2054,-5725,-9000,21000,307000,303882,
-13892,4336,23120,7928,2137,-5892,-9000,21000,307000,303884,
-14032,4340,23576,7951,2325,-6108,-9000,21000,307000,303886,
-14544,4508,24664,7316,2946,-6934,-9000,21000,306000,303899,
-14736,4524,24856,7140,2957,-7122,-9000,21000,306000,303901,
-14864,4660,25208,7130,3040,-7299,-9000,21000,306000,303904,
-16300,4024,25528,6160,2506,-8476,-8000,21000,305000,303916,
-16272,3904,25524,5989,2193,-8780,-8000,21000,305000,303919,
-16356,3760,25708,5785,1802,-8971,-8000,21000,305000,303921,
-15664,3176,25988,4697,-482,-10590,-8000,21000,304000,303933,
-15232,3052,26188,4700,-808,-10927,-8000,21000,303000,303936,
-15076,2908,26316,4429,-1172,-11211,-8000,21000,303000,303938,
-13780,2456,26568,4007,-2338,-12850,-8000,21000,302000,303951,
-13516,2260,26700,4144,-2432,-13144,-8000,21000,302000,303953,
-12164,956,26596,4262,-2689,-14766,-8000,20000,300000,303966,
-11784,656,26692,4299,-2669,-15081,-8000,20000,300000,303968,
-11468,324,26768,4510,-2476,-15340,-8000,20000,300000,303970,
-8932,-1064,26540,5405,-1070,-16866,-8000,20000,298000,303983,
-8564,-1200,26552,5734,-634,-17236,-8000,20000,298000,303985,
-8252,-1220,26444,5865,-216,-17452,-8000,20000,297000,303987,
-7080,-692,25548,6965,2511,-18552,-8000,20000,295000,304000,
-6656,-364,25652,7269,3023,-18653,-8000,20000,295000,304002,
-6588,-56,25480,7301,3399,-18784,-8000,20000,295000,304005,
-5452,852,25648,8190,4933,-19781,-8000,20000,293000,304017,
-5412,812,25556,8464,5246,-20021,-8000,20000,292000,304020,
-5276,756,25804,8512,5361,-20328,-8000,20000,292000,304022,
-4984,236,26556,9511,5835,-21886,-8000,20000,290000,304034,
-4960,188,26840,9735,5802,-22060,-7000,20000,289000,304037,
-4896,252,26988,9865,5673,-22405,-7000,20000,289000,304039,
-4664,816,28488,10794,4710,-23590,-7000,20000,286000,304052,
-4684,920,28480,10790,4510,-23642,-7000,20000,286000,304054,
-4584,1212,28644,10953,4309,-23877,-7000,20000,285000,304056,
-4316,2344,28948,10744,3408,-24357,-7000,20000,283000,304069,
-4332,2460,28924,10433,3256,-24450,-7000,20000,282000,304071,
-4276,2756,28656,10354,3239,-24515,-7000,20000,282000,304073,
-3196,4160,28800,8519,2009,-24577,-7000,20000,280000,304086,
-2964,4312,28940,8090,1570,-24717,-7000,20000,279000,304088,
-1108,5452,29428,5689,-796,-25236,-7000,19000,277000,304101,
-836,5628,29552,5109,-1240,-25295,-7000,19000,276000,304103,
-556,5684,29712,4716,-1647,-25486,-7000,19000,276000,304105,
812,6100,30584,2003,-3726,-25564,-8000,18000,273000,304118,
1096,6192,30712,1357,-4191,-25482,-8000,18000,273000,304120,
1580,6420,30680,1009,-4468,-25427,-8000,18000,272000,304122,
3848,7000,29456,-1807,-6049,-24761,-9000,17000,270000,304135,
4436,7240,29412,-2397,-6204,-24735,-9000,17000,270000,304137,
5144,7420,29056,-2819,-6129,-24508,-9000,17000,269000,304140,
8488,7976,29024,-5476,-4958,-23831,-10000,15000,267000,304152,
9096,8080,28636,-5961,-4541,-23777,-10000,15000,267000,304154,
9492,7932,28564,-6340,-3957,-23419,-10000,15000,266000,304157,
10688,6776,27792,-8436,-1237,-21790,-12000,14000,264000,304169,
10660,6444,27616,-8644,-743,-21469,-12000,14000,264000,304171,
10232,5868,26152,-10066,857,-19038,-13000,14000,262000,304184,
9968,5788,25900,-10417,908,-18636,-13000,14000,262000,304186,
9864,5744,25772,-10528,1091,-18124,-13000,14000,261000,304189,
9592,5176,24456,-11592,1005,-15565,-15000,13000,260000,304201,
9896,5156,24228,-11747,944,-15253,-15000,13000,259000,304203,
9352,4856,24268,-11857,730,-14717,-15000,13000,259000,304206,
9016,4592,22096,-12722,-130,-11801,-17000,12000,258000,304218,
8928,4568,21668,-12856,-279,-11344,-17000,12000,258000,304221,
9028,4492,21236,-13035,-408,-10563,-17000,12000,258000,304223,
9744,4104,19688,-14155,-690,-7786,-18000,12000,257000,304236,
9928,4056,19400,-14263,-557,-7357,-19000,12000,257000,304238,
10456,3372,17916,-15682,281,-5365,-20000,11000,257000,304250,
10456,3344,17820,-15969,453,-5085,-20000,11000,256000,304253,
10560,3116,17684,-16073,752,-4716,-21000,11000,256000,304255,
10408,1984,17432,-17170,2396,-3020,-22000,11000,256000,304267,
10320,1892,17296,-17192,2777,-2680,-23000,11000,256000,304270,
10156,1732,17252,-17426,3047,-2313,-23000,11000,256000,304272,
8692,1984,15356,-18164,3945,-139,-24000,11000,256000,304285,
8388,2000,15136,-18212,4128,257,-25000,11000,256000,304287,
8256,2088,14560,-18486,4160,596,-25000,11000,256000,304289,
6892,1768,13016,-19299,3959,2063,-27000,11000,256000,304302,
6736,1752,12892,-19313,3904,2311,-27000,11000,256000,304304,
6052,1528,12604,-19545,3666,2534,-27000,11000,256000,304306,
4124,752,11656,-19945,2217,3853,-29000,12000,256000,304319,
3836,688,11232,-19938,1823,4162,-29000,12000,256000,304321,
3524,564,11180,-19997,1373,4401,-30000,12000,256000,304324,
2008,-36,9948,-19847,-1315,5859,-31000,12000,257000,304336,
1572,-308,9908,-19879,-1991,6110,-32000,12000,257000,304338,
1320,-472,9756,-19760,-2530,6314,-32000,12000,257000,304341,
704,-1424,8904,-19147,-5428,7410,-33000,12000,258000,304353,
716,-1548,8620,-19191,-5878,7597,-34000,11000,258000,304356,
12,-2028,7800,-18271,-8019,8734,-35000,11000,259000,304368,
20,-2172,7904,-18091,-8375,8933,-35000,11000,260000,304370,
-64,-2148,7756,-17931,-8804,9102,-35000,11000,260000,304373,
-248,-2620,6804,-16971,-9975,9897,-37000,11000,261000,304385,
-332,-2688,6560,-16920,-10097,9989,-37000,11000,261000,304387,
-412,-2912,6188,-16654,-10178,10179,-37000,11000,262000,304390,
-836,-3468,5128,-15867,-10487,10753,-38000,11000,263000,304402,
-1092,-3548,5220,-15803,-10553,10902,-39000,11000,263000,304405,
-1336,-3696,5044,-15549,-10378,11037,-39000,11000,264000,304407,
-2708,-4692,4644,-14728,-9910,11675,-40000,11000,265000,304419,
-2696,-4488,5528,-14406,-9761,11746,-40000,11000,265000,304422,
-3488,-5232,5304,-13168,-9060,12076,-41000,11000,267000,304434,
-3588,-5548,5436,-13061,-8998,12154,-41000,11000,267000,304437,
-3740,-5636,5216,-12726,-8715,12278,-42000,11000,267000,304439,
-4804,-6076,5208,-11590,-7784,12479,-42000,11000,269000,304452,
-4944,-5984,5360,-11388,-7617,12492,-43000,11000,269000,304454,
-5144,-6004,5232,-11121,-7410,12457,-43000,11000,269000,304456,
-6160,-6044,5788,-10121,-6925,12401,-43000,12000,271000,304469,
-6312,-6136,5596,-9871,-6843,12365,-44000,12000,271000,304471,
-7652,-6772,5360,-9010,-6823,11876,-44000,13000,272000,304484,
-7816,-6836,5124,-8986,-6923,11689,-44000,13000,273000,304486,
-8076,-7152,5140,-8706,-6875,11584,-44000,13000,273000,304488,
-9944,-7976,5024,-7996,-6939,10790,-45000,13000,274000,304501,
-9968,-8164,4760,-7904,-7045,10651,-45000,13000,274000,304503,
-10320,-8324,5016,-7690,-7090,10520,-45000,13000,274000,304505,
-10072,-8968,5092,-6799,-7873,9580,-46000,14000,276000,304518,
-9868,-9156,5428,-6497,-7910,9365,-46000,14000,276000,304520,
-9652,-9264,5400,-6353,-7930,9159,-46000,14000,276000,304523,
-8252,-9632,6880,-4982,-7149,8024,-46000,14000,277000,304535,
-8140,-9500,7064,-4599,-6653,7906,-46000,14000,277000,304538,
-7352,-8860,7600,-3484,-3681,7509,-46000,14000,278000,304550,
-7612,-8764,7732,-3338,-3112,7486,-46000,15000,278000,304552,
-7624,-8696,7804,-3143,-2423,7471,-46000,15000,278000,304555,
-9056,-9100,8512,-2536,175,7041,-46000,15000,279000,304567,
-9232,-9088,8656,-2314,428,6899,-46000,15000,279000,304570,
-9624,-9168,8548,-2232,664,6742,-46000,15000,279000,304572,
-10752,-9496,8736,-1607,1226,5474,-46000,16000,279000,304585,
-10916,-9500,8708,-1375,1271,5312,-46000,16000,279000,304587,
-11124,-9720,8832,-1404,1119,5138,-46000,16000,279000,304589,
-10972,-10040,9604,-671,848,4254,-46000,17000,280000,304602,
-10988,-10020,9620,-505,856,4107,-46000,17000,280000,304604,
-10992,-9884,9576,-445,735,3926,-46000,17000,280000,304606,
-11036,-9556,9384,-32,517,3148,-46000,17000,280000,304619,
-10960,-9448,9388,-81,482,3021,-46000,17000,280000,304621,
-10856,-9360,9152,-26,484,2842,-46000,17000,280000,304623,
-10576,-9188,8948,5,310,1924,-46000,18000,280000,304636,
-10484,-9188,9008,-127,164,1712,-46000,18000,280000,304638,
-10520,-9208,9156,13,194,1554,-46000,18000,280000,304641,
-10148,-9112,9644,-116,-69,996,-46000,18000,280000,304653,
-9848,-9072,9548,-178,-125,896,-46000,18000,280000,304655,
-9772,-9024,9632,-96,-58,889,-46000,18000,280000,304658,
-9004,-8876,9528,-230,-176,582,-46000,18000,280000,304670,
-8760,-8808,9608,-225,-223,534,-46000,18000,280000,304673,
-8716,-8724,9624,-272,-206,538,-46000,18000,280000,304675,
-8124,-8520,9668,-374,-181,227,-46000,18000,280000,304687,
-8024,-8440,9468,-296,-230,231,-46000,18000,280000,304690,
-8200,-8420,9468,-425,-295,288,-46000,18000,280000,304692,
-7992,-8512,9748,-550,-621,688,-46000,19000,280000,304705,
-7840,-8668,9856,-422,-609,728,-46000,19000,280000,304707,
-7504,-8700,10032,-543,-733,716,-46000,19000,280000,304709,
-7048,-8788,10528,-255,-819,657,-46000,19000,281000,304722,
-7056,-8976,10728,-246,-794,721,-46000,19000,281000,304724,
-7032,-9080,10756,-148,-773,657,-46000,19000,281000,304726,
-7100,-9084,10696,147,-726,800,-46000,19000,281000,304739,
-6784,-8956,10592,70,-805,782,-46000,19000,281000,304741,
-6872,-9024,10716,214,-791,758,-46000,19000,281000,304743,
-6752,-9184,10284,354,-858,475,-46000,19000,281000,304756,
-6840,-9388,10480,327,-893,405,-46000,19000,281000,304758,
-6824,-9356,10540,441,-839,368,-46000,19000,281000,304761,
-6332,-9520,10904,651,-953,74,-46000,19000,281000,304773,
-6328,-9572,11016,705,-924,-17,-46000,19000,281000,304775,
-6312,-9508,10848,748,-852,-47,-46000,19000,281000,304778,
-6140,-9508,10916,888,-335,-295,-46000,19000,281000,304790,
-6120,-9448,11096,1030,-205,-379,-46000,19000,281000,304793,
-5968,-9468,11116,942,-115,-375,-46000,19000,281000,304795,
-5504,-9636,11800,1136,465,-558,-45000,19000,281000,304808,
-5372,-9656,11908,1342,632,-579,-45000,19000,281000,304810,
-5452,-9668,11852,1265,656,-631,-45000,19000,281000,304812,
-5056,-9396,12160,1593,1265,-748,-45000,19000,281000,304825,
-4840,-9360,12376,1740,1489,-709,-45000,19000,281000,304827,
-4824,-9244,12508,1663,1582,-710,-45000,19000,281000,304830,
-5096,-9372,12824,1920,2516,-667,-45000,19000,281000,304842,
-5244,-9424,12932,1875,2527,-634,-45000,19000,281000,304844,
-5256,-9324,12828,1962,2628,-626,-45000,19000,281000,304847,
-5452,-9020,12688,2092,2487,-475,-45000,19000,280000,304859,
-5204,-9024,12548,1915,2380,-519,-45000,19000,280000,304862,
-5252,-9020,12644,2025,2335,-560,-45000,19000,280000,304864,
-5872,-8840,12392,1894,1887,-604,-44000,19000,280000,304876,
-5908,-8852,12348,1783,1715,-633,-44000,19000,280000,304879,
-5928,-8632,12592,1833,1620,-553,-44000,19000,280000,304881,
-5064,-8704,12772,1651,783,-431,-44000,19000,280000,304893,
-4928,-8668,12740,1625,720,-458,-44000,19000,280000,304896,
-4960,-8636,12948,1621,737,-432,-44000,19000,280000,304898,
-4324,-8368,12924,1287,1079,-559,-44000,19000,280000,304911,
-4300,-8488,12952,1329,1252,-545,-44000,19000,280000,304913,
-4276,-8304,12996,1166,1376,-495,-44000,19000,280000,304915,
-4924,-8476,12988,759,2186,-442,-44000,19000,280000,304928,
-5544,-8500,12768,920,1771,-470,-44000,19000,280000,304930,
-5420,-8608,13044,605,2626,-457,-44000,19000,280000,304932,
-5648,-8672,13024,456,1936,-388,-44000,19000,279000,304945,
-5524,-8688,12976,529,1876,-370,-44000,19000,279000,304947,
-5504,-8732,12988,389,1768,-427,-44000,19000,279000,304950,
-5592,-9096,13688,489,1432,-549,-44000,20000,279000,304962,
-5684,-8952,13752,499,1360,-537,-44000,20000,279000,304964,
-5720,-8932,13820,521,1252,-569,-44000,20000,279000,304967,
-5820,-8796,13652,593,986,-515,-44000,20000,279000,304979,
-5852,-8684,13772,473,862,-536,-44000,20000,279000,304982,
-5788,-8736,13684,579,777,-538,-44000,20000,279000,304984,
-5464,-8612,13640,561,312,-604,-43000,20000,279000,304996,
-5600,-8532,13596,447,179,-636,-43000,20000,279000,304999,
-5492,-8384,13288,522,199,-591,-43000,20000,279000,305001,
-5888,-8416,13364,206,72,-488,-43000,20000,279000,305014,
-5652,-8424,13392,218,-42,-510,-43000,20000,279000,305016,
-5996,-8556,13400,179,-122,-513,-43000,20000,279000,305018,
-5476,-8472,13536,148,-812,-664,-43000,19000,279000,305031,
-5396,-8464,13528,297,-838,-657,-43000,19000,279000,305033,
-5316,-8352,13400,146,-914,-667,-43000,19000,279000,305035,
-4944,-8304,13532,70,-747,-603,-43000,19000,279000,305048,
-4888,-8272,13524,141,-659,-559,-43000,19000,279000,305050,
-4756,-8260,13392,34,-687,-595,-43000,19000,279000,305052,
-4436,-8056,13152,36,-220,-480,-43000,19000,279000,305065,
-4300,-8044,13264,-46,-101,-407,-43000,19000,279000,305067,
-4216,-7992,13152,-42,68,-459,-43000,19000,279000,305070,
-4656,-8336,13280,-96,752,-274,-43000,19000,279000,305082,
-4664,-8268,13332,-197,736,-252,-43000,19000,279000,305084,
-4756,-8352,13248,-97,796,-299,-43000,19000,279000,305087,
-5052,-8168,12936,-107,923,-176,-43000,19000,279000,305099,
-4880,-8328,12976,-235,903,-211,-43000,19000,279000,305102,
-5128,-8372,13088,-131,978,-147,-43000,19000,279000,305104,
-5264,-8692,13644,-156,895,-163,-43000,19000,279000,305117,
-5388,-8800,13736,-89,830,-195,-43000,19000,279000,305119,
-5364,-8644,13716,-78,769,-172,-43000,19000,279000,305121,
-5484,-8576,13740,-8,455,-303,-43000,19000,279000,305134,
-5468,-8644,13364,119,504,-262,-43000,19000,279000,305136,
-5688,-8516,13524,-48,495,-272,-43000,19000,279000,305138,
-5684,-8476,13420,-99,353,-427,-43000,19000,279000,305151,
-5776,-8320,13572,-42,301,-441,-43000,19000,279000,305153,
-5716,-8296,13648,-154,167,-483,-43000,19000,279000,305155,
-5660,-8312,13592,-209,-194,-681,-43000,19000,279000,305168,
-5752,-8452,13500,-297,-225,-658,-43000,19000,279000,305170,
-5848,-8472,13516,-306,-288,-694,-43000,19000,279000,305173,
-5584,-8528,13440,-392,-368,-653,-43000,19000,279000,305185,
-5440,-8524,13488,-519,-428,-643,-43000,19000,279000,305188,
-5536,-8720,13412,-441,-407,-661,-43000,19000,279000,305190,
-5196,-8704,13112,-452,-481,-646,-43000,19000,279000,305202,
-5236,-8724,13220,-636,-459,-680,-43000,19000,279000,305205,
-5300,-8584,13028,-527,-301,-666,-43000,19000,279000,305207,
-5424,-8708,13156,-648,-381,-697,-43000,19000,279000,305220,
-5264,-8760,13192,-663,-474,-760,-43000,19000,279000,305222,
-5264,-8756,13112,-620,-430,-740,-43000,19000,279000,305224,
-4844,-8560,12928,-716,-405,-764,-43000,19000,279000,305237,
-4748,-8628,12876,-624,-316,-780,-43000,19000,279000,305239,
-4828,-8556,12840,-738,-222,-721,-43000,19000,279000,305241,
-4520,-8528,12740,-756,97,-609,-43000,19000,279000,305254,
-4412,-8596,12884,-615,241,-583,-43000,19000,279000,305256,
-4656,-8628,12772,-748,257,-574,-43000,19000,279000,305259,
-4704,-8752,12968,-650,720,-458,-43000,19000,279000,305271,
-4744,-8644,13088,-593,782,-352,-43000,19000,279000,305274,
-4644,-8620,13084,-567,783,-346,-43000,19000,279000,305276,
-4528,-8544,12912,-438,963,-284,-43000,19000,279000,305288,
-4564,-8584,13048,-442,1018,-254,-43000,19000,279000,305291,
-4604,-8524,12812,-427,1075,-276,-43000,19000,279000,305293,
-5316,-8836,13068,-320,1359,-280,-43000,19000,278000,305306,
-5168,-8776,13024,-403,1332,-266,-43000,19000,278000,305308,
-5304,-8776,13132,-305,1345,-287,-43000,19000,278000,305310,
-5400,-8560,12908,-154,832,-327,-43000,19000,278000,305323,
-5604,-8544,13020,-266,643,-338,-43000,19000,278000,305325,
-5508,-8544,13032,-143,661,-386,-43000,19000,278000,305327,
