Ax,Ay,Az,Gx,Gy,Gz,Roll,Pitch,Yaw,Timestamp,Target
-1308,12104,10080,-565,102,-294,43000,7000,265000,774060,
-1340,12128,10188,-574,32,-313,43000,7000,265000,774073,
-1460,12032,10076,-510,133,-288,43000,7000,265000,774075,
-1428,12184,10044,-558,69,-274,43000,7000,265000,774077,
-1376,12084,10100,-512,32,-289,43000,7000,265000,774090,
-1428,12076,10160,-562,92,-293,43000,7000,265000,774092,
-1328,12008,10108,-570,19,-269,43000,7000,265000,774095,
-1368,12108,10052,-536,106,-317,43000,7000,265000,774107,
-1360,12124,10080,-550,46,-348,43000,7000,265000,774109,
-1396,12124,9992,-532,60,-339,43000,7000,265000,774112,
-1464,12200,9932,-597,127,-383,43000,7000,265000,774124,
-1368,12160,10036,-620,82,-361,43000,7000,265000,774127,
-1420,12204,9972,-589,170,-341,43000,7000,265000,774129,
-1420,12024,10096,-672,77,-349,43000,7000,265000,774141,
-1436,12076,10072,-623,89,-355,43000,7000,265000,774144,
-1452,12004,10068,-659,52,-346,43000,7000,265000,774146,
-1444,1,9888,11828,-73,-504,-234,34000,-14000,313000,
5592,10040,12032,-274,-68,-432,34000,-14000,313000,776511,
5396,10032,12004,-231,-115,-324,34000,-14000,313000,776523,
5456,9892,11884,-228,-102,-320,34000,-14000,313000,776526,
-1616,12020,10104,-679,157,-362,43000,7000,265000,774193,
-1596,12032,9964,-704,133,-373,43000,7000,265000,774195,
-1528,12016,10144,-691,106,-343,43000,7000,265000,774197,
-1640,11964,10180,-667,140,-343,43000,7000,265000,774210,
-1624,11928,10336,-690,28,-326,43000,7000,265000,774212,
-1656,12072,10044,-669,101,-323,43000,7000,265000,774214,
-1612,12028,10156,-729,-45,-293,43000,7000,265000,774227,
-1692,12016,10188,-659,-34,-299,43000,7000,265000,774229,
-1636,12108,10192,-710,-69,-289,43000,7000,265000,774231,
-1616,12092,10240,-667,-65,-230,42000,7000,265000,774244,
-1596,11992,10160,-678,-13,-260,42000,7000,265000,774246,
-1572,12048,10240,-691,-67,-203,42000,7000,265000,774249,
-1532,11948,10276,-639,-25,-208,42000,7000,264000,774261,
-1488,11944,10132,-668,-13,-213,42000,7000,264000,774263,
-1340,12064,10140,-606,-24,-229,42000,7000,264000,774266,
-1364,12124,10184,-533,142,-252,42000,7000,264000,774278,
-1416,12148,10104,-586,102,-279,42000,7000,264000,774281,
-1476,12204,10196,-539,193,-259,42000,7000,264000,774283,
-1388,12128,10108,-617,221,-254,42000,7000,264000,774295,
-1444,12120,10200,-581,261,-238,42000,7000,264000,774298,
-1468,12172,10128,-590,282,-284,42000,7000,264000,774300,
-1428,11992,10272,-585,249,-299,42000,7000,264000,774313,
-1616,12024,10228,-549,310,-308,42000,7000,264000,774315,
-1504,12016,10148,-573,244,-294,42000,7000,264000,774317,
-1584,12004,10304,-532,187,-310,42000,7000,264000,774330,
-1584,11968,10240,-540,192,-292,42000,7000,264000,774332,
-1512,11972,10092,-507,135,-328,42000,7000,264000,774334,
-1476,11884,10160,-489,138,-291,42000,7000,264000,774347,
-1496,12004,10216,-531,176,-294,42000,7000,264000,774349,
-1544,12028,10148,-507,151,-304,42000,7000,264000,774352,
-1528,12124,10300,-543,177,-284,42000,7000,264000,774364,
-1660,12012,10108,-591,94,-224,42000,7000,264000,774366,
-1488,12016,10212,-560,134,-255,42000,7000,264000,774369,
-1480,12012,10084,-639,85,-204,42000,7000,264000,774381,
-1488,12056,10192,-591,120,-201,42000,7000,264000,774384,
-1484,11992,10320,-645,92,-211,42000,7000,264000,774386,
-1500,11972,10132,-620,100,-170,42000,7000,264000,774399,
-1408,11988,10132,-638,109,-181,42000,7000,264000,774401,
-1432,12072,10312,-624,58,-209,42000,7000,264000,774403,
-1404,12132,10164,-644,51,-231,42000,7000,264000,774416,
-1292,12180,10072,-608,64,-225,42000,7000,264000,774418,
-1432,12088,10236,-626,73,-258,42000,7000,264000,774420,
-1396,12108,10300,-623,46,-263,42000,7000,264000,774433,
-1440,12140,10252,-607,62,-266,42000,7000,264000,774435,
-1252,12164,10240,-612,104,-286,42000,7000,264000,774437,
-1436,12040,10356,-615,95,-322,42000,7000,264000,774450,
-1388,11988,10312,-591,156,-323,42000,7000,264000,774452,
-1352,12064,10328,-604,158,-313,42000,7000,264000,774454,
-1372,11980,10320,-597,169,-369,42000,7000,264000,774467,
-1356,11960,10340,-540,314,-407,42000,7000,264000,774469,
-1456,11944,10372,-585,272,-417,42000,7000,264000,774472,
-1508,11996,10244,-560,299,-441,42000,7000,264000,774484,
-1476,11980,10364,-540,370,-424,42000,7000,264000,774486,
-1492,11976,10360,-562,294,-445,42000,7000,264000,774489,
-1548,12004,10236,-498,362,-423,42000,8000,264000,774501,
-1604,11920,10432,-588,372,-411,42000,8000,264000,774504,
-1548,11944,10324,-502,323,-405,42000,8000,264000,774506,
-1612,11860,10212,-471,341,-388,42000,8000,264000,774518,
-1576,11948,10304,-548,279,-408,42000,8000,264000,774521,
-1492,11960,10436,-499,286,-387,42000,8000,264000,774523,
-1564,12020,10320,-482,317,-410,42000,8000,264000,774535,
-1656,11976,10364,-486,226,-400,42000,8000,264000,774538,
-1636,12068,10376,-431,328,-414,42000,8000,264000,774540,
-1600,11964,10416,-482,236,-367,42000,8000,264000,774552,
-1628,12072,10176,-476,147,-366,42000,8000,264000,774555,
-1688,12036,10260,-454,230,-356,42000,8000,264000,774557,
-1636,12000,10248,-458,133,-322,42000,8000,264000,774569,
-1660,11948,10344,-441,121,-297,42000,8000,264000,774572,
-1548,11996,10424,-434,94,-323,42000,8000,264000,774574,
-1712,11848,10192,-426,44,-323,42000,8000,264000,774587,
-1596,11968,10396,-382,107,-352,42000,8000,264000,774589,
-1656,12016,10292,-404,45,-337,42000,8000,264000,774591,
-1736,12020,10256,-372,1,-280,42000,8000,264000,774604,
-1676,12028,10176,-395,54,-265,42000,8000,264000,774606,
-1648,12028,10224,-406,3,-273,42000,8000,264000,774608,
-1696,12004,10188,-411,85,-278,42000,8000,264000,774621,
-1668,11972,10264,-460,121,-268,42000,8000,264000,774623,
-1612,11936,10312,-424,81,-216,42000,8000,264000,774625,
-1636,11908,10244,-396,140,-248,42000,8000,264000,774638,
-1736,11888,10056,-436,78,-263,42000,8000,264000,774640,
-1720,11956,10072,-393,125,-244,42000,8000,264000,774643,
-1684,12036,10044,-413,33,-235,42000,8000,264000,774655,
-1768,12068,10160,-437,-37,-226,42000,8000,264000,774657,
-1760,12040,10124,-425,28,-217,42000,8000,264000,774660,
-1764,11944,10152,-430,-4,-157,42000,8000,264000,774672,
-1712,11980,10148,-498,-74,-152,42000,8000,264000,774675,
-1744,11960,10128,-453,-21,-134,42000,8000,264000,774677,
-1712,11984,10048,-496,-17,-190,42000,8000,264000,774689,
-1668,11936,10136,-427,60,-193,42000,8000,264000,774692,
-1516,11928,10216,-495,62,-159,42000,8000,264000,774694,
-1460,11876,10192,-451,143,-194,42000,8000,264000,774707,
-1588,12008,10228,-429,192,-216,42000,8000,264000,774709,
-1532,12040,10184,-440,186,-213,42000,8000,264000,774711,
-1640,12092,10088,-441,325,-260,42000,8000,264000,774724,
-1532,11976,10008,-476,316,-235,42000,8000,264000,774726,
-1684,12024,10036,-431,362,-255,42000,8000,264000,774728,
-1640,12024,10032,-446,387,-245,42000,8000,264000,774741,
-1744,12016,9936,-486,355,-279,42000,8000,264000,774743,
-1852,11992,9928,-463,362,-250,42000,8000,264000,774746,
-1888,12048,9980,-490,237,-234,42000,8000,264000,774758,
-1812,11984,10100,-537,128,-178,42000,8000,264000,774760,
-1828,11860,9952,-504,158,-189,42000,8000,264000,774763,
-1816,11924,9932,-546,114,-142,42000,8000,264000,774775,
-1692,11888,10104,-581,44,-145,42000,8000,264000,774778,
-1700,11944,10008,-525,109,-132,42000,8000,264000,774780,
-1616,11908,9912,-573,167,-135,42000,8000,264000,774792,
-1732,11988,9984,-602,67,-84,42000,8000,264000,774795,
-1560,11960,9984,-553,200,-144,42000,8000,264000,774797,
-1628,11984,9996,-658,223,-99,42000,8000,264000,774810,
-1640,11996,10016,-617,281,-78,42000,8000,264000,774812,
-1660,11980,9864,-666,283,-88,42000,8000,264000,774814,
-1684,11916,10152,-651,261,-70,42000,8000,264000,774827,
-1704,11916,10164,-688,279,-99,42000,8000,264000,774829,
-1624,11932,10124,-668,172,-57,42000,8000,264000,774831,
-1568,11840,10136,-633,112,-89,42000,8000,264000,774844,
-1576,12004,10152,-697,17,-74,42000,8000,264000,774846,
-1516,11980,10012,-664,78,-78,42000,8000,264000,774848,
-1560,11856,10124,-732,-35,-65,42000,8000,264000,774861,
-1476,11916,10184,-652,22,-73,42000,8000,264000,774863,
-1508,11872,10136,-669,28,-80,42000,8000,264000,774866,
-1512,11928,10076,-666,78,-107,42000,8000,264000,774878,
-1328,11956,10024,-691,127,-124,42000,8000,264000,774880,
-1468,11988,10040,-674,56,-102,42000,8000,264000,774883,
-1516,12044,9992,-704,219,-140,42000,8000,264000,774895,
-1500,12076,10176,-760,155,-155,42000,8000,264000,774898,
-1444,12024,10040,-738,169,-156,42000,8000,264000,774900,
-1472,12052,10148,-792,133,-133,42000,8000,264000,774912,
-1660,12048,10136,-790,24,-134,42000,8000,264000,774915,
-1496,11980,10284,-802,53,-111,42000,8000,264000,774917,
-1488,12000,10264,-864,-200,-129,42000,8000,264000,774930,
-1520,11992,10376,-850,-172,-143,42000,8000,264000,774932,
-1536,12028,10208,-915,-273,-134,42000,8000,264000,774934,
-1284,11892,10348,-877,-241,-179,42000,8000,264000,774947,
-1308,11908,10296,-877,-312,-200,42000,8000,264000,774949,
-1244,11764,10204,-856,-224,-205,42000,8000,264000,774952,
-1064,12008,10412,-855,-78,-366,42000,8000,264000,774964,
-1064,11964,10460,-787,-3,-367,42000,8000,264000,774966,
-1196,12000,10304,-851,51,-442,42000,8000,264000,774969,
-1336,11980,10396,-817,312,-472,42000,8000,264000,774981,
-1296,11960,10600,-783,434,-469,42000,8000,264000,774983,
-1320,11796,10532,-833,463,-484,42000,8000,264000,774986,
-1508,11740,10584,-691,576,-540,42000,8000,264000,774998,
-1468,11708,10568,-687,541,-583,42000,8000,264000,775001,
-1528,11800,10644,-670,507,-553,42000,8000,264000,775003,
-1624,11888,10556,-566,432,-626,42000,8000,264000,775016,
-1580,11988,10540,-584,332,-620,42000,8000,264000,775018,
-1684,12008,10476,-530,409,-597,42000,8000,264000,775020,
-1704,12016,10412,-614,269,-590,42000,8000,264000,775033,
-1632,11984,10348,-531,288,-566,42000,8000,264000,775035,
-1668,11972,10516,-577,296,-594,42000,8000,264000,775037,
-1684,11884,10448,-584,282,-614,42000,8000,264000,775050,
-1664,11964,10420,-532,338,-617,42000,8000,264000,775052,
-1700,11888,10504,-619,304,-640,42000,8000,264000,775054,
-1776,11800,10488,-615,344,-577,42000,8000,264000,775067,
-1780,11820,10332,-597,381,-564,42000,8000,264000,775069,
-1804,11860,10392,-640,294,-567,42000,8000,264000,775072,
-1936,11876,10428,-602,338,-497,42000,8000,264000,775084,
-1812,11836,10436,-644,316,-545,42000,8000,264000,775087,
-1764,11796,10328,-625,284,-525,42000,8000,264000,775089,
-1880,11848,10252,-640,236,-436,42000,8000,264000,775101,
-2028,11900,10256,-624,133,-430,42000,8000,264000,775104,
-2008,11852,10300,-599,176,-403,42000,8000,264000,775106,
-1972,11904,10308,-672,24,-322,42000,8000,264000,775119,
-1956,11896,10364,-660,-55,-352,42000,8000,264000,775121,
-2020,11924,10296,-661,51,-330,42000,8000,264000,775123,
-1996,11844,10384,-699,-75,-232,41000,8000,264000,775136,
-1964,11800,10420,-653,-34,-235,41000,8000,264000,775138,
-1916,11780,10292,-678,-66,-230,41000,8000,264000,775140,
-1900,11744,10312,-732,-164,-205,41000,8000,264000,775153,
-1856,11668,10416,-630,-131,-174,41000,8000,264000,775155,
-1856,11712,10504,-699,-146,-191,41000,8000,264000,775157,
-1864,11672,10328,-631,-189,-168,41000,8000,264000,775170,
-1776,11664,10492,-574,-159,-165,41000,8000,264000,775172,
-1688,11744,10288,-618,-135,-148,41000,8000,264000,775174,
-1696,11800,10304,-630,-185,-145,41000,8000,264000,775187,
-1700,11780,10276,-609,-99,-156,41000,8000,264000,775189,
-1780,11812,10288,-656,-99,-165,41000,8000,264000,775191,
-1680,11828,10500,-577,-141,-174,41000,8000,264000,775204,
-1668,11784,10360,-543,-14,-197,41000,8000,264000,775206,
-1528,11848,10400,-605,-82,-162,41000,8000,264000,775208,
-1720,11984,10252,-534,-38,-213,41000,8000,264000,775221,
-1616,11916,10240,-540,13,-235,41000,8000,264000,775223,
-1732,11984,10240,-564,-1,-215,41000,8000,264000,775226,
-1596,11948,10204,-505,142,-315,41000,8000,264000,775238,
-1556,11908,10296,-602,178,-315,41000,8000,264000,775241,
-1540,11888,10144,-553,165,-318,41000,8000,264000,775243,
-1656,11944,10244,-543,303,-345,41000,8000,264000,775255,
-1648,11860,10408,-576,258,-380,41000,8000,264000,775258,
-1648,11804,10376,-545,312,-382,41000,8000,264000,775260,
-1724,11760,10360,-533,419,-419,41000,8000,264000,775273,
-1652,11748,10316,-589,359,-403,41000,8000,264000,775275,
-1728,11740,10476,-524,416,-403,41000,8000,264000,775277,
-1804,11816,10224,-510,471,-447,41000,8000,264000,775290,
-1848,11924,10200,-530,488,-473,41000,8000,264000,775292,
-1936,11716,10060,-506,504,-485,41000,8000,264000,775294,
-2268,11896,9988,-596,603,-551,41000,8000,264000,775307,
-2080,11864,10052,-551,615,-522,41000,8000,264000,775309,
-2304,11860,10048,-558,665,-517,41000,8000,264000,775312,
-2536,11856,9948,-666,660,-521,41000,9000,264000,775324,
-2628,11828,10032,-612,711,-496,41000,9000,264000,775326,
-2720,11844,10204,-655,721,-511,41000,9000,264000,775329,
-2876,11888,10064,-612,1010,-622,41000,9000,264000,775341,
-3028,11868,9984,-647,1086,-659,41000,9000,264000,775343,
-2984,11920,9924,-631,1196,-695,41000,9000,264000,775346,
-3576,12152,9964,-586,1916,-978,41000,9000,264000,775358,
-3744,12200,9836,-605,2034,-1025,41000,9000,264000,775361,
-3780,12148,9844,-568,2163,-1068,41000,9000,264000,775363,
-4772,12292,9896,-603,2830,-1289,41000,9000,264000,775375,
-4896,12304,9828,-576,2907,-1284,41000,9000,264000,775378,
-5108,12132,9788,-613,3001,-1197,41000,10000,264000,775380,
-6160,12596,10192,-330,3932,-1104,41000,10000,265000,775393,
-6296,12708,9780,-376,4000,-990,41000,10000,265000,775395,
-6392,12512,9416,-556,3954,-810,41000,10000,265000,775397,
-7164,12896,9624,-309,4017,-53,41000,10000,265000,775410,
-7444,13116,9388,-487,4110,118,41000,11000,265000,775412,
-7592,12876,9464,-711,4324,266,41000,11000,265000,775414,
-8064,12352,9608,-810,3654,1170,42000,11000,265000,775427,
-8200,12252,9832,-713,3599,1320,42000,11000,265000,775429,
-8076,12176,9464,-752,3402,1487,42000,11000,266000,775431,
-8796,11960,9200,-989,2525,2774,42000,11000,266000,775444,
-8828,12032,9228,-1028,2337,2999,42000,11000,266000,775446,
-8776,12068,9236,-1047,2170,3306,42000,11000,266000,775449,
-8628,11864,9292,-1098,1242,4477,42000,11000,266000,775461,
-8404,11768,9220,-1251,1045,4697,42000,11000,267000,775464,
-8372,11740,9256,-1225,947,4898,42000,11000,267000,775466,
-7672,11780,9512,-1400,309,6105,42000,11000,267000,775478,
-7472,11548,9656,-1471,111,6338,42000,11000,267000,775481,
-7472,11492,9620,-1461,96,6540,42000,11000,267000,775483,
-6316,11492,9756,-1550,-85,7393,42000,10000,268000,775495,
-6084,11400,9836,-1489,-10,7489,42000,10000,268000,775498,
-5936,11440,9836,-1508,22,7609,42000,10000,268000,775500,
-5156,11640,10020,-1283,591,8098,42000,10000,269000,775513,
-5000,11788,10252,-1239,727,8149,42000,10000,269000,775515,
-4844,11796,9864,-1218,791,8246,42000,9000,269000,775517,
-4468,12276,9880,-1168,1585,8495,42000,9000,270000,775530,
-4468,12304,9688,-1235,1690,8553,42000,9000,270000,775532,
-4380,12232,9792,-1249,1797,8631,42000,9000,270000,775534,
-4000,11956,9968,-1249,2268,8855,42000,9000,271000,775547,
-3988,11940,10040,-1282,2300,8911,42000,8000,271000,775549,
-3896,11832,10036,-1226,2339,8943,42000,8000,271000,775551,
-3628,11872,10108,-1134,2454,8952,42000,8000,272000,775564,
-3460,11908,9948,-1174,2502,8943,42000,8000,272000,775566,
-3460,11780,10120,-1100,2503,8959,42000,8000,272000,775569,
-3396,12060,10132,-1126,2658,9066,42000,8000,273000,775581,
-3348,12088,10060,-1131,2692,9178,42000,7000,273000,775584,
-3172,12244,10036,-1167,2767,9124,42000,7000,273000,775586,
-3004,12132,10060,-1460,2942,9467,42000,7000,274000,775598,
-3020,12172,10012,-1480,3003,9554,42000,7000,274000,775601,
-2940,12084,10380,-1494,3060,9617,42000,7000,274000,775603,
-2692,12100,10292,-1708,3291,9930,42000,6000,275000,775616,
5328,9988,11744,-39,-506,-231,34000,-14000,313000,776562,
5248,9908,11836,-118,-754,-203,34000,-15000,312000,776575,
5208,9872,11768,-42,-716,-159,34000,-15000,312000,776577,
5152,9828,11824,-49,-754,-191,34000,-15000,312000,776579,
5460,9720,11564,-4,-803,-143,34000,-15000,312000,776592,
5412,9692,11512,48,-797,-145,34000,-15000,312000,776594,
5508,9628,11692,33,-782,-150,34000,-15000,312000,776596,
5560,9596,11448,98,-579,-209,34000,-15000,312000,776609,
5528,9472,11532,167,-520,-209,34000,-15000,312000,776611,
5604,9600,11408,141,-453,-252,34000,-15000,312000,776613,
5580,9548,11584,225,-166,-209,34000,-15000,312000,776626,
5604,9540,11516,246,-65,-209,34000,-15000,312000,776628,
5588,9704,11536,219,-88,-184,34000,-15000,312000,776630,
5432,9640,11380,315,135,-98,34000,-15000,312000,776643,
5408,9684,11264,318,108,-84,34000,-15000,312000,776645,
5460,9688,11416,332,110,-87,34000,-15000,312000,776647,
5352,9664,11196,333,163,-6,34000,-15000,312000,776660,
5348,9720,11280,338,80,34,34000,-15000,312000,776662,
5392,9800,11356,363,163,25,34000,-15000,312000,776665,
5368,9668,11356,356,89,35,34000,-15000,312000,776667,
5380,9908,11428,406,-93,90,34000,-15000,312000,776679,
5416,9932,11336,462,-58,89,34000,-15000,312000,776682,
5372,10012,11324,397,-130,76,34000,-15000,312000,776684,
5592,10016,11172,364,-287,106,35000,-15000,312000,776697,
5476,10008,11240,322,-270,75,35000,-15000,312000,776699,
5584,9992,11276,307,-333,107,35000,-15000,312000,776701,
5696,10084,11096,342,-300,65,35000,-15000,312000,776714,
5656,9992,11228,298,-319,68,35000,-15000,312000,776716,
5668,10052,11024,321,-336,49,35000,-15000,312000,776718,
5772,10080,11180,320,-227,-1,35000,-15000,312000,776731,
5824,10040,10992,271,-230,-18,35000,-15000,312000,776733,
5688,10068,11192,297,-162,-14,35000,-15000,312000,776735,
5844,10240,11088,187,-132,27,35000,-15000,312000,776748,
5816,10272,11196,137,-132,26,35000,-15000,312000,776750,
5864,10236,11088,140,-103,43,35000,-15000,312000,776753,
5948,10212,11344,-47,-113,65,35000,-15000,312000,776765,
5880,10204,11136,-10,-60,81,35000,-15000,312000,776767,
5956,10156,11192,-37,-78,73,35000,-15000,312000,776770,
5944,10136,11024,-117,-78,114,35000,-15000,312000,776782,
5860,10260,10988,-86,-43,44,35000,-15000,312000,776785,
5856,10124,11164,-135,-87,80,35000,-15000,312000,776787,
5972,10204,11300,-218,-84,40,35000,-15000,312000,776799,
6044,10140,11072,-212,-42,38,35000,-15000,312000,776802,
5992,10124,11188,-260,-110,45,35000,-15000,312000,776804,
6032,10140,11248,-256,-80,45,35000,-15000,312000,776816,
6004,10200,11176,-330,-134,59,35000,-15000,312000,776819,
5992,10196,11196,-311,-136,47,35000,-15000,312000,776821,
6084,9928,11268,-388,-187,59,35000,-16000,312000,776833,
6140,9980,11236,-358,-177,44,35000,-16000,312000,776836,
6116,9896,11304,-359,-132,60,35000,-16000,312000,776838,
6276,9792,11356,-283,-142,-37,35000,-16000,312000,776850,
6248,9852,11220,-243,-101,-40,35000,-16000,312000,776853,
6288,9836,11364,-235,-127,-59,35000,-16000,312000,776855,
6248,9836,11136,-227,93,-204,35000,-16000,312000,776868,
6220,9884,11180,-234,61,-216,35000,-16000,312000,776870,
5996,9952,11024,-240,139,-222,35000,-16000,312000,776872,
6344,9796,11096,-282,143,-197,35000,-16000,312000,776885,
6196,9720,11160,-250,175,-210,35000,-16000,312000,776887,
6288,9720,11188,-279,160,-204,35000,-16000,312000,776889,
6308,9356,11124,-160,119,-197,35000,-16000,312000,776902,
6252,9340,11080,-205,37,-229,35000,-16000,312000,776904,
6316,9292,11128,-144,27,-243,35000,-16000,312000,776906,
6404,9076,10912,-103,-102,-252,35000,-16000,312000,776919,
6460,9016,10888,-66,-123,-286,35000,-16000,312000,776921,
6460,9012,10848,-77,-96,-299,35000,-16000,312000,776923,
6564,8832,10524,-106,-106,-422,35000,-16000,312000,776936,
6508,8728,10544,-65,-104,-398,35000,-16000,312000,776938,
6628,8752,10408,-91,-75,-441,35000,-16000,312000,776941,
6576,8540,10104,-144,-142,-534,35000,-16000,312000,776953,
6632,8400,10084,-129,-100,-560,35000,-16000,312000,776955,
6512,8448,9836,-207,-177,-604,35000,-16000,312000,776958,
6572,7984,9576,-330,-410,-666,35000,-16000,312000,776970,
6504,7964,9464,-348,-424,-684,35000,-16000,312000,776973,
6620,7804,9396,-410,-483,-692,35000,-16000,312000,776975,
6816,7120,8820,-616,-758,-797,35000,-16000,311000,776987,
6888,6992,8548,-703,-794,-846,35000,-16000,311000,776990,
7000,6916,8476,-739,-855,-821,35000,-16000,311000,776992,
7304,5940,7848,-972,-822,-1129,35000,-16000,311000,777005,
7292,5920,7628,-1022,-840,-1178,35000,-16000,311000,777007,
7432,5628,7572,-1073,-765,-1254,35000,-16000,311000,777009,
7652,4900,6932,-1314,-402,-1606,35000,-16000,311000,777022,
7796,4716,6872,-1338,-234,-1646,35000,-16000,311000,777024,
7832,4608,6600,-1452,-229,-1743,35000,-16000,311000,777026,
7744,4108,6076,-1785,20,-2167,35000,-16000,311000,777039,
7932,4048,5952,-1852,222,-2239,35000,-16000,311000,777041,
7852,3896,5844,-1985,174,-2314,35000,-16000,311000,777044,
7452,3508,5104,-2922,751,-2767,35000,-16000,311000,777056,
7384,3188,5612,-2685,432,-2852,35000,-16000,311000,777058,
7436,3496,4884,-2616,535,-2881,35000,-16000,311000,777061,
7248,3092,4228,-3421,1203,-3309,34000,-16000,310000,777073,
6968,3224,4020,-3697,1262,-3358,34000,-16000,310000,777075,
7024,2856,4000,-3845,1397,-3418,34000,-16000,310000,777078,
6404,2404,3244,-4514,2033,-3838,34000,-16000,310000,777090,
6360,2288,3292,-4746,2053,-3901,34000,-16000,310000,777093,
6292,2056,3052,-4873,2272,-3977,34000,-16000,310000,777095,
5700,1640,2720,-5953,2635,-4327,33000,-16000,310000,777108,
5532,1504,2624,-6162,2687,-4405,33000,-16000,310000,777110,
5420,1488,2696,-6322,2797,-4450,33000,-16000,310000,777112,
4764,1364,2060,-7526,3052,-4758,32000,-16000,309000,777125,
4776,1400,2212,-7683,3086,-4720,32000,-16000,309000,777127,
4660,1512,2156,-7967,2975,-4730,32000,-16000,309000,777129,
4948,1752,2688,-9838,2316,-4708,31000,-15000,309000,777142,
5084,1856,2724,-10192,2225,-4755,31000,-15000,309000,777144,
5136,1860,2652,-10608,2099,-4842,31000,-15000,309000,777147,
5440,2256,2788,-12488,2395,-5494,30000,-15000,309000,777159,
5388,2264,2812,-12833,2564,-5575,30000,-15000,309000,777161,
5216,2416,2792,-13250,2766,-5775,29000,-15000,308000,777164,
4988,2732,3004,-15315,3976,-6184,28000,-15000,308000,777176,
4948,2828,3032,-15660,4175,-6255,28000,-15000,308000,777179,
4840,2756,3168,-16175,4238,-6307,27000,-14000,308000,777181,
4520,2756,3924,-18454,4540,-6582,26000,-14000,308000,777193,
4524,2712,4124,-18953,4488,-6668,25000,-14000,308000,777196,
4504,2672,4216,-19369,4469,-6727,25000,-14000,307000,777198,
4300,2788,5288,-21806,4069,-7031,23000,-13000,307000,777211,
4496,2800,5684,-22375,3912,-7094,23000,-13000,307000,777213,
4484,3008,6044,-22712,3815,-7122,22000,-13000,307000,777215,
4916,3496,7228,-25223,3454,-7840,20000,-13000,306000,777228,
5044,3588,7520,-25792,3370,-8008,20000,-13000,306000,777230,
5128,3592,8032,-26076,3416,-8102,19000,-12000,306000,777232,
5716,2852,9476,-28323,4151,-8901,17000,-12000,305000,777245,
5788,2512,9820,-28599,4483,-9071,16000,-12000,305000,777247,
5792,460,11668,-29854,6814,-10283,14000,-11000,304000,777259,
5796,196,12124,-30023,7333,-10501,13000,-11000,304000,777262,
5536,-264,12808,-30030,7903,-10692,13000,-11000,304000,777264,
5064,-1812,15516,-30654,10752,-11983,10000,-9000,303000,777276,
4924,-2044,15968,-30571,11302,-12259,9000,-9000,303000,777279,
4448,-2340,16920,-30467,11826,-12522,9000,-9000,303000,777281,
3012,-3112,19292,-30443,14288,-13984,6000,-7000,302000,777294,
2496,-3208,20112,-30228,14567,-14141,5000,-7000,301000,777296,
2096,-3268,20252,-30208,14782,-14423,5000,-7000,301000,777298,
-216,-4188,21028,-28226,15223,-15337,2000,-5000,300000,777311,
-844,-4428,20800,-27876,15250,-15348,2000,-5000,300000,777313,
-3560,-5592,21536,-26208,14219,-15345,0,-4000,298000,777326,
-4024,-5936,21644,-25778,13911,-15182,0,-3000,298000,777328,
-4316,-6016,21872,-25371,13130,-15011,-1000,-3000,298000,777330,
-5128,-5740,23584,-24228,10190,-13880,-3000,-2000,296000,777343,
-5024,-5584,23776,-23959,9513,-13707,-4000,-2000,296000,777345,
-4780,-5320,24020,-23816,8704,-13626,-4000,-2000,296000,777348,
-3964,-4784,25144,-23626,5968,-12539,-6000,-1000,294000,777360,
-3584,-4512,25264,-23379,5584,-12363,-7000,-1000,294000,777362,
-2508,-3012,25848,-22967,5166,-12219,-9000,-1000,293000,777375,
-2232,-2472,26116,-23048,5215,-12327,-9000,-1000,293000,777377,
-2320,-2196,25932,-22868,5452,-12362,-10000,-1000,293000,777380,
-2344,-1260,26504,-22507,6042,-12285,-12000,0,291000,777392,
-2532,-1328,26712,-22358,6231,-12181,-12000,0,291000,777394,
-2664,-1492,26804,-22363,6270,-12094,-13000,0,291000,777397,
-3376,-2656,27552,-21739,7013,-11060,-15000,0,290000,777409,
-3368,-2772,27784,-21482,7115,-10796,-15000,0,289000,777412,
-3588,-3024,28132,-21428,7249,-10613,-15000,0,289000,777414,
-4632,-3592,28840,-20434,7658,-9446,-17000,0,288000,777427,
-4828,-3680,29132,-20322,7543,-9227,-18000,0,288000,777429,
-4976,-3768,29756,-19996,7516,-8921,-18000,0,288000,777431,
-5428,-3400,31840,-19138,6202,-7500,-20000,1000,287000,777444,
-5564,-3292,32216,-18935,5886,-7298,-20000,1000,287000,777446,
-5604,-3408,32712,-18587,5509,-7091,-20000,1000,287000,777448,
-5376,-3912,32767,-17074,3832,-5941,-22000,1000,286000,777461,
-5184,-4148,32767,-16584,3700,-5601,-22000,1000,286000,777463,
-3872,-4956,32767,-13550,3175,-4089,-23000,1000,285000,777476,
-3628,-5156,32767,-12768,3169,-3878,-24000,1000,285000,777478,
-3380,-5228,32767,-11945,3256,-3668,-24000,1000,285000,777481,
-2104,-5292,32767,-7247,3505,-2320,-24000,1000,285000,777493,
-2028,-5724,32767,-6467,3942,-2046,-25000,1000,285000,777496,
-1736,-5836,32767,-5809,4426,-1827,-25000,1000,285000,777498,
-120,-7408,32767,-734,6787,-1807,-25000,2000,284000,777510,
44,-7512,32767,230,7217,-2037,-25000,2000,284000,777513,
-12,-7784,32767,1120,7569,-2313,-25000,2000,284000,777515,
-388,-8156,32767,7036,9507,-3869,-24000,3000,283000,777527,
-684,-8068,32767,8012,9652,-4106,-24000,3000,283000,777530,
-900,-7908,32767,9095,9759,-4318,-24000,3000,283000,777532,
-2352,-6052,32767,13549,9000,-4246,-22000,4000,282000,777545,
-2344,-5928,32767,14377,8594,-4166,-22000,4000,282000,777547,
-2604,-5712,32767,15096,8136,-4045,-22000,4000,282000,777549,
-2692,-4740,32767,17444,4618,-3351,-20000,4000,282000,777562,
-2692,-4788,32767,17828,3769,-3263,-20000,4000,282000,777564,
-2584,-4816,32767,18124,3120,-3107,-19000,4000,281000,777567,
-1048,-5784,32600,20412,-438,-2829,-17000,4000,281000,777579,
-828,-5872,32328,20946,-871,-2868,-17000,4000,281000,777581,
1164,-6176,29852,23250,-2571,-3573,-15000,4000,281000,777594,
1208,-6092,29404,23814,-2799,-3694,-14000,4000,281000,777596,
1656,-5948,28752,24046,-2890,-3879,-14000,4000,281000,777599,
2576,-5484,26748,25592,-2359,-4729,-11000,3000,280000,777611,
2580,-5384,26540,25849,-2231,-4879,-11000,3000,280000,777613,
2888,-5248,26144,25929,-2034,-5035,-11000,3000,280000,777616,
2608,-5412,24084,26758,-886,-5986,-8000,3000,280000,777628,
2548,-5416,23848,26932,-606,-6202,-8000,3000,280000,777631,
2464,-5408,23380,27048,-373,-6424,-7000,3000,279000,777633,
1304,-5284,21848,27968,638,-7396,-4000,3000,279000,777645,
800,-5204,21536,28030,753,-7443,-4000,3000,279000,777648,
780,-5132,21148,28174,747,-7609,-4000,3000,279000,777650,
-572,-4624,20368,28821,7,-8005,-1000,3000,278000,777662,
-920,-4784,20060,28765,-121,-8019,0,3000,278000,777665,
-1040,-4564,19892,28855,-415,-8104,0,3000,277000,777667,
-2160,-4156,18732,28929,-2104,-8368,2000,2000,277000,777680,
-2320,-4164,18448,28817,-2330,-8356,2000,2000,276000,777682,
-2476,-4168,18280,28875,-2729,-8389,3000,2000,276000,777684,
-3048,-3928,17072,28631,-4010,-8373,5000,2000,275000,777697,
-3088,-3988,16788,28467,-4165,-8482,6000,2000,275000,777699,
-3268,-3816,16228,28444,-4342,-8489,6000,2000,275000,777702,
-4064,-3564,14880,28043,-4851,-8530,9000,2000,274000,777714,
-4248,-3432,14496,28041,-5003,-8541,9000,2000,274000,777716,
-4496,-3396,14280,27875,-4976,-8428,10000,2000,274000,777719,
-5204,-2496,13280,27118,-5807,-7997,12000,1000,273000,777731,
-5308,-2400,13212,27101,-6052,-7896,13000,1000,273000,777734,
-5408,-2196,13060,26803,-6196,-7759,13000,1000,273000,777736,
-5696,-1368,12496,25795,-7653,-6926,16000,1000,272000,777749,
-5572,-1092,12596,25409,-7797,-6717,16000,1000,272000,777751,
-5564,-1112,12536,25218,-8125,-6628,16000,1000,272000,777753,
-5808,-724,11792,24368,-9286,-5993,19000,0,271000,777766,
-4628,-412,11492,23909,-8829,-5924,19000,0,271000,777768,
-4936,-264,11304,23658,-8759,-5866,19000,0,271000,777770,
-4404,892,10048,22781,-8909,-5807,21000,0,270000,777783,
-4456,1232,9836,22657,-8907,-5846,22000,0,270000,777785,
-4428,1244,9588,22440,-8802,-5862,22000,0,269000,777788,
-4520,2128,8352,21479,-8349,-5838,24000,0,269000,777800,
-4596,2324,8180,21403,-8242,-5806,25000,0,268000,777802,
-4528,2340,8036,21178,-8067,-5800,25000,0,268000,777805,
-4712,3048,7072,20241,-7896,-5613,27000,0,267000,777817,
-4652,3140,7000,20142,-7827,-5541,27000,0,267000,777819,
-4680,3264,6704,19817,-7763,-5484,28000,0,267000,777821,
-4448,3952,6524,18828,-7547,-4965,29000,-1000,266000,777834,
-4284,3972,6328,18538,-7451,-4858,30000,-1000,266000,777836,
-4256,3988,6192,18280,-7426,-4765,30000,-1000,266000,777839,
-3852,4920,5736,17174,-7067,-4477,32000,-1000,265000,777851,
-3704,5148,5552,16807,-6908,-4422,32000,-1000,265000,777853,
-3624,5280,5416,16540,-6930,-4415,32000,-1000,265000,777856,
-3432,6656,5008,14998,-6399,-4154,34000,-1000,264000,777868,
-3388,6724,4916,14604,-6222,-4049,34000,-1000,264000,777871,
-3352,6664,4988,14269,-6073,-3825,35000,-1000,264000,777873,
-2472,7420,4160,12604,-5429,-3410,36000,-1000,264000,777885,
-2632,7208,3952,11943,-5025,-3283,36000,-1000,264000,777888,
-2596,7180,4288,11665,-5173,-3242,36000,-1000,263000,777890,
-2368,7116,3792,10219,-4005,-3042,37000,-1000,263000,777902,
-2324,7016,3604,9878,-3774,-3053,38000,-1000,263000,777905,
-2172,6956,3664,9611,-3649,-3061,38000,-1000,263000,777907,
-2196,7312,3564,8137,-2845,-2896,39000,-1000,262000,777920,
-2052,7452,3724,7841,-2816,-2871,39000,-1000,262000,777922,
-2124,7732,3540,7616,-2647,-2837,39000,-1000,262000,777924,
-1808,8136,3472,6103,-2017,-2624,40000,-1000,262000,777937,
-1788,8324,3488,5841,-1942,-2576,40000,-1000,262000,777939,
-1744,8424,3580,5596,-1755,-2497,40000,-1000,262000,777941,
-1368,8452,3640,4201,-1101,-2155,41000,-1000,262000,777954,
-1232,8500,3780,4068,-1001,-2137,41000,-1000,262000,777956,
-1060,8532,3672,3881,-807,-2099,41000,-1000,262000,777959,
-820,8912,3776,2746,-331,-2086,41000,-1000,261000,777971,
-884,9088,3852,2653,-298,-2102,41000,-1000,261000,777973,
-964,9140,3868,2516,-223,-2068,42000,-1000,261000,777976,
-936,9616,4264,1539,-150,-1891,42000,0,261000,777988,
-980,9640,4360,1352,-141,-1823,42000,0,261000,777991,
-976,9604,4376,1173,-146,-1791,42000,0,261000,777993,
-892,9776,4668,247,-491,-1645,42000,0,261000,778005,
-848,9676,4804,164,-508,-1603,42000,0,261000,778008,
-816,9716,4952,-22,-581,-1591,42000,0,261000,778010,
-688,9824,5200,-156,-684,-1567,42000,0,261000,778012,
-376,9880,5620,-914,-918,-1588,42000,0,261000,778025,
-328,9852,5768,-1076,-994,-1549,42000,0,261000,778027,
-292,9828,5784,-1168,-950,-1553,42000,0,261000,778029,
-16,10352,6400,-1774,-757,-1594,42000,0,260000,778042,
68,10356,6380,-1950,-839,-1623,42000,0,260000,778044,
128,10580,6552,-2011,-695,-1641,42000,0,260000,778046,
148,10588,6552,-2200,-699,-1661,42000,0,260000,778049,
180,10768,7236,-2820,-500,-1636,42000,0,260000,778061,
156,10840,7332,-2910,-430,-1615,42000,0,260000,778064,
196,10772,7456,-3070,-413,-1612,42000,0,260000,778066,
344,10336,8296,-3554,-373,-1478,41000,0,260000,778078,
600,10348,8520,-3572,-232,-1527,41000,0,260000,778081,
744,10308,8560,-3645,-66,-1532,41000,0,260000,778083,
732,10096,9260,-3647,600,-1658,41000,0,260000,778095,
816,10144,9264,-3679,734,-1680,41000,0,260000,778098,
808,10164,9448,-3634,857,-1681,41000,0,260000,778100,
732,10132,9464,-3600,979,-1683,41000,0,260000,778102,
644,10392,9888,-3438,1489,-1753,41000,0,260000,778115,
612,10468,10004,-3339,1638,-1742,41000,0,260000,778117,
564,10460,10056,-3342,1671,-1788,41000,0,260000,778119,
-32,10292,10316,-3141,1750,-1788,40000,0,260000,778132,
-52,10332,10484,-3028,1769,-1742,40000,0,260000,778134,
-172,10188,10620,-3012,1699,-1706,40000,0,260000,778136,
-344,10244,10980,-2551,948,-1502,40000,0,260000,778149,
-284,10312,10964,-2497,808,-1454,40000,0,260000,778151,
-464,10208,10860,-2446,541,-1470,40000,0,260000,778154,
-352,10200,11180,-1979,-292,-1151,40000,0,260000,778166,
-236,10156,11272,-1923,-436,-1136,40000,0,260000,778168,
-272,10172,11232,-1842,-620,-1059,40000,0,260000,778171,
256,10164,11088,-1411,-945,-908,39000,0,259000,778183,
276,10088,11092,-1409,-932,-919,39000,0,259000,778185,
396,10100,10868,-1294,-950,-903,39000,0,259000,778188,
564,9924,11056,-948,-218,-810,39000,0,259000,778200,
616,9808,11048,-940,-86,-793,39000,0,259000,778203,
652,9836,11108,-794,97,-765,39000,0,259000,778205,
596,9844,11096,-680,334,-764,39000,0,259000,778207,
588,10476,11152,-164,1188,-784,39000,0,259000,778220,
492,10568,11240,-51,1352,-784,39000,0,259000,778222,
512,10648,11072,-26,1476,-774,39000,0,259000,778224,
-120,11288,11112,53,1927,-755,39000,1000,259000,778237,
-8,11288,11068,90,2024,-670,39000,1000,259000,778239,
-200,11376,11124,27,2054,-634,39000,1000,259000,778241,
-132,11568,11260,65,1934,-211,39000,1000,260000,778254,
-168,11488,11280,107,1975,-199,39000,1000,260000,778256,
-56,11428,11364,37,1849,-124,39000,1000,260000,778258,
128,11300,11148,118,1757,-169,39000,1000,260000,778271,
104,11312,11256,188,1794,-172,39000,1000,260000,778273,
84,11300,11096,168,1755,-240,39000,1000,260000,778276,
104,11388,11076,416,1794,-511,40000,1000,260000,778288,
80,11464,11012,389,1820,-527,40000,1000,260000,778290,
88,11460,10920,398,1806,-563,40000,1000,260000,778293,
-12,11668,10780,480,1936,-636,40000,1000,260000,778305,
-32,11728,10716,462,1960,-662,40000,1000,260000,778308,
-104,11700,10412,488,2062,-708,40000,1000,260000,778310,
-316,11908,10068,327,2210,-775,40000,2000,260000,778322,
-264,11916,9968,327,2216,-779,40000,2000,260000,778325,
-444,11948,9812,231,2242,-779,40000,2000,260000,778327,
-736,11748,9960,-76,2080,-757,40000,2000,260000,778340,
-768,11672,10056,-86,2133,-771,40000,2000,260000,778342,
-792,11592,9960,-152,2009,-764,40000,2000,260000,778344,
-1116,11604,10036,-291,1601,-746,40000,2000,260000,778357,
-1108,11648,10100,-406,1517,-759,40000,2000,260000,778359,
-1064,11580,10148,-437,1389,-717,40000,2000,260000,778361,
-1376,11492,10224,-715,909,-585,40000,2000,260000,778374,
-1292,11396,10304,-775,759,-531,40000,2000,260000,778376,
-1392,11420,10456,-777,683,-489,40000,2000,260000,778379,
-1020,11332,10632,-831,247,-273,40000,2000,260000,778391,
-1036,11288,10668,-904,162,-250,40000,2000,260000,778394,
-1000,11348,10684,-858,176,-254,40000,2000,260000,778396,
-832,11328,10420,-1039,213,-277,40000,2000,260000,778408,
-788,11244,10256,-1028,273,-271,40000,2000,260000,778411,
-852,11212,10220,-1075,339,-267,40000,2000,260000,778413,
-748,11088,10136,-1272,684,-106,40000,3000,260000,778425,
-824,10928,10132,-1254,759,-127,40000,3000,260000,778428,
-800,10960,10300,-1288,741,-102,40000,3000,260000,778430,
-796,10816,10536,-1125,927,-145,40000,3000,260000,778443,
-704,10884,10472,-1118,937,-192,40000,3000,260000,778445,
-900,10936,10556,-1108,914,-198,40000,3000,260000,778447,
-1072,11100,10240,-1070,899,-110,40000,3000,260000,778460,
-1120,11148,10276,-1128,917,-127,40000,3000,260000,778462,
