Ax,Ay,Az,Gx,Gy,Gz,Roll,Pitch,Yaw,Timestamp,Target
836,-2880,16204,-392,-35,-156,-17000,-1000,5000,457385,
1112,-2700,16160,-317,175,-159,-17000,-1000,5000,457397,
996,-2760,16220,-456,118,-144,-17000,-1000,5000,457399,
1004,-2884,16100,-309,178,-103,-17000,-1000,5000,457402,
748,-2780,16120,-403,104,-136,-17000,-1000,5000,457414,
732,-2912,16192,-426,65,-149,-17000,-1000,5000,457416,
748,-2812,16244,-409,49,-144,-17000,-1000,5000,457419,
928,-2776,16108,-453,-75,-143,-17000,-1000,5000,457431,
952,-2740,16208,-301,-31,-77,-17000,-1000,5000,457433,
948,-2856,16132,-458,-137,-139,-17000,-1000,5000,457435,
928,-2788,16136,-367,-73,-73,-17000,-1000,5000,457448,
996,-2832,16072,-427,-97,-80,-17000,-1000,5000,457450,
896,-2836,16324,-332,-50,-70,-17000,-1000,5000,457452,
1036,-2828,16160,-345,83,-35,-17000,-1000,5000,457465,
1160,-2828,16196,-429,34,-105,-17000,-1000,5000,457467,
1188,-2772,16232,-319,93,-45,-17000,-1000,5000,457469,
836,-2768,16212,-476,-2,-41,-1,4076,15796,-699,
1876,4316,15832,-522,144,-71,6000,-5000,4000,460826,
1808,4376,15828,-625,85,-139,6000,-5000,4000,460829,
2088,4288,15688,-522,137,-110,6000,-5000,4000,460831,
1032,-2784,16144,-405,-47,-38,-17000,-1000,5000,457503,
1168,-2796,16276,-431,-64,9,-17000,-1000,5000,457505,
968,-2700,16436,-489,-57,23,-17000,-1000,5000,457518,
888,-2884,16220,-361,-28,53,-17000,-1000,5000,457520,
1096,-2772,16264,-470,-63,14,-17000,-1000,5000,457523,
968,-2780,16332,-411,-9,32,-17000,-1000,5000,457535,
984,-2740,16356,-445,7,63,-17000,-1000,5000,457537,
1024,-2764,16248,-410,36,21,-17000,-1000,5000,457539,
840,-2808,16264,-474,33,42,-17000,-1000,5000,457542,
864,-2788,16108,-484,-79,18,-17000,-1000,5000,457554,
824,-2780,16132,-391,-32,49,-17000,-1000,5000,457556,
944,-2708,16244,-484,-89,-10,-17000,-1000,5000,457559,
848,-2656,16176,-385,15,0,-17000,-1000,5000,457571,
840,-2712,16188,-518,-30,30,-17000,-1000,5000,457573,
740,-2784,16328,-386,13,-3,-17000,-1000,5000,457576,
820,-2820,16328,-518,-36,15,-17000,-1000,5000,457578,
960,-2692,16136,-541,-71,-6,-17000,-1000,5000,457591,
1060,-2724,16220,-440,-7,30,-17000,-1000,5000,457593,
944,-2704,16252,-539,-60,-22,-17000,-1000,5000,457595,
820,-2768,16092,-447,-19,15,-17000,-1000,5000,457608,
872,-2768,15860,-541,-51,36,-17000,-1000,5000,457610,
888,-2724,16108,-402,-4,29,-17000,-1000,5000,457612,
952,-2744,16076,-549,-46,38,-17000,-1000,5000,457614,
1068,-2752,16056,-499,22,15,-17000,-1000,5000,457627,
996,-2824,16036,-444,76,84,-17000,-1000,5000,457629,
1028,-2780,16000,-504,87,8,-17000,-1000,5000,457631,
732,-2744,15932,-383,154,69,-17000,-1000,5000,457644,
748,-2736,16016,-523,98,96,-17000,-1000,5000,457646,
724,-2728,15916,-391,147,116,-17000,-1000,5000,457648,
864,-2756,15940,-472,100,79,-17000,-1000,5000,457650,
848,-2700,15900,-424,15,94,-17000,-1000,5000,457663,
836,-2708,16008,-395,21,135,-17000,-1000,5000,457665,
780,-2784,15932,-438,-46,83,-17000,-1000,5000,457667,
604,-2792,16028,-280,-109,74,-17000,-1000,5000,457680,
624,-2732,15972,-428,-174,62,-17000,-1000,5000,457682,
680,-2768,15928,-283,-122,38,-17000,-1000,5000,457684,
864,-2748,16028,-331,-136,17,-17000,-1000,5000,457697,
860,-2692,16044,-339,-143,-10,-17000,-1000,5000,457699,
724,-2788,16052,-322,-90,2,-17000,-1000,5000,457701,
736,-2648,15952,-331,-125,-25,-17000,-1000,5000,457704,
580,-2712,16024,-364,-38,-19,-17000,-1000,5000,457716,
768,-2624,16076,-325,-46,13,-17000,-1000,5000,457718,
672,-2736,16052,-368,-76,-24,-17000,-1000,5000,457721,
856,-2768,16088,-243,-47,-65,-17000,-1000,5000,457733,
784,-2704,16036,-366,-110,-76,-17000,-1000,5000,457735,
776,-2716,16244,-225,-33,-50,-17000,-1000,5000,457738,
820,-2784,16148,-282,-51,-77,-17000,-1000,5000,457750,
872,-2736,16108,-296,-69,-66,-17000,-1000,5000,457752,
940,-2720,16064,-260,22,-49,-17000,-1000,5000,457755,
992,-2796,16240,-325,84,-67,-17000,-1000,5000,457767,
1012,-2772,16160,-186,148,-59,-17000,-1000,5000,457769,
864,-2740,16288,-321,92,-49,-17000,-1000,5000,457772,
780,-2784,16108,-311,51,-109,-17000,-1000,5000,457784,
612,-2752,16140,-276,79,-97,-17000,-1000,5000,457786,
808,-2764,16308,-321,20,-117,-17000,-1000,5000,457788,
848,-2752,16304,-261,51,-72,-17000,-1000,5000,457791,
896,-2632,16208,-351,-27,-67,-17000,-2000,5000,457803,
716,-2780,16148,-249,-30,-77,-17000,-2000,5000,457805,
700,-2684,16244,-331,-43,-48,-17000,-2000,5000,457808,
820,-2724,16340,-343,-55,-100,-17000,-2000,5000,457820,
796,-2804,16200,-249,-18,-42,-17000,-2000,5000,457822,
952,-2608,16176,-340,-25,-76,-17000,-2000,5000,457825,
996,-2552,16288,-240,123,-8,-17000,-2000,5000,457837,
1084,-2660,16084,-368,79,-19,-17000,-2000,5000,457839,
840,-2676,16300,-247,130,12,-17000,-2000,5000,457842,
828,-2616,16208,-382,76,-16,-17000,-2000,5000,457844,
756,-2604,16176,-386,5,-17,-17000,-2000,5000,457856,
852,-2604,16164,-301,85,9,-17000,-2000,5000,457859,
812,-2664,16296,-384,17,-25,-17000,-2000,5000,457861,
596,-2708,16224,-287,-59,-19,-17000,-2000,5000,457873,
664,-2660,16204,-400,-112,-14,-17000,-2000,5000,457876,
696,-2692,16188,-258,-89,-12,-17000,-2000,5000,457878,
892,-2596,16144,-367,-101,-34,-17000,-2000,5000,457890,
888,-2724,16172,-374,-143,-85,-17000,-2000,5000,457893,
996,-2684,16296,-348,-95,-58,-17000,-2000,5000,457895,
872,-2596,16172,-354,-67,-142,-17000,-2000,5000,457907,
856,-2624,16172,-239,8,-119,-17000,-2000,5000,457910,
852,-2636,16356,-372,-80,-126,-17000,-2000,5000,457912,
836,-2604,16352,-353,-52,-132,-17000,-2000,5000,457924,
904,-2556,16252,-279,18,-101,-17000,-2000,5000,457927,
904,-2488,16244,-359,-40,-116,-17000,-2000,5000,457929,
884,-2632,16440,-273,-24,-103,-17000,-2000,5000,457941,
816,-2636,16400,-364,-55,-70,-17000,-2000,5000,457944,
816,-2672,16376,-308,-1,-91,-17000,-2000,5000,457946,
996,-2568,16304,-298,25,-65,-17000,-2000,5000,457958,
1100,-2488,16460,-421,-29,-110,-17000,-2000,5000,457960,
1036,-2424,16404,-306,12,-77,-17000,-2000,5000,457963,
888,-2660,16388,-447,-49,-145,-17000,-2000,5000,457975,
920,-2548,16336,-287,-20,-147,-17000,-2000,5000,457977,
816,-2568,16480,-457,-81,-141,-17000,-2000,5000,457980,
1064,-2508,16256,-432,-90,-144,-17000,-2000,4000,457992,
972,-2528,16272,-393,-69,-134,-17000,-2000,4000,457994,
960,-2460,16252,-430,-83,-163,-17000,-2000,4000,457997,
728,-2584,16380,-327,-64,-164,-17000,-2000,4000,458009,
856,-2544,16360,-487,-144,-184,-17000,-2000,4000,458011,
788,-2624,16548,-305,-78,-154,-17000,-2000,4000,458013,
1040,-2460,16468,-421,-141,-201,-17000,-2000,4000,458026,
1036,-2476,16464,-390,-132,-245,-17000,-2000,4000,458028,
1032,-2528,16328,-449,-161,-178,-17000,-2000,4000,458030,
1072,-2540,16416,-476,-95,-207,-17000,-2000,4000,458043,
996,-2524,16384,-363,30,-191,-17000,-2000,4000,458045,
1108,-2496,16444,-495,-48,-199,-17000,-2000,4000,458047,
1192,-2496,16360,-440,24,-207,-17000,-2000,4000,458060,
1144,-2544,16400,-486,-12,-114,-17000,-2000,4000,458062,
996,-2516,16384,-438,2,-205,-17000,-2000,4000,458064,
872,-2608,16372,-418,-22,-161,-17000,-2000,4000,458077,
852,-2552,16416,-512,-74,-165,-17000,-2000,4000,458079,
936,-2600,16412,-438,-72,-140,-17000,-2000,4000,458081,
1096,-2616,16424,-549,-52,-140,-17000,-2000,4000,458094,
1244,-2608,16324,-434,-10,-130,-17000,-2000,4000,458096,
1100,-2532,16280,-582,-26,-155,-17000,-2000,4000,458098,
1192,-2700,16464,-568,-12,-167,-17000,-2000,4000,458111,
932,-2500,16384,-500,43,-130,-17000,-2000,4000,458113,
1052,-2620,16468,-556,9,-168,-17000,-2000,4000,458115,
1120,-2456,16420,-491,68,-140,-17000,-2000,4000,458127,
1108,-2484,16416,-590,56,-96,-17000,-2000,4000,458130,
1192,-2492,16356,-511,90,-126,-17000,-2000,4000,458132,
992,-2488,16368,-520,133,-97,-17000,-2000,4000,458144,
988,-2516,16236,-604,44,-126,-17000,-2000,4000,458147,
976,-2564,16196,-540,73,-89,-17000,-2000,4000,458149,
988,-2612,16296,-621,-4,-127,-17000,-2000,4000,458161,
1112,-2564,16404,-481,38,-132,-17000,-2000,4000,458164,
1152,-2508,16224,-630,-2,-131,-17000,-2000,4000,458166,
1212,-2608,16232,-605,-6,-148,-17000,-2000,4000,458178,
1060,-2672,16096,-537,37,-112,-17000,-2000,4000,458181,
984,-2528,16176,-579,-9,-157,-17000,-2000,4000,458183,
968,-2580,16100,-441,32,-118,-17000,-2000,4000,458195,
1116,-2544,16220,-566,11,-117,-17000,-2000,4000,458198,
1128,-2548,16076,-430,76,-124,-17000,-2000,4000,458200,
1284,-2576,16184,-545,152,-70,-17000,-2000,4000,458212,
1004,-2636,16240,-544,96,-102,-17000,-2000,4000,458215,
1140,-2616,16284,-531,126,-42,-17000,-2000,4000,458217,
1084,-2532,16192,-615,81,-119,-17000,-2000,4000,458229,
1076,-2552,16168,-473,174,-107,-17000,-2000,4000,458231,
1016,-2580,16080,-607,70,-48,-17000,-2000,4000,458234,
932,-2708,16224,-604,-22,-119,-17000,-2000,4000,458246,
1000,-2476,16192,-575,16,-62,-17000,-2000,4000,458248,
916,-2532,16036,-595,-47,-98,-17000,-2000,4000,458251,
1068,-2704,16076,-529,-86,-49,-17000,-2000,4000,458263,
916,-2640,16184,-623,-143,-45,-17000,-2000,4000,458265,
980,-2564,16232,-530,-129,-49,-17000,-2000,4000,458268,
900,-2620,16052,-548,-263,42,-17000,-2000,4000,458280,
1184,-2584,16132,-615,-355,-8,-17000,-2000,4000,458282,
1096,-2632,16376,-547,-324,45,-17000,-2000,4000,458285,
1080,-2548,16052,-617,-368,26,-17000,-2000,4000,458297,
948,-2748,16056,-531,-331,14,-17000,-2000,4000,458299,
964,-2604,16020,-617,-312,22,-17000,-2000,4000,458302,
1044,-2624,16048,-567,-282,-15,-17000,-2000,4000,458314,
1232,-2680,16024,-465,-208,22,-17000,-2000,4000,458316,
1180,-2648,16044,-561,-240,-49,-17000,-2000,4000,458319,
1228,-2576,16032,-434,-62,-51,-17000,-2000,4000,458331,
1132,-2584,16036,-540,-73,-40,-17000,-2000,4000,458333,
1120,-2664,15972,-407,-11,-54,-17000,-2000,4000,458336,
1172,-2676,16016,-447,128,-62,-17000,-2000,4000,458348,
1292,-2660,16080,-465,130,-102,-17000,-2000,4000,458350,
1376,-2860,16040,-402,196,-50,-17000,-2000,4000,458352,
1168,-2776,15944,-424,238,-57,-17000,-2000,4000,458365,
1272,-2696,16008,-296,317,-79,-17000,-2000,4000,458367,
1080,-2696,16032,-429,234,-66,-17000,-2000,4000,458369,
1008,-2656,15808,-383,193,-88,-17000,-2000,4000,458382,
1000,-2708,16012,-337,223,-16,-17000,-2000,4000,458384,
1000,-2596,16052,-379,131,-49,-17000,-2000,4000,458387,
828,-2744,16156,-244,53,14,-17000,-2000,4000,458399,
836,-2668,16056,-385,-6,-7,-17000,-2000,4000,458401,
820,-2692,16196,-249,14,27,-17000,-2000,4000,458403,
892,-2612,16080,-380,-92,8,-17000,-2000,4000,458406,
988,-2692,16172,-274,-81,-44,-17000,-2000,4000,458418,
1072,-2484,16072,-348,-92,-9,-17000,-2000,4000,458420,
1204,-2572,16160,-262,-54,-31,-17000,-2000,4000,458423,
1156,-2608,16268,-249,20,-33,-17000,-2000,4000,458435,
1140,-2548,16100,-314,-34,-50,-17000,-2000,4000,458437,
996,-2704,16180,-251,86,-66,-17000,-2000,4000,458440,
1156,-2596,16044,-345,162,-59,-17000,-2000,4000,458452,
1144,-2536,16092,-248,168,-77,-17000,-2000,4000,458454,
1272,-2616,16068,-358,203,-41,-17000,-2000,4000,458457,
928,-2532,16036,-378,197,-80,-16000,-2000,4000,458469,
968,-2580,16236,-269,278,-62,-16000,-2000,4000,458471,
884,-2508,16012,-391,195,-93,-16000,-2000,4000,458473,
956,-2624,15980,-314,152,-101,-16000,-2000,4000,458486,
988,-2616,16020,-375,100,-69,-16000,-2000,4000,458488,
920,-2480,16068,-294,104,-81,-16000,-2000,4000,458490,
896,-2548,16012,-251,29,-33,-16000,-2000,4000,458503,
1084,-2620,15976,-287,-42,-80,-16000,-2000,4000,458505,
940,-2608,15960,-256,-20,-20,-16000,-2000,4000,458507,
964,-2492,16164,-238,-101,-74,-16000,-2000,4000,458520,
1040,-2452,16188,-133,-33,-54,-16000,-2000,4000,458522,
1008,-2464,15976,-224,-92,-62,-16000,-2000,4000,458524,
924,-2540,16104,-224,13,-85,-16000,-2000,4000,458537,
904,-2496,16180,-182,42,-45,-16000,-2000,4000,458539,
996,-2440,16272,-226,5,-111,-16000,-2000,4000,458541,
856,-2584,16220,-197,25,0,-16000,-2000,4000,458543,
976,-2488,16324,-269,-17,-111,-16000,-2000,4000,458556,
852,-2568,16248,-129,-2,-80,-16000,-2000,4000,458558,
960,-2512,16152,-263,-74,-122,-16000,-2000,4000,458560,
800,-2476,16300,-265,-182,-161,-16000,-2000,4000,458573,
1016,-2464,16292,-179,-134,-147,-16000,-2000,4000,458575,
920,-2436,16344,-251,-179,-176,-16000,-2000,4000,458577,
1108,-2472,16320,-156,-156,-167,-16000,-2000,4000,458590,
884,-2484,16312,-305,-178,-191,-16000,-2000,4000,458592,
1036,-2312,16416,-173,-128,-131,-16000,-2000,4000,458594,
1072,-2372,16576,-260,-55,-96,-16000,-2000,4000,458607,
1096,-2392,16500,-336,-105,-119,-16000,-2000,4000,458609,
1112,-2324,16428,-272,-40,-90,-16000,-2000,4000,458611,
1020,-2416,16540,-338,-97,-161,-16000,-2000,4000,458624,
1116,-2428,16432,-242,-39,-160,-16000,-2000,4000,458626,
940,-2476,16464,-362,-158,-164,-16000,-2000,4000,458628,
972,-2464,16464,-326,-179,-222,-16000,-2000,4000,458641,
972,-2424,16532,-340,-135,-161,-16000,-2000,4000,458643,
1132,-2320,16504,-351,-131,-203,-16000,-2000,4000,458645,
1200,-2392,16620,-291,86,-151,-16000,-2000,4000,458658,
1120,-2360,16584,-425,50,-162,-16000,-2000,4000,458660,
1004,-2380,16604,-296,151,-148,-16000,-2000,4000,458662,
1036,-2276,16464,-398,173,-205,-16000,-2000,4000,458675,
964,-2340,16424,-442,118,-226,-16000,-2000,4000,458677,
924,-2332,16564,-416,125,-199,-16000,-2000,4000,458679,
1012,-2240,16688,-505,54,-247,-16000,-2000,4000,458691,
1036,-2324,16636,-338,103,-223,-16000,-2000,4000,458694,
1132,-2352,16444,-473,35,-240,-16000,-2000,4000,458696,
1064,-2320,16468,-478,37,-217,-16000,-2000,4000,458708,
1128,-2348,16576,-444,58,-177,-16000,-2000,4000,458711,
1072,-2472,16600,-493,71,-205,-16000,-2000,4000,458713,
1164,-2384,16688,-450,149,-162,-16000,-2000,4000,458725,
1244,-2260,16640,-576,125,-154,-16000,-2000,4000,458728,
1164,-2256,16692,-471,146,-163,-16000,-2000,4000,458730,
1132,-2188,16448,-540,146,-145,-16000,-2000,4000,458743,
1012,-2268,16360,-613,84,-173,-16000,-2000,4000,458745,
988,-2232,16304,-569,88,-117,-16000,-2000,4000,458747,
1060,-2300,16416,-658,-42,-158,-16000,-2000,4000,458759,
1308,-2252,16520,-531,51,-123,-16000,-2000,4000,458762,
1188,-2168,16504,-685,-3,-114,-16000,-2000,4000,458764,
1308,-2296,16388,-651,6,-131,-16000,-2000,4000,458776,
1276,-2300,16364,-682,44,-101,-16000,-2000,4000,458779,
1068,-2320,16248,-692,19,-138,-16000,-2000,4000,458781,
1164,-2424,16132,-614,132,-85,-16000,-2000,4000,458793,
1204,-2336,16492,-750,71,-90,-16000,-2000,4000,458796,
1160,-2384,16416,-599,143,-49,-16000,-2000,4000,458798,
1280,-2296,16288,-703,74,-45,-16000,-2000,4000,458810,
1068,-2400,16208,-674,61,-125,-16000,-2000,4000,458813,
1072,-2332,16232,-711,49,-63,-16000,-2000,4000,458815,
1064,-2420,16168,-717,12,-108,-16000,-2000,4000,458827,
1064,-2472,16056,-599,68,-62,-16000,-2000,4000,458829,
1092,-2456,16228,-732,10,-94,-16000,-2000,4000,458832,
1160,-2476,16132,-616,24,-104,-16000,-2000,4000,458844,
1228,-2448,16236,-663,62,-92,-16000,-2000,4000,458846,
1160,-2404,16112,-622,41,-94,-16000,-2000,4000,458849,
1136,-2448,16024,-535,82,-101,-16000,-2000,4000,458861,
1012,-2440,16036,-693,20,-127,-16000,-2000,4000,458863,
1004,-2536,16152,-558,97,-115,-16000,-2000,4000,458866,
996,-2620,16208,-627,-21,-128,-16000,-2000,4000,458878,
1148,-2500,16176,-586,-33,-144,-16000,-2000,4000,458880,
1220,-2492,16192,-649,-34,-132,-16000,-2000,4000,458882,
1092,-2488,16116,-647,-6,-136,-16000,-2000,4000,458895,
944,-2568,16272,-563,60,-97,-16000,-2000,4000,458897,
1136,-2616,16072,-637,4,-102,-16000,-2000,4000,458899,
1112,-2436,16064,-519,25,-142,-16000,-2000,4000,458912,
1192,-2492,16220,-608,-40,-149,-16000,-2000,4000,458914,
1272,-2468,16092,-502,17,-128,-16000,-2000,4000,458916,
1120,-2556,16228,-512,46,-123,-16000,-2000,4000,458929,
1044,-2476,16152,-610,-20,-166,-16000,-2000,4000,458931,
1048,-2576,16064,-501,48,-137,-16000,-2000,4000,458933,
1204,-2540,16148,-569,39,-151,-16000,-2000,4000,458946,
1200,-2452,16248,-490,0,-199,-16000,-2000,4000,458948,
1756,4028,15448,-560,294,-193,6000,-5000,4000,461012,
1768,4160,15556,-583,193,-167,6000,-5000,4000,461025,
1760,4152,15524,-673,128,-199,6000,-5000,4000,461027,
1792,4196,15624,-626,161,-181,6000,-5000,4000,461029,
1680,4140,15532,-652,110,-198,6000,-5000,4000,461042,
1712,4140,15456,-534,167,-228,6000,-5000,4000,461044,
1728,4180,15512,-629,141,-198,6000,-5000,4000,461046,
1688,4280,15396,-503,170,-235,6000,-5000,4000,461048,
2024,4332,15380,-524,180,-238,6000,-5000,4000,461061,
1976,4312,15348,-542,137,-313,6000,-5000,4000,461063,
1960,4240,15584,-509,200,-274,6000,-5000,4000,461065,
1804,4168,15432,-509,190,-323,6000,-5000,4000,461078,
1772,4140,15576,-359,251,-312,6000,-5000,4000,461080,
1836,4148,15540,-490,176,-324,6000,-5000,4000,461082,
1992,4256,15588,-398,178,-350,6000,-5000,4000,461095,
1996,4232,15496,-437,189,-331,6000,-5000,4000,461097,
1784,4176,15548,-398,172,-371,6000,-5000,4000,461099,
1880,4364,15640,-423,149,-319,6000,-5000,4000,461101,
1780,4292,15628,-472,93,-342,6000,-5000,4000,461114,
1748,4324,15568,-364,119,-287,6000,-5000,4000,461116,
1808,4256,15500,-490,72,-334,6000,-5000,4000,461118,
2020,4296,15672,-446,146,-356,6000,-5000,4000,461131,
1964,4288,15548,-498,123,-327,6000,-5000,4000,461133,
2004,4412,15532,-434,134,-343,6000,-5000,4000,461135,
2144,4304,15576,-509,146,-323,6000,-5000,4000,461138,
1892,4296,15552,-519,142,-323,6000,-5000,4000,461150,
1988,4272,15608,-399,223,-289,6000,-5000,4000,461152,
1876,4288,15632,-509,156,-320,6000,-5000,4000,461155,
2140,4248,15680,-467,189,-291,6000,-5000,4000,461167,
1856,4224,15720,-504,180,-245,6000,-5000,4000,461169,
1904,4244,15664,-430,205,-234,6000,-5000,4000,461172,
1768,4252,15564,-418,140,-198,6000,-5000,3000,461184,
1820,4256,15628,-542,84,-229,6000,-5000,3000,461186,
1892,4256,15628,-439,167,-175,6000,-5000,3000,461189,
1868,4276,15620,-564,63,-201,6000,-5000,3000,461191,
1828,4296,15612,-502,58,-197,6000,-5000,3000,461203,
1868,4284,15852,-558,35,-160,6000,-5000,3000,461206,
1988,4312,15712,-496,59,-179,6000,-5000,3000,461208,
2032,4296,15720,-490,93,-125,7000,-5000,3000,461220,
1908,4260,15780,-610,26,-157,7000,-5000,3000,461223,
1852,4204,15628,-488,91,-123,7000,-5000,3000,461225,
1780,4272,15708,-618,13,-141,7000,-5000,3000,461227,
1872,4320,15736,-614,55,-196,6000,-5000,3000,461240,
1896,4220,15700,-646,40,-156,6000,-5000,3000,461242,
2012,4372,15708,-557,71,-188,6000,-5000,3000,461244,
1856,4236,15616,-548,65,-120,6000,-5000,3000,461257,
1772,4220,15624,-680,-5,-194,6000,-5000,3000,461259,
1712,4176,15676,-526,57,-153,6000,-5000,3000,461261,
1916,4208,15676,-685,2,-162,6000,-5000,3000,461263,
1900,4136,15576,-589,38,-141,6000,-5000,3000,461276,
1928,4160,15704,-619,66,-116,6000,-5000,3000,461278,
1832,4176,15456,-540,77,-110,6000,-5000,3000,461280,
1800,4196,15540,-499,121,-94,6000,-5000,3000,461293,
1748,4076,15512,-632,32,-125,6000,-5000,3000,461295,
1652,4180,15540,-520,135,-121,6000,-5000,3000,461297,
1852,4208,15544,-614,38,-120,6000,-5000,3000,461299,
1740,4228,15424,-482,75,-135,6000,-5000,3000,461312,
1860,4196,15596,-553,94,-117,6000,-5000,3000,461314,
1744,4192,15596,-498,108,-154,6000,-5000,3000,461316,
1860,4128,15464,-421,147,-149,6000,-5000,3000,461329,
1764,4160,15380,-555,105,-154,6000,-5000,3000,461331,
1944,4148,15380,-413,173,-153,7000,-5000,3000,461333,
1872,4024,15436,-553,122,-221,7000,-5000,3000,461336,
1884,4072,15404,-410,204,-240,7000,-5000,3000,461348,
1832,4008,15444,-464,179,-215,7000,-5000,3000,461350,
1924,4044,15484,-384,230,-241,7000,-5000,3000,461352,
1956,4004,15532,-287,316,-213,7000,-5000,3000,461365,
1808,4028,15396,-404,291,-278,7000,-5000,3000,461367,
2008,4020,15416,-283,316,-215,7000,-5000,3000,461369,
1856,3972,15468,-297,290,-293,7000,-5000,3000,461382,
1776,3880,15552,-249,304,-323,7000,-5000,3000,461384,
1760,3808,15624,-305,311,-268,7000,-5000,3000,461387,
1884,3972,15604,-242,300,-307,7000,-5000,3000,461389,
2020,4024,15872,-184,327,-263,7000,-5000,3000,461401,
2100,3992,15796,-279,286,-300,7000,-5000,3000,461404,
2156,4044,15932,-169,357,-262,7000,-5000,3000,461406,
2172,3840,16100,-239,537,-249,7000,-5000,3000,461418,
2244,3848,16240,-221,593,-225,7000,-5000,3000,461421,
2368,3868,16300,-219,695,-198,7000,-5000,3000,461423,
2528,3800,16436,-176,777,-231,7000,-5000,3000,461425,
2908,3652,17096,-67,1407,-144,7000,-4000,3000,461438,
2816,3744,17356,-193,1458,-129,7000,-4000,3000,461440,
2764,3684,17572,-61,1619,-134,7000,-4000,3000,461442,
2568,3732,18044,-173,2157,-244,7000,-4000,3000,461455,
2508,3760,18272,-219,2240,-262,7000,-4000,3000,461457,
2404,3816,18364,-249,2298,-242,7000,-4000,3000,461459,
1848,4256,18804,-586,2300,-353,7000,-4000,3000,461472,
1804,4208,18896,-542,2318,-324,7000,-4000,3000,461474,
1700,4276,18892,-721,2198,-375,7000,-4000,3000,461476,
1232,4184,19288,-1000,1677,-388,7000,-4000,3000,461488,
1208,4140,19540,-1133,1492,-359,7000,-4000,3000,461491,
1228,4216,19736,-1104,1362,-344,7000,-4000,3000,461493,
1684,4372,20572,-1463,860,-330,6000,-4000,3000,461505,
1732,4548,20452,-1680,728,-313,6000,-4000,3000,461508,
2016,4448,20732,-1632,743,-270,6000,-4000,3000,461510,
2572,4628,21732,-2125,795,-152,6000,-3000,3000,461522,
2672,4732,21672,-2203,908,-135,6000,-3000,3000,461525,
2828,4804,21740,-2365,1059,-118,6000,-3000,3000,461527,
3104,5332,22116,-3056,2019,-7,6000,-3000,3000,461539,
3104,5468,22368,-3069,2194,21,6000,-3000,3000,461542,
3032,5492,22288,-3375,2324,52,6000,-3000,3000,461544,
3100,5560,22256,-3342,2503,81,6000,-3000,3000,461546,
2528,5348,22232,-4241,2954,283,5000,-3000,3000,461558,
2272,5384,22184,-4374,2966,251,5000,-3000,3000,461561,
2252,5328,22212,-4538,2952,325,5000,-3000,3000,461563,
1844,5340,22012,-5349,2607,391,5000,-3000,3000,461575,
1872,5484,22060,-5360,2567,483,5000,-3000,3000,461578,
1804,5460,22056,-5573,2421,452,5000,-3000,3000,461580,
1620,5376,22068,-6208,2152,589,4000,-2000,3000,461592,
1784,5312,22172,-6401,2076,623,4000,-2000,3000,461595,
1656,5224,21956,-6432,2097,634,4000,-2000,3000,461597,
1852,5200,22172,-7072,2085,740,3000,-2000,3000,461609,
1864,5380,22088,-7334,2079,720,3000,-2000,3000,461612,
2004,5116,22168,-7343,2165,732,3000,-2000,3000,461614,
1876,5256,21804,-8044,2455,746,2000,-2000,4000,461626,
1852,5240,21748,-8071,2545,757,2000,-2000,4000,461628,
1864,5264,21760,-8243,2615,730,2000,-2000,4000,461631,
1680,5344,21272,-8883,2910,655,1000,-1000,4000,461643,
1564,5228,21588,-8918,2999,658,1000,-1000,4000,461645,
1700,5332,21348,-9074,2986,593,1000,-1000,4000,461647,
1292,5084,20908,-9559,3175,477,0,-1000,4000,461660,
1332,5168,20740,-9705,3165,474,0,-1000,4000,461662,
1252,5008,20636,-9750,3199,454,0,-1000,4000,461664,
1148,5036,20640,-9915,3151,454,0,-1000,4000,461667,
676,4728,20100,-10415,3009,348,0,-1000,4000,461679,
832,4788,20072,-10363,3038,385,0,-1000,4000,461682,
716,4700,19992,-10550,2930,334,-1000,-1000,4000,461684,
708,4324,19584,-10824,2739,328,-1000,0,4000,461696,
624,4364,19776,-10915,2732,355,-2000,0,4000,461698,
504,4268,19720,-10912,2736,343,-2000,0,4000,461701,
516,4312,19512,-11058,2646,360,-2000,0,4000,461703,
464,3976,19152,-11435,2545,361,-3000,0,4000,461715,
504,4004,19060,-11353,2609,381,-3000,0,4000,461718,
452,4020,19096,-11553,2513,300,-3000,0,4000,461720,
-64,3768,18468,-11829,2340,156,-4000,0,4000,461732,
-84,3616,18456,-11899,2289,192,-5000,0,4000,461735,
-264,3624,18420,-11938,2255,169,-5000,0,4000,461737,
-152,3532,18420,-12025,2186,182,-5000,0,4000,461739,
-624,3184,18056,-12310,1880,87,-6000,0,4000,461752,
-580,3176,17876,-12236,1890,95,-6000,0,4000,461754,
-552,2924,18000,-12350,1742,63,-6000,0,4000,461756,
-548,2752,17704,-12462,1490,23,-7000,0,4000,461768,
-660,2680,17608,-12524,1374,23,-8000,0,4000,461771,
-708,2680,17612,-12504,1364,-54,-8000,0,4000,461773,
-540,2624,17484,-12603,1299,-78,-8000,0,4000,461775,
-868,2332,16880,-12796,1150,-370,-9000,0,4000,461788,
-900,2340,16768,-12705,1191,-358,-9000,0,4000,461790,
-1104,2216,16804,-12848,1132,-456,-10000,0,4000,461792,
-1232,1800,16264,-12870,940,-571,-11000,0,4000,461805,
-1220,1780,16016,-12989,993,-590,-11000,0,4000,461807,
-1040,1728,16132,-12920,1120,-639,-11000,0,4000,461809,
-1224,1464,15728,-13026,1849,-756,-12000,0,3000,461822,
-1236,1448,15632,-13183,1897,-790,-12000,1000,3000,461824,
-1436,1216,15652,-13044,2006,-747,-13000,1000,3000,461826,
-1640,780,15312,-12854,837,-888,-14000,1000,3000,461839,
-1640,760,15300,-12766,853,-972,-14000,1000,3000,461841,
-1528,704,15408,-12842,810,-993,-14000,1000,3000,461843,
-1996,380,14980,-12777,872,-1174,-15000,1000,3000,461856,
-2124,404,14796,-12657,892,-1175,-16000,1000,3000,461858,
-2188,376,14712,-12746,850,-1220,-16000,1000,3000,461860,
-2328,148,13960,-12573,667,-1608,-17000,1000,3000,461873,
-2480,-16,13864,-12682,548,-1723,-17000,1000,3000,461875,
-2472,-88,13928,-12529,568,-1758,-17000,1000,3000,461877,
-2932,-684,13388,-12449,168,-2074,-18000,1000,3000,461890,
-2912,-736,13340,-12411,107,-2186,-19000,1000,3000,461892,
-3124,-780,13292,-12328,39,-2156,-19000,1000,3000,461894,
-2772,-968,13048,-12138,-350,-2607,-20000,1000,2000,461907,
-2852,-992,12988,-11934,-377,-2674,-20000,1000,2000,461909,
-2816,-1144,12848,-12020,-489,-2811,-20000,1000,2000,461911,
-2936,-1756,12324,-11586,-701,-3282,-21000,1000,2000,461924,
-2644,-1816,12476,-11481,-648,-3318,-21000,1000,2000,461926,
-2856,-1880,12528,-11432,-676,-3446,-22000,1000,2000,461928,
-2704,-2200,12316,-10864,-302,-3774,-23000,1000,2000,461941,
-2736,-2284,12264,-10895,-258,-3852,-23000,1000,2000,461943,
-2668,-2436,12096,-10742,-116,-3985,-23000,1000,2000,461946,
-2080,-2984,12080,-10195,850,-4527,-24000,1000,1000,461958,
-2196,-3092,11964,-10237,1026,-4666,-24000,1000,1000,461961,
-2280,-3196,11932,-10015,1360,-4739,-24000,1000,1000,461963,
-2196,-3508,11672,-9572,2824,-5204,-25000,1000,0,461976,
-2324,-3468,11828,-9463,3035,-5354,-25000,1000,0,461978,
-2336,-3620,11620,-9412,3209,-5392,-25000,1000,0,461980,
-3052,-3704,11168,-8977,4159,-6041,-26000,1000,359000,461992,
-3308,-3788,11052,-8798,4142,-6084,-26000,1000,359000,461995,
-3684,-3996,10772,-8805,3866,-6212,-27000,1000,359000,461997,
-3864,-4296,10780,-8194,3604,-6665,-27000,1000,358000,462010,
-3620,-4324,10848,-8100,3549,-6742,-27000,1000,358000,462012,
-3796,-4472,10748,-8002,3399,-6911,-28000,1000,358000,462014,
-3520,-4652,10168,-7321,2785,-7320,-28000,1000,357000,462027,
-3532,-4804,10408,-7326,2596,-7442,-28000,1000,357000,462029,
-3420,-4796,10508,-7091,2533,-7463,-29000,1000,357000,462031,
-2616,-4928,10668,-6606,2318,-7769,-29000,1000,356000,462044,
-2496,-4996,10392,-6485,2283,-7879,-29000,1000,356000,462046,
-2584,-4960,10492,-6409,2294,-7869,-29000,1000,356000,462049,
-2660,-5004,9968,-6046,2279,-8117,-30000,1000,355000,462061,
-2724,-5036,10096,-5830,2294,-8101,-30000,1000,355000,462064,
-2612,-5436,9736,-5427,2087,-8299,-31000,1000,354000,462076,
-2324,-5544,9628,-5319,2029,-8375,-31000,1000,354000,462078,
-2264,-5528,9584,-5227,1969,-8312,-31000,0,354000,462081,
-2164,-5828,9664,-4755,1687,-8436,-31000,0,353000,462093,
-2172,-6012,9544,-4507,1702,-8430,-31000,0,353000,462096,
-2132,-5988,9520,-4514,1578,-8466,-31000,0,353000,462098,
-1956,-6220,9812,-3870,1434,-8694,-32000,0,352000,462110,
-1924,-6212,9696,-3806,1389,-8707,-32000,0,352000,462112,
-1776,-6064,9696,-3642,1357,-8770,-32000,0,352000,462115,
-1532,-6020,9336,-3110,1168,-8920,-32000,0,351000,462127,
-1612,-5980,9344,-3141,1074,-8985,-32000,0,351000,462129,
-1592,-6032,9408,-2945,1138,-9001,-32000,0,351000,462132,
-1284,-6368,9256,-2547,1050,-9098,-33000,0,350000,462144,
-1152,-6420,9212,-2363,1086,-9147,-33000,0,350000,462146,
-1180,-6500,9288,-2362,1073,-9108,-33000,0,350000,462149,
-792,-6896,9648,-1753,1088,-9265,-33000,0,349000,462161,
-836,-6952,9732,-1564,1138,-9257,-33000,-1000,349000,462163,
-824,-7100,9804,-1521,1095,-9378,-33000,-1000,349000,462166,
-424,-6784,10076,-948,1053,-9510,-33000,-1000,348000,462178,
-332,-6776,10084,-945,1085,-9489,-33000,-1000,348000,462181,
-248,-6824,9984,-777,1102,-9527,-33000,-1000,348000,462183,
-180,-6852,10424,-322,1280,-9529,-33000,-2000,347000,462196,
-292,-6872,10296,-364,1208,-9614,-33000,-2000,347000,462198,
-176,-6904,10280,-163,1235,-9609,-33000,-2000,347000,462200,
116,-7012,10124,200,976,-9760,-33000,-2000,346000,462213,
288,-7172,10096,299,966,-9830,-33000,-2000,346000,462215,
328,-7140,10192,390,1006,-9784,-33000,-2000,345000,462217,
1112,-6992,10296,890,1168,-9901,-33000,-3000,345000,462230,
1148,-6932,10468,1116,1292,-9953,-33000,-3000,344000,462232,
1340,-6912,10396,1073,1276,-9938,-33000,-3000,344000,462234,
2340,-6464,10436,1662,2101,-9891,-33000,-3000,343000,462247,
2436,-6356,10564,1831,2066,-9710,-33000,-3000,343000,462249,
2580,-6440,10604,1982,2044,-9750,-32000,-3000,343000,462252,
4172,-6080,9316,2105,5050,-10010,-32000,-4000,342000,462264,
1112,-6064,11496,2367,2232,-10200,-32000,-4000,342000,462266,
4376,-8112,10160,2553,5068,-9990,-32000,-4000,342000,462269,
3228,-5720,10800,3196,5476,-9467,-32000,-4000,340000,462281,
3756,-6124,10592,3110,6070,-9553,-32000,-4000,340000,462283,
3580,-5924,10588,3190,6453,-9489,-32000,-4000,340000,462286,
3048,-5996,11104,3716,6620,-9361,-31000,-4000,339000,462298,
2820,-6040,11344,3827,6631,-9400,-31000,-4000,339000,462301,
2904,-5952,11552,3923,6484,-9290,-31000,-4000,339000,462303,
2976,-5860,11800,4367,6199,-9103,-30000,-4000,338000,462315,
3084,-5872,11640,4609,6154,-9040,-30000,-4000,337000,462318,
2800,-5740,11740,4545,6023,-9004,-30000,-4000,337000,462320,
2696,-5464,12000,4905,5271,-8825,-30000,-4000,336000,462333,
2776,-5380,12044,4986,5103,-8702,-29000,-4000,336000,462335,
3140,-5500,12376,5298,3883,-8481,-29000,-4000,335000,462347,
3368,-5380,12572,5510,3778,-8371,-29000,-4000,335000,462350,
3560,-5308,12620,5412,3547,-8296,-29000,-4000,335000,462352,
4420,-4992,13008,5774,2776,-7772,-28000,-4000,334000,462365,
4396,-5080,13060,5763,2684,-7585,-28000,-4000,334000,462367,
4816,-4868,13112,5834,2569,-7502,-28000,-4000,334000,462369,
5548,-4632,13472,6050,2513,-6766,-27000,-5000,333000,462382,
5792,-4560,13548,5953,2444,-6643,-27000,-5000,333000,462384,
5948,-4456,13544,6119,2545,-6502,-27000,-5000,333000,462386,
6260,-4608,14076,6074,2710,-5734,-26000,-5000,332000,462399,
6092,-4684,14004,6107,2679,-5636,-26000,-5000,332000,462401,
6144,-4664,13936,6103,2742,-5429,-26000,-5000,332000,462403,
6072,-4416,14184,6158,2471,-4677,-25000,-5000,331000,462416,
6036,-4448,14044,6291,2475,-4610,-25000,-5000,331000,462418,
5800,-4352,14112,6149,2269,-4405,-25000,-5000,331000,462420,
4868,-4556,13888,6195,1101,-3749,-24000,-5000,331000,462433,
4724,-4516,13772,6208,840,-3588,-24000,-5000,331000,462435,
4724,-4568,13844,6206,507,-3515,-24000,-5000,331000,462438,
5028,-4492,14008,6481,-1155,-2842,-23000,-5000,331000,462450,
5104,-4672,14092,6393,-1479,-2744,-23000,-5000,330000,462452,
5976,-4112,14244,6575,-2837,-2080,-22000,-6000,330000,462465,
6292,-4136,14088,6606,-2962,-1937,-22000,-6000,330000,462467,
6188,-3976,14144,6635,-3140,-1855,-22000,-6000,330000,462470,
7164,-3804,14296,6840,-2736,-1138,-22000,-6000,330000,462482,
7340,-3824,14408,6725,-2667,-1008,-21000,-7000,330000,462485,
7264,-3712,14380,6884,-2509,-926,-21000,-7000,330000,462487,
6852,-3452,14336,6939,-2086,-211,-21000,-7000,330000,462499,
6692,-3436,14400,6815,-2129,-128,-20000,-7000,330000,462502,
6748,-3400,14200,6923,-2028,28,-20000,-7000,330000,462504,
5952,-3608,14052,6968,-2574,536,-20000,-7000,331000,462516,
5980,-3508,14128,7079,-2670,600,-19000,-7000,331000,462519,
5828,-3608,14052,7073,-2805,726,-19000,-7000,331000,462521,
5940,-3060,14096,7246,-3814,1245,-19000,-8000,331000,462534,
5960,-2980,14104,7427,-3940,1346,-19000,-8000,331000,462536,
6204,-2840,14256,7328,-4134,1408,-18000,-8000,331000,462538,
7552,-2720,14540,7645,-4233,1729,-18000,-8000,331000,462551,
7844,-2828,14796,7747,-3997,1848,-18000,-8000,331000,462553,
8184,-2780,14808,7795,-3808,1867,-17000,-9000,331000,462555,
9240,-1936,15920,8173,-2008,2319,-17000,-9000,332000,462568,
9284,-1748,16072,8046,-1584,2412,-16000,-9000,332000,462570,
9564,-1812,16176,8205,-1209,2485,-16000,-9000,332000,462573,
9260,-1132,17112,8041,680,3177,-15000,-9000,332000,462585,
9104,-1172,17316,7963,758,3326,-15000,-9000,332000,462587,
9152,-912,17292,7988,1059,3472,-15000,-9000,332000,462590,
7824,-436,17832,7562,1666,4238,-14000,-9000,332000,462602,
7792,-372,18052,7581,1721,4410,-14000,-9000,332000,462605,
7700,-436,18216,7400,1706,4563,-14000,-9000,333000,462607,
7692,-392,18500,7075,1413,5279,-14000,-8000,333000,462619,
7812,-316,18760,7108,1407,5384,-13000,-8000,333000,462621,
7684,-340,18560,6950,1345,5509,-13000,-8000,333000,462624,
7300,-276,18948,6729,1138,6248,-13000,-8000,334000,462636,
7192,-240,18848,6601,1100,6346,-13000,-8000,334000,462638,
7208,-148,19140,6655,1088,6475,-12000,-8000,334000,462641,
6660,-44,19752,6199,1043,7044,-12000,-8000,335000,462653,
6628,-20,19732,6059,905,7128,-12000,-8000,335000,462655,
6392,60,19888,6065,855,7226,-12000,-8000,335000,462657,
5168,444,19944,5534,19,7653,-11000,-8000,335000,462670,
4952,436,20044,5560,-136,7722,-11000,-8000,336000,462672,
4860,440,19908,5365,-240,7783,-11000,-8000,336000,462674,
4712,232,20264,5160,-973,8151,-11000,-8000,336000,462687,
4884,196,20352,5234,-959,8227,-10000,-8000,337000,462689,
4932,224,20512,5072,-1034,8266,-10000,-8000,337000,462691,
5672,700,20700,4820,-611,8407,-10000,-8000,338000,462704,
5660,704,20816,4873,-387,8489,-10000,-8000,338000,462706,
5840,764,20668,4720,-240,8530,-10000,-8000,338000,462708,
5540,1028,21000,4339,1242,8777,-9000,-7000,339000,462721,
5548,1116,21104,4164,1408,8801,-9000,-7000,339000,462723,
5312,1144,21256,4147,1593,8822,-9000,-7000,339000,462725,
3660,1344,21496,3579,2182,9006,-9000,-7000,340000,462738,
3564,1404,21460,3374,2093,9014,-9000,-7000,340000,462740,
3300,1336,21236,3375,2131,9049,-9000,-7000,340000,462742,
2524,1532,21016,2678,1571,9249,-9000,-7000,341000,462755,
2388,1556,21028,2689,1461,9289,-9000,-7000,341000,462757,
2372,1592,21084,2492,1259,9296,-9000,-6000,341000,462759,
2608,1400,21096,2023,731,9279,-8000,-6000,342000,462772,
2644,1284,21020,2000,793,9350,-8000,-6000,342000,462774,
2484,1344,21216,1827,743,9328,-8000,-6000,342000,462776,
2256,1460,21228,1399,1151,9567,-8000,-6000,343000,462789,
2340,1520,21112,1168,1189,9555,-8000,-6000,343000,462791,
2268,1524,21156,1197,1321,9623,-8000,-6000,344000,462793,
1776,1608,20956,608,1536,9630,-8000,-6000,344000,462806,
1532,1564,20928,496,1558,9651,-8000,-6000,345000,462808,
1412,1560,20976,421,1617,9656,-8000,-5000,345000,462810,
760,1568,20552,-46,1403,9515,-8000,-5000,346000,462823,
424,1560,20572,-54,1490,9495,-8000,-5000,346000,462825,
476,1588,20556,-232,1388,9439,-8000,-5000,346000,462827,
8,1680,19968,-583,1057,9261,-8000,-5000,347000,462839,
132,1780,19848,-704,1026,9258,-8000,-5000,347000,462842,
-68,1680,19760,-769,927,9208,-8000,-5000,347000,462844,
-28,1644,19132,-1046,600,8989,-8000,-4000,348000,462857,
-340,1512,19080,-1266,489,8923,-8000,-4000,348000,462859,
-264,1544,19212,-1137,534,8918,-8000,-4000,348000,462861,
-504,1328,18784,-1425,343,8775,-8000,-4000,349000,462873,
-376,1520,18796,-1430,285,8778,-8000,-4000,349000,462876,
-412,1416,18652,-1484,234,8743,-9000,-4000,349000,462878,
-368,1388,18340,-1666,85,8606,-9000,-4000,350000,462890,
-540,1312,18452,-1563,173,8556,-9000,-4000,350000,462893,
-504,1288,18492,-1725,172,8550,-9000,-4000,350000,462895,
-1012,1280,17980,-1821,316,8378,-9000,-4000,351000,462907,
-920,1300,17972,-1918,310,8350,-9000,-4000,351000,462909,
-1028,1316,17644,-1886,343,8299,-9000,-4000,352000,462912,
-1564,1216,17536,-2164,1156,7983,-9000,-3000,352000,462924,
-1456,1252,17104,-2388,1438,7908,-9000,-3000,352000,462926,
-1764,1044,17044,-2368,1783,7836,-9000,-3000,352000,462929,
-1748,896,17108,-2210,-671,7443,-9000,-3000,353000,462941,
-2488,908,16940,-2162,-538,7348,-9000,-3000,353000,462943,
-2272,972,16800,-2232,-776,7255,-9000,-3000,353000,462946,
-1836,852,16500,-2221,-1141,6917,-10000,-3000,354000,462958,
-1664,748,16356,-2106,-1077,6848,-10000,-3000,354000,462960,
-1796,708,16396,-2179,-1118,6754,-10000,-3000,354000,462963,
-1584,516,16272,-2026,-881,6434,-10000,-3000,355000,462975,
-1696,576,16028,-2125,-833,6336,-10000,-3000,355000,462978,
-1596,456,16156,-1992,-772,6278,-10000,-3000,355000,462980,
-1764,248,16268,-1946,-396,5959,-10000,-3000,356000,462992,
-1840,172,15796,-2025,-391,5884,-10000,-3000,356000,462995,
-1908,228,15960,-1874,-234,5872,-10000,-3000,356000,462997,
-2200,32,15640,-1892,77,5573,-10000,-3000,356000,463010,
-2144,0,15736,-1840,120,5486,-10000,-2000,357000,463012,
-1972,-12,15544,-1862,179,5444,-10000,-2000,357000,463014,
-2464,24,15500,-1822,306,5051,-10000,-2000,357000,463026,
-2544,-104,15368,-1669,335,5001,-10000,-2000,357000,463029,
-2520,-132,15336,-1766,277,4898,-10000,-2000,357000,463031,
-2512,-164,15516,-1531,294,4387,-11000,-2000,358000,463043,
-2508,-232,15528,-1482,325,4290,-11000,-2000,358000,463046,
-2372,-164,15364,-1464,331,4169,-11000,-2000,358000,463048,
-2100,-136,15360,-1171,642,3683,-11000,-2000,358000,463061,
-2072,-184,15504,-1272,608,3561,-11000,-2000,358000,463063,
-2148,-216,15420,-1104,785,3489,-11000,-2000,358000,463065,
-2284,-100,15584,-1093,1177,3051,-11000,-1000,359000,463078,
-2280,-156,15608,-1073,1210,2968,-11000,-1000,359000,463080,
-2220,-60,15560,-1059,1325,2933,-11000,-1000,359000,463082,
-2464,-164,15528,-1043,1334,2605,-11000,-1000,359000,463095,
-2452,-184,15524,-905,1394,2543,-11000,-1000,359000,463097,
-2536,-324,15508,-1003,1272,2506,-11000,-1000,359000,463100,
-2768,-440,15688,-880,1039,2216,-11000,-1000,359000,463112,
-2792,-424,15660,-824,987,2172,-11000,-1000,359000,463114,
-2484,-348,15708,-842,912,2082,-11000,-1000,359000,463117,
-1944,-432,15740,-653,896,1806,-11000,-1000,359000,463129,
-1904,-352,15880,-762,866,1754,-11000,-1000,359000,463131,
-1868,-476,15748,-609,989,1687,-11000,-1000,359000,463134,
-1444,-416,15940,-691,1430,1473,-11000,0,0,463146,
-1324,-304,16040,-657,1578,1377,-11000,0,0,463148,
-1356,-352,16028,-656,1666,1347,-11000,0,0,463151,
-1444,-288,16036,-593,1753,1277,-11000,0,0,463153,
-1308,-228,16180,-607,2102,930,-11000,0,0,463165,
-1392,-252,16164,-732,2062,871,-11000,0,0,463167,
-1508,-340,16128,-625,2164,839,-11000,0,0,463170,
-1776,-336,16124,-779,1967,619,-11000,0,0,463182,
-1692,-432,16028,-710,1938,578,-11000,0,0,463184,
-1620,-412,16068,-777,1875,559,-11000,0,0,463187,
-1772,-476,16084,-731,1812,492,-11000,0,0,463189,
-1380,-456,16180,-677,1517,391,-11000,0,0,463201,
-1472,-484,16168,-767,1420,324,-11000,0,0,463204,
-1444,-336,16196,-728,1420,325,-11000,0,0,463206,
-1352,-340,16188,-761,1316,261,-11000,0,0,463208,
-1404,-400,16000,-738,1080,234,-11000,0,0,463220,
-1144,-576,16100,-875,992,194,-11000,0,0,463223,
-1344,-488,16136,-727,984,199,-11000,0,0,463225,
-1204,-520,16060,-866,858,189,-11000,0,0,463227,
-1324,-560,16024,-771,656,61,-11000,0,0,463239,
-1216,-576,16096,-786,605,91,-11000,0,0,463242,
-1120,-636,15904,-714,568,51,-11000,0,0,463244,
-1188,-568,16076,-816,519,83,-11000,0,0,463246,
-1012,-692,16200,-832,337,-112,-11000,0,0,463258,
-1012,-840,16192,-722,405,-88,-11000,0,0,463261,
-952,-808,16288,-846,359,-152,-11000,0,0,463263,
-944,-960,16152,-700,435,-142,-11000,0,0,463265,
-692,-680,16200,-744,457,-356,-11000,0,0,463278,
-696,-592,16192,-697,476,-456,-11000,0,0,463280,
-680,-588,16112,-756,464,-459,-11000,0,0,463282,
-704,-440,16260,-718,472,-562,-11000,0,0,463285,
-896,-628,16084,-677,511,-683,-11000,0,359000,463297,
-948,-624,16136,-825,399,-725,-11000,0,359000,463299,
-720,-604,16216,-664,434,-705,-11000,0,359000,463301,
-636,-708,16208,-756,233,-809,-11000,0,359000,463314,
-432,-576,16232,-679,234,-804,-11000,0,359000,463316,
-420,-692,16252,-763,231,-772,-11000,0,359000,463318,
-320,-728,16076,-657,248,-801,-11000,0,359000,463321,
-136,-788,16236,-632,303,-684,-11000,0,359000,463333,
-60,-628,16508,-737,270,-698,-11000,0,359000,463335,
-76,-748,16316,-608,344,-678,-11000,0,359000,463338,
236,-704,16528,-771,372,-642,-11000,0,359000,463350,
132,-696,16500,-726,433,-676,-11000,0,359000,463352,
128,-648,16548,-827,438,-646,-11000,0,359000,463355,
204,-848,16528,-749,419,-653,-11000,0,359000,463357,
4,-924,16496,-840,438,-644,-11000,0,359000,463369,
72,-936,16468,-938,344,-693,-11000,0,359000,463372,
100,-952,16496,-837,404,-638,-11000,0,359000,463374,
-120,-1012,16376,-945,147,-731,-11000,0,359000,463386,
-56,-1004,16500,-888,146,-763,-11000,0,359000,463389,
-32,-960,16520,-949,68,-792,-11000,0,359000,463391,
64,-1004,16540,-877,22,-848,-11000,0,359000,463393,
236,-932,16356,-810,-82,-889,-11000,0,359000,463406,
208,-992,16600,-956,-161,-909,-11000,0,359000,463408,
268,-916,16356,-815,-110,-909,-11000,0,359000,463410,
416,-1016,16328,-891,-124,-976,-11000,0,359000,463423,
488,-992,16328,-822,-82,-971,-11000,0,359000,463425,
592,-1000,16340,-895,-65,-965,-11000,0,359000,463427,
532,-1064,16452,-814,-25,-951,-11000,0,359000,463430,
924,-952,16388,-731,188,-904,-11000,0,359000,463442,
824,-996,16284,-903,150,-912,-11000,0,359000,463444,
1032,-864,16332,-735,249,-916,-11000,0,359000,463447,
780,-924,16392,-859,357,-828,-11000,0,358000,463459,
840,-992,16380,-882,325,-815,-11000,0,358000,463461,
792,-944,16280,-849,387,-774,-11000,0,358000,463464,
764,-916,16276,-909,332,-815,-11000,0,358000,463466,
740,-896,16212,-824,242,-711,-11000,0,358000,463478,
768,-916,16260,-954,166,-681,-11000,0,358000,463481,
824,-956,16176,-814,198,-674,-11000,0,358000,463483,
632,-1056,16320,-856,-60,-640,-11000,0,358000,463495,
636,-1008,16152,-920,-118,-684,-11000,0,358000,463498,
624,-1048,16224,-866,-150,-661,-11000,0,358000,463500,
900,-1012,16312,-934,-298,-686,-11000,0,358000,463512,
788,-996,16308,-793,-225,-654,-11000,0,358000,463515,
784,-1012,16268,-929,-297,-687,-11000,0,358000,463517,
832,-1228,16476,-796,-118,-660,-11000,0,358000,463529,
924,-1160,16540,-835,-95,-635,-11000,0,358000,463532,
776,-1256,16564,-776,-52,-683,-11000,0,358000,463534,
884,-1188,16428,-789,12,-645,-11000,0,358000,463536,
1064,-1168,16508,-783,246,-629,-11000,0,358000,463549,
1192,-1160,16448,-649,309,-633,-11000,0,358000,463551,
1252,-1108,16632,-782,389,-641,-11000,0,358000,463553,
1024,-1104,16580,-773,752,-693,-12000,0,358000,463566,
960,-1096,16432,-779,784,-603,-12000,0,358000,463568,
1036,-1112,16432,-765,767,-669,-12000,0,358000,463570,
