Ax,Ay,Az,Gx,Gy,Gz,Roll,Pitch,Yaw,Timestamp,Target
-3868,-1184,16660,-399,3692,2533,-11000,9000,114000,1000028,
-4024,-1068,16420,-558,2274,2723,-11000,9000,114000,1000040,
-3936,-1112,16476,-490,2059,2684,-11000,9000,114000,1000043,
-3884,-1072,16300,-596,1828,2660,-11000,9000,114000,1000045,
-3468,-992,16440,-635,632,2472,-11000,9000,114000,1000057,
-3440,-940,16576,-619,480,2454,-11000,9000,114000,1000060,
-3496,-908,16492,-604,290,2391,-11000,9000,114000,1000062,
-3344,-916,16536,-678,-444,2328,-11000,9000,114000,1000074,
-3264,-956,16468,-748,-616,2255,-11000,9000,114000,1000076,
-3220,-912,16536,-712,-642,2279,-11000,9000,114000,1000079,
-2932,-1196,16744,-729,-1047,2167,-11000,9000,115000,1000091,
-2872,-1092,16480,-610,-1026,2203,-11000,9000,115000,1000094,
-2920,-1000,16540,-721,-1061,2175,-11000,9000,115000,1000096,
-2560,-980,16456,-538,-867,2216,-11000,9000,115000,1000108,
-2440,-964,16208,-661,-855,2248,-11000,9000,115000,1000111,
-2328,-956,16328,-546,-775,2242,-11000,9000,115000,1000113,
-2284,-1036,16268,-515,-547,2212,-11000,9000,115000,1000125,
-2404,-1060,16032,-579,-576,2129,-11000,9000,115000,1000128,
-2280,-1120,16016,-492,-448,2100,-11000,9000,116000,1000140,
-2368,-1128,16092,-626,-479,2031,-11000,9000,116000,1000142,
-2176,-1008,15968,-532,-401,2033,-11000,9000,116000,1000145,
-2120,-1180,16052,-726,-248,1938,-11000,9000,116000,1000157,
-2176,-1096,16000,-637,-196,1913,-11000,9000,116000,1000160,
-2264,-1136,15892,-716,-162,1893,-11000,9000,116000,1000162,
-2076,-1120,15864,-740,264,1902,-11000,9000,116000,1000174,
-2112,-1060,15968,-703,351,2003,-11000,9000,116000,1000177,
-2232,-1052,15716,-764,378,1979,-11000,9000,116000,1000179,
-2392,-944,15660,-796,558,2184,-11000,9000,116000,1000191,
-2300,-880,15780,-954,494,2180,-11000,9000,116000,1000194,
-2368,-820,15764,-888,502,2218,-11000,9000,116000,1000196,
-2180,-764,15972,-1123,87,2030,-11000,9000,117000,1000208,
-2148,-860,15720,-1026,67,2012,-11000,9000,117000,1000211,
-2304,-924,16008,-1177,-59,1949,-11000,9000,117000,1000213,
-2164,-1108,15968,-1198,-332,1735,-11000,9000,117000,1000225,
-2056,-1132,15924,-1204,-390,1736,-11000,9000,117000,1000228,
-2072,-1164,16120,-1100,-433,1696,-11000,9000,117000,1000230,
-1568,-1180,16012,-1154,-638,1602,-11000,9000,117000,1000243,
-1512,-1120,15804,-1160,-720,1523,-11000,9000,117000,1000245,
-1384,-1008,15724,-1214,-777,1531,-11000,9000,117000,1000247,
-1276,-876,15976,-1307,-1100,1248,-11000,9000,117000,1000260,
-1260,-828,15992,-1149,-1075,1231,-11000,9000,117000,1000262,
-1136,-928,16232,-1306,-1254,996,-11000,9000,118000,1000274,
-1168,-984,16312,-1146,-1219,937,-11000,9000,118000,1000277,
-1256,-924,16336,-1285,-1354,865,-11000,9000,118000,1000279,
-1044,-1036,16320,-1256,-1751,479,-11000,9000,118000,1000291,
-956,-1080,16152,-1311,-1828,418,-11000,9000,118000,1000294,
-880,-1084,16132,-1233,-1871,354,-11000,9000,118000,1000296,
-1008,-1180,16404,-1178,-1854,231,-11000,9000,118000,1000308,
-1108,-1180,16400,-1264,-1934,162,-11000,8000,118000,1000311,
-804,-1148,16316,-1174,-1850,168,-11000,8000,118000,1000313,
-772,-1240,16492,-1221,-1779,-171,-11000,8000,118000,1000325,
-668,-1264,16416,-1073,-1661,-229,-11000,8000,118000,1000328,
-708,-1280,16468,-1194,-1692,-275,-11000,8000,118000,1000330,
-844,-1216,16528,-1070,-1489,-479,-11000,8000,118000,1000342,
-804,-1236,16756,-1087,-1455,-510,-11000,8000,118000,1000345,
-740,-1428,16852,-1058,-1320,-681,-11000,8000,118000,1000357,
-636,-1408,16776,-944,-1245,-702,-11000,8000,118000,1000359,
-716,-1424,16660,-1001,-1343,-808,-11000,8000,118000,1000362,
-756,-1540,16516,-826,-1298,-1076,-11000,8000,118000,1000374,
-760,-1492,16524,-945,-1366,-1154,-11000,8000,118000,1000377,
-720,-1392,16448,-801,-1281,-1168,-11000,7000,118000,1000379,
-288,-1348,16308,-907,-1114,-1261,-11000,7000,118000,1000391,
-272,-1276,16312,-877,-1066,-1302,-11000,7000,118000,1000394,
-380,-1304,16396,-959,-1062,-1297,-11000,7000,118000,1000396,
-264,-1336,16372,-1045,-767,-1460,-11000,7000,117000,1000408,
-320,-1300,16376,-936,-636,-1445,-11000,7000,117000,1000411,
-276,-1456,16376,-1047,-641,-1545,-11000,7000,117000,1000413,
-188,-1356,16324,-842,-521,-1795,-12000,7000,117000,1000426,
-300,-1440,16408,-920,-627,-1853,-12000,7000,117000,1000428,
-1196,-1712,16460,-806,-867,-1887,-12000,7000,117000,1000440,
-1152,-1632,16456,-851,-947,-1814,-12000,7000,117000,1000443,
-1336,-1644,16468,-812,-1047,-1826,-12000,7000,117000,1000445,
-1168,-1392,16348,-750,-1708,-1869,-12000,6000,117000,1000457,
-1200,-1288,16492,-836,-1929,-1966,-12000,6000,117000,1000460,
-1100,-1376,16516,-776,-2011,-1986,-12000,6000,117000,1000462,
-1148,-1400,16456,-889,-2713,-2284,-12000,6000,117000,1000475,
-876,-1272,16476,-773,-2742,-2276,-12000,6000,117000,1000477,
-956,-1524,16424,-930,-2901,-2298,-12000,6000,117000,1000479,
-860,-1580,16248,-795,-3173,-2086,-12000,6000,116000,1000492,
-956,-1680,16176,-910,-3268,-2070,-12000,6000,116000,1000494,
-792,-1600,16400,-827,-3563,-1960,-12000,5000,116000,1000506,
-788,-1616,16340,-835,-3613,-1916,-12000,5000,116000,1000509,
-644,-1560,16456,-817,-3681,-2010,-12000,5000,116000,1000511,
-504,-1756,16252,-787,-3874,-2109,-12000,5000,116000,1000523,
-664,-1632,16316,-928,-3914,-2163,-12000,4000,116000,1000526,
-488,-1652,16404,-789,-3809,-2153,-12000,4000,116000,1000528,
112,-1472,16292,-894,-3140,-2187,-12000,4000,116000,1000540,
136,-1460,16292,-794,-2920,-2209,-12000,4000,116000,1000542,
112,-1496,16420,-902,-2728,-2199,-12000,4000,116000,1000545,
-244,-1580,16640,-767,-1539,-2245,-12000,4000,116000,1000557,
-380,-1644,16484,-757,-1358,-2181,-12000,4000,116000,1000559,
-912,-1924,16812,-739,-1315,-2318,-12000,3000,116000,1000572,
-1068,-1920,16828,-600,-1300,-2311,-12000,3000,116000,1000574,
-1192,-2048,16932,-738,-1490,-2367,-12000,3000,115000,1000577,
-1912,-2020,16724,-563,-2389,-2579,-12000,3000,115000,1000589,
-1860,-1976,16776,-693,-2609,-2607,-12000,3000,115000,1000591,
-1824,-2000,16696,-577,-2788,-2641,-12000,3000,115000,1000594,
-1000,-1632,16112,-753,-3511,-2866,-12000,3000,115000,1000606,
-1016,-1780,16172,-776,-3562,-2934,-12000,3000,115000,1000609,
-828,-1676,16448,-744,-3524,-2916,-12000,3000,115000,1000611,
-808,-1800,16324,-661,-2944,-2811,-12000,2000,115000,1000623,
-788,-1768,16304,-616,-2732,-2687,-12000,2000,115000,1000626,
-676,-1976,16720,-583,-1661,-2286,-12000,2000,115000,1000638,
-612,-2020,16480,-435,-1431,-2222,-12000,2000,115000,1000640,
-728,-2008,16660,-579,-1295,-2196,-12000,2000,114000,1000643,
-1280,-2136,16620,-351,-362,-2007,-12000,2000,114000,1000655,
-1252,-2108,16484,-419,-253,-1957,-12000,2000,114000,1000657,
-1232,-2116,16732,-288,-108,-1894,-12000,2000,114000,1000660,
-1260,-1852,16468,-315,481,-1561,-12000,2000,114000,1000672,
-1440,-2004,16444,-308,575,-1561,-12000,2000,114000,1000674,
-1376,-1916,16308,-323,714,-1443,-12000,2000,114000,1000677,
-1556,-1736,16428,-354,1248,-1071,-12000,2000,114000,1000689,
-1628,-1648,16320,-240,1405,-918,-12000,2000,114000,1000691,
-1828,-1892,16424,-254,1485,-539,-12000,2000,114000,1000704,
-1920,-1900,16408,-98,1522,-513,-12000,2000,114000,1000706,
-2108,-1920,16392,-186,1403,-441,-12000,2000,114000,1000709,
-1820,-1632,16204,-195,989,-139,-12000,2000,114000,1000721,
-1792,-1536,16292,-241,941,-37,-12000,2000,114000,1000723,
-1644,-1540,16228,-216,842,-5,-12000,2000,114000,1000726,
-1532,-1732,16044,-201,723,242,-12000,2000,114000,1000738,
-1624,-1644,16048,-262,702,174,-12000,2000,114000,1000740,
-1600,-1568,16072,-234,770,297,-12000,2000,114000,1000743,
-1692,-1512,16056,-208,787,725,-12000,3000,114000,1000755,
-1716,-1336,16108,-107,774,833,-12000,3000,114000,1000757,
-1872,-1328,16104,-208,674,860,-12000,3000,114000,1000760,
-2140,-1456,16164,-65,56,1025,-12000,3000,114000,1000772,
-2208,-1400,16264,-199,-202,983,-12000,3000,114000,1000775,
-2080,-1332,16252,-44,-293,1085,-12000,3000,114000,1000777,
-1660,-1240,16252,-350,-1365,1122,-12000,3000,114000,1000789,
-1524,-1260,16188,-288,-1464,1140,-12000,3000,114000,1000792,
-1580,-1200,16228,-423,-1554,1161,-12000,3000,114000,1000794,
-932,-1468,15988,-345,-1467,1233,-12000,2000,114000,1000806,
-848,-1520,15948,-390,-1378,1311,-12000,2000,114000,1000809,
-708,-1492,15956,-327,-1267,1298,-12000,2000,114000,1000811,
12,-1472,15900,-257,-454,1506,-12000,2000,115000,1000823,
-104,-1536,15956,-283,-296,1508,-12000,2000,115000,1000826,
-100,-1516,16056,-237,-88,1627,-12000,2000,115000,1000828,
-812,-1548,15960,-153,599,1915,-12000,2000,115000,1000840,
-824,-1360,15788,-50,680,2015,-12000,2000,115000,1000843,
-1176,-1412,15768,-169,549,2060,-12000,2000,115000,1000845,
-1528,-1328,16116,-245,-274,2006,-12000,3000,115000,1000857,
-1580,-1324,16024,-361,-492,1939,-12000,3000,115000,1000860,
-1496,-1256,16000,-338,-749,1866,-12000,3000,115000,1000862,
-1192,-1220,16160,-491,-1801,1676,-12000,2000,115000,1000875,
-1248,-1304,16240,-651,-1955,1654,-12000,2000,115000,1000877,
-1148,-1412,16308,-548,-2011,1700,-12000,2000,115000,1000879,
-360,-1364,16436,-685,-1919,1852,-12000,2000,116000,1000892,
-100,-1440,16388,-543,-1776,1896,-12000,2000,116000,1000894,
352,-1348,16260,-531,-927,2000,-12000,2000,116000,1000906,
368,-1388,16332,-458,-767,2005,-12000,2000,116000,1000909,
336,-1472,16344,-507,-590,2026,-12000,2000,116000,1000911,
-40,-1512,16368,-374,99,2123,-12000,2000,116000,1000923,
-84,-1568,16304,-300,184,2131,-12000,2000,116000,1000926,
-84,-1432,16344,-271,219,2147,-12000,2000,116000,1000928,
236,-1172,16472,-296,115,2002,-12000,2000,116000,1000940,
-40,-1408,16644,-394,26,1918,-12000,2000,116000,1000943,
-8,-1228,16584,-297,27,1901,-12000,2000,116000,1000945,
-80,-1336,16772,-346,23,1790,-12000,2000,117000,1000957,
88,-1224,16772,-222,97,1799,-12000,2000,117000,1000960,
0,-1296,16724,-314,69,1753,-12000,2000,117000,1000962,
196,-1376,16800,-83,445,1867,-12000,2000,117000,1000974,
176,-1488,16932,-160,492,1899,-12000,2000,117000,1000977,
292,-1280,16960,-9,607,1921,-12000,2000,117000,1000979,
-204,-1464,16856,71,975,2164,-12000,2000,117000,1000991,
-52,-1328,16924,35,918,2181,-12000,2000,117000,1000994,
-284,-1488,16912,84,975,2205,-12000,2000,117000,1000996,
-300,-1520,16800,52,683,2152,-12000,3000,117000,1001008,
-536,-1512,16740,178,657,2178,-12000,3000,117000,1001010,
-648,-1524,16700,96,532,2154,-12000,3000,117000,1001013,
-268,-1352,16460,192,376,2182,-12000,3000,118000,1001025,
-232,-1360,16708,82,272,2140,-11000,3000,118000,1001027,
4,-1340,16724,201,366,2173,-11000,3000,118000,1001030,
196,-1376,16708,88,788,2157,-11000,3000,118000,1001042,
176,-1316,16712,234,983,2195,-11000,3000,118000,1001044,
308,-1416,16616,80,1105,2206,-11000,3000,118000,1001047,
312,-1484,16492,267,1888,2410,-11000,3000,118000,1001059,
236,-1584,16368,326,2003,2474,-11000,3000,118000,1001061,
-52,-1508,16468,369,2083,2486,-11000,3000,118000,1001064,
-444,-1264,16448,433,2078,2554,-11000,3000,118000,1001076,
-304,-1196,16484,317,1935,2459,-11000,3000,118000,1001078,
-384,-1204,16452,403,1897,2421,-11000,3000,118000,1001081,
-536,-1036,16448,258,1080,1978,-11000,4000,119000,1001093,
-616,-1016,16448,349,965,1931,-11000,4000,119000,1001095,
-580,-972,16316,210,775,1819,-11000,4000,119000,1001098,
-260,-856,16476,220,362,1632,-11000,4000,119000,1001110,
-208,-856,16452,45,288,1531,-11000,4000,119000,1001112,
-304,-832,16368,172,317,1536,-11000,4000,119000,1001115,
-124,-712,16512,33,248,1305,-11000,4000,119000,1001127,
-152,-760,16640,135,273,1250,-11000,4000,119000,1001129,
-240,-648,16492,12,249,1176,-11000,4000,119000,1001132,
-152,-652,16440,81,313,823,-11000,4000,119000,1001144,
-44,-660,16360,53,339,774,-11000,4000,119000,1001146,
-144,-636,16308,41,278,680,-11000,4000,119000,1001149,
-144,-368,16184,-40,101,270,-11000,4000,119000,1001161,
-100,-288,16152,-186,40,148,-11000,4000,119000,1001163,
-164,-84,16092,-140,19,109,-11000,4000,119000,1001165,
-252,-220,16380,-351,-171,-306,-11000,4000,119000,1001178,
-348,-236,16328,-250,-148,-358,-11000,4000,119000,1001180,
-468,-272,16320,-379,-190,-444,-11000,4000,119000,1001182,
-844,-292,16084,-302,-232,-785,-11000,4000,119000,1001195,
-800,-224,16160,-441,-335,-818,-11000,4000,119000,1001197,
-696,-124,16148,-323,-305,-840,-11000,4000,119000,1001199,
-700,96,16276,-565,-663,-1015,-11000,3000,119000,1001212,
-808,132,16456,-613,-729,-1124,-11000,3000,119000,1001214,
-856,108,16576,-621,-771,-1117,-11000,3000,119000,1001216,
-1172,16,16660,-753,-1017,-1378,-11000,3000,119000,1001229,
-1104,8,16808,-661,-1011,-1319,-11000,3000,119000,1001231,
-1096,-44,16632,-753,-1122,-1402,-11000,3000,119000,1001233,
-1180,8,16996,-683,-1283,-1372,-11000,3000,119000,1001246,
-1164,24,16840,-849,-1370,-1448,-11000,3000,119000,1001248,
-1292,-12,16884,-732,-1311,-1456,-11000,3000,119000,1001250,
-1200,40,16944,-845,-1376,-1694,-11000,3000,119000,1001263,
-1128,140,16920,-706,-1292,-1724,-11000,3000,118000,1001265,
-1116,64,17048,-832,-1367,-1788,-11000,3000,118000,1001267,
-1380,-64,17084,-644,-1301,-2044,-11000,3000,118000,1001280,
-1232,-132,17184,-653,-1265,-2028,-11000,3000,118000,1001282,
-1264,-128,17168,-545,-1273,-2141,-11000,3000,118000,1001284,
-1512,172,16944,-477,-961,-1977,-11000,3000,118000,1001297,
-1856,96,16852,-521,-943,-1989,-11000,3000,118000,1001299,
-1844,36,16972,-435,-843,-1882,-11000,2000,118000,1001302,
-2528,-248,16676,-459,-1016,-1680,-11000,2000,118000,1001314,
-2740,-404,16752,-390,-1075,-1655,-11000,2000,118000,1001316,
-2824,-436,16764,-510,-1238,-1746,-11000,2000,118000,1001319,
-2984,-768,16892,-351,-1939,-2506,-11000,2000,118000,1001331,
-3396,-696,16920,-466,-2007,-2644,-11000,2000,118000,1001334,
-3536,-776,17260,-315,-1908,-2775,-11000,2000,118000,1001336,
-4928,-884,17028,-295,-1140,-2888,-11000,2000,117000,1001348,
-5156,-844,16972,-298,-1040,-2851,-11000,2000,117000,1001351,
-7120,-692,17048,-165,-197,-2022,-11000,2000,117000,1001363,
-7436,-808,17028,-301,-155,-1888,-11000,2000,117000,1001365,
-7904,-724,16928,-178,44,-1658,-11000,2000,117000,1001368,
-9572,-1112,17292,-129,-420,-1156,-10000,2000,117000,1001380,
-9560,-1324,17400,89,-520,-1108,-10000,2000,117000,1001383,
-10024,-1368,17044,-33,-694,-1125,-10000,2000,117000,1001385,
-11060,-856,16636,85,-2034,-869,-10000,2000,117000,1001397,
-11332,-800,17316,191,-2228,-615,-10000,2000,117000,1001400,
-11480,-836,16816,352,-2519,-483,-10000,2000,117000,1001402,
-12172,-232,16144,388,-2709,1319,-10000,2000,117000,1001414,
-12484,-240,15924,190,-2733,1672,-10000,2000,117000,1001417,
-12512,-184,15704,233,-2599,2091,-10000,2000,117000,1001419,
-13760,-3104,21068,984,-2363,4180,-10000,2000,118000,1001431,
-11264,-1300,14188,828,-2354,4189,-10000,2000,118000,1001434,
-12536,-1908,16312,533,-3406,4433,-10000,2000,118000,1001436,
-13176,-1392,15672,776,-1951,7014,-10000,2000,118000,1001448,
-13440,-1220,15992,621,-1772,7652,-10000,2000,119000,1001451,
-12544,-1672,16604,563,-1103,10813,-10000,3000,120000,1001463,
-12256,-1940,16744,514,-1018,11224,-10000,3000,120000,1001465,
-12180,-1912,16824,612,-902,11644,-10000,3000,120000,1001468,
-11604,-2292,16908,625,-164,14015,-10000,3000,121000,1001480,
-11748,-2484,16772,567,-145,14538,-10000,3000,122000,1001483,
-11868,-2724,16896,615,56,15121,-10000,3000,122000,1001485,
-12008,-4012,17144,490,418,18158,-9000,4000,124000,1001497,
-11668,-4272,17144,645,445,18590,-9000,4000,124000,1001500,
-11600,-4432,17232,534,336,18990,-9000,4000,124000,1001502,
-10536,-4904,17432,1006,-425,20523,-9000,5000,126000,1001514,
-10400,-4912,16968,971,-591,20719,-9000,5000,126000,1001517,
-10268,-4940,16920,1071,-767,21022,-9000,5000,127000,1001519,
-9484,-4992,16852,1035,-1767,22522,-9000,5000,129000,1001532,
-9136,-5072,16764,1059,-1994,22859,-9000,5000,129000,1001534,
-7876,-5704,16996,1287,-2417,24349,-8000,5000,132000,1001546,
-7776,-5956,16952,1243,-2484,24633,-8000,5000,132000,1001549,
-7408,-6004,17144,1354,-2402,24852,-8000,5000,133000,1001551,
-7128,-6916,17760,1638,-2366,26167,-8000,6000,135000,1001563,
-7024,-6940,17812,1856,-2281,26391,-8000,6000,136000,1001566,
-7012,-7152,18120,1858,-2424,26591,-8000,6000,136000,1001568,
-6980,-7504,18004,2512,-3135,27811,-7000,6000,139000,1001580,
-6932,-7652,18016,2506,-3342,27917,-7000,6000,139000,1001583,
-6716,-7724,17840,2667,-3566,28177,-7000,6000,140000,1001585,
-6076,-8052,17368,3073,-5217,29197,-7000,6000,143000,1001598,
-5960,-8300,17136,3056,-5577,29414,-7000,6000,143000,1001600,
-5888,-8308,17060,3207,-5819,29571,-6000,6000,144000,1001602,
-4136,-8892,16876,3319,-6988,30479,-6000,6000,147000,1001615,
-3960,-8928,16896,3536,-6996,30683,-6000,5000,147000,1001617,
-2608,-9784,17216,3863,-6909,31447,-5000,5000,150000,1001630,
-2272,-9948,17172,4059,-6772,31648,-5000,5000,151000,1001632,
-2044,-9892,17192,4042,-6636,31719,-5000,5000,151000,1001634,
-600,-10096,16112,4640,-5546,32474,-5000,5000,155000,1001647,
-756,-10656,17680,4810,-5407,32567,-4000,5000,155000,1001649,
-220,-10560,16868,4855,-5201,32767,-4000,5000,156000,1001651,
-12,-11504,17592,5860,-3781,32767,-4000,5000,159000,1001664,
84,-11644,17464,5837,-3580,32767,-4000,5000,159000,1001666,
404,-11740,17628,6149,-3330,32767,-3000,4000,160000,1001668,
1124,-12236,17184,6590,-2531,32767,-3000,4000,163000,1001681,
1064,-12316,17040,6760,-2474,32767,-3000,4000,164000,1001683,
1256,-12364,16912,6798,-2357,32767,-2000,4000,164000,1001685,
1768,-12392,16896,7385,-2033,32767,-2000,4000,167000,1001698,
1916,-12356,16936,7574,-1941,32767,-2000,4000,168000,1001700,
2972,-12632,17004,8141,-1994,32767,-1000,4000,171000,1001713,
3068,-12548,16744,8391,-1947,32767,-1000,4000,172000,1001715,
3144,-12528,16640,8335,-2000,32767,0,4000,172000,1001717,
4196,-12220,16140,9025,-1705,32767,0,4000,175000,1001730,
4420,-12236,16172,8975,-1599,32767,0,4000,176000,1001732,
4760,-12060,16068,9243,-1464,32767,0,4000,177000,1001734,
5832,-11228,15524,9406,-760,32767,1000,3000,180000,1001747,
5840,-11104,15448,9463,-679,32767,1000,3000,180000,1001749,
6040,-10792,15196,9439,-514,32767,1000,3000,181000,1001751,
7260,-9492,14948,9327,141,32767,2000,3000,184000,1001764,
7588,-9440,14804,9341,377,32767,2000,3000,184000,1001766,
7636,-9140,14760,9109,428,32767,2000,3000,185000,1001768,
8456,-8156,13956,8780,1050,32409,3000,3000,188000,1001781,
8632,-8104,13776,8572,1051,32122,3000,3000,189000,1001783,
8744,-7964,13860,8650,1140,32000,3000,3000,189000,1001785,
9760,-7216,13096,8013,1215,30623,4000,2000,192000,1001798,
10032,-7068,13088,8002,1301,30502,4000,2000,193000,1001800,
10336,-6924,12848,7847,1463,30193,4000,2000,193000,1001802,
12036,-5156,12720,6985,1390,28752,5000,2000,196000,1001815,
12288,-4752,12760,6947,1365,28409,5000,2000,196000,1001817,
12576,-4520,12716,6632,1282,28095,5000,2000,197000,1001819,
13492,-3048,12868,5712,844,25929,6000,1000,199000,1001832,
13700,-3364,13584,5346,778,25407,6000,1000,200000,1001834,
13792,-3376,13296,5428,822,24994,6000,1000,200000,1001836,
13428,-3740,13784,4595,284,22434,6000,1000,202000,1001849,
13488,-3752,13484,4602,188,22019,7000,0,203000,1001851,
13348,-4052,13464,4386,-19,21579,7000,0,203000,1001854,
13984,-3984,13092,3986,-1146,19210,7000,0,205000,1001866,
14084,-3752,12912,3896,-1221,18811,7000,0,205000,1001868,
13792,-3604,12876,3737,-1328,18523,7000,0,206000,1001871,
14884,-2640,12724,3104,-1091,16844,7000,0,207000,1001883,
15096,-2576,12712,2848,-1042,16475,7000,0,207000,1001885,
15168,-2508,12604,2822,-868,16111,7000,0,208000,1001888,
15988,-2452,12528,2161,-49,13457,7000,-1000,209000,1001900,
16004,-2376,12600,2148,150,12954,7000,-1000,209000,1001902,
16296,-2340,12636,1933,178,12478,7000,-1000,209000,1001905,
16324,-2116,12732,1303,1078,10091,7000,-1000,210000,1001917,
16172,-2084,12688,1117,1107,9712,7000,-1000,211000,1001919,
15928,-2024,12756,1074,1216,9372,7000,-1000,211000,1001922,
15460,-2000,13456,402,1214,7432,7000,-1000,211000,1001934,
15336,-2020,13484,243,1077,7057,7000,-2000,212000,1001936,
15428,-2144,13684,159,981,6671,7000,-2000,212000,1001939,
15408,-2276,14072,-369,46,4373,7000,-2000,212000,1001951,
15312,-2240,14248,-355,-27,3998,7000,-2000,212000,1001953,
15412,-2076,13900,-582,-209,3563,7000,-2000,212000,1001956,
14988,-2120,14016,-1105,-623,1417,7000,-2000,212000,1001968,
14928,-2192,13812,-1350,-789,1002,7000,-2000,212000,1001970,
14896,-2328,13920,-1240,-743,621,7000,-2000,212000,1001973,
15024,-2468,14180,-1822,-933,-1490,7000,-3000,212000,1001985,
14680,-2608,14096,-1802,-920,-1882,7000,-3000,212000,1001987,
14820,-2552,14280,-2025,-995,-2205,7000,-3000,212000,1001990,
14456,-2396,13916,-2399,-912,-4080,6000,-3000,212000,1002002,
14296,-2120,13956,-2531,-885,-4269,6000,-3000,212000,1002004,
14064,-2352,13924,-2574,-828,-4648,6000,-3000,212000,1002007,
13508,-1824,14344,-3044,-700,-6294,6000,-3000,211000,1002019,
13412,-1752,14264,-3218,-756,-6689,6000,-4000,211000,1002022,
13264,-1816,14280,-3201,-622,-6986,6000,-4000,211000,1002024,
12340,-1812,14428,-3751,-687,-8931,5000,-4000,210000,1002036,
12060,-1988,14536,-3631,-673,-9298,5000,-4000,210000,1002039,
11152,-2140,14464,-4044,-913,-11082,5000,-4000,209000,1002051,
11240,-2124,14284,-4075,-994,-11340,5000,-4000,209000,1002053,
11104,-2112,14112,-4247,-980,-11712,5000,-4000,208000,1002056,
10604,-1952,14504,-4613,-1055,-12604,4000,-4000,207000,1002068,
10552,-1928,14624,-4637,-1021,-12732,4000,-4000,207000,1002070,
10328,-1832,14824,-4660,-1017,-12957,4000,-4000,207000,1002073,
9548,-1292,14944,-5097,-636,-13953,4000,-4000,205000,1002085,
9552,-1308,15044,-5345,-691,-14193,4000,-4000,205000,1002088,
8696,-1476,15636,-5566,-999,-15499,3000,-5000,204000,1002100,
8324,-1700,15672,-5762,-1165,-15675,3000,-5000,203000,1002103,
7940,-1940,15652,-5682,-1315,-15922,3000,-5000,203000,1002105,
6768,-2324,15860,-5997,-2359,-16600,3000,-5000,201000,1002117,
6816,-2396,15632,-6107,-2554,-16860,3000,-5000,201000,1002120,
6548,-2544,15808,-6155,-2804,-16807,3000,-5000,201000,1002122,
7064,-2636,15700,-6326,-3662,-17479,2000,-5000,199000,1002134,
7228,-2484,15740,-6335,-3715,-17483,2000,-5000,199000,1002137,
7836,-2612,15860,-6694,-3657,-18137,1000,-6000,197000,1002149,
7916,-2536,15912,-6634,-3396,-18228,1000,-6000,197000,1002151,
8000,-2592,16056,-6781,-3401,-18386,1000,-6000,196000,1002154,
7904,-3012,16528,-6700,-2440,-18927,1000,-6000,195000,1002166,
7760,-3152,16276,-6775,-2331,-18961,1000,-6000,194000,1002168,
7664,-3036,16188,-6633,-2162,-19103,1000,-6000,194000,1002170,
6984,-3556,16464,-6525,-1577,-19309,0,-7000,192000,1002183,
7068,-3532,16656,-6540,-1509,-19483,0,-7000,192000,1002185,
6828,-3628,16596,-6433,-1381,-19403,0,-7000,191000,1002188,
6620,-3620,16592,-6381,-1217,-19740,0,-7000,190000,1002200,
6512,-3596,16676,-6228,-1087,-19677,0,-7000,189000,1002202,
6584,-3552,16700,-6312,-1076,-19814,0,-7000,189000,1002205,
6480,-3476,16828,-6001,-632,-19995,0,-7000,187000,1002217,
6504,-3496,16948,-6090,-596,-20055,0,-7000,187000,1002219,
6232,-3544,17032,-5902,-494,-20086,0,-7000,186000,1002222,
5900,-3496,16820,-5747,-78,-20474,-1000,-7000,184000,1002234,
5752,-3664,16972,-5617,46,-20605,-1000,-7000,184000,1002236,
5580,-3792,16544,-5430,366,-20870,-1000,-7000,182000,1002249,
5752,-3824,16536,-5361,345,-21105,-1000,-7000,182000,1002251,
5592,-4052,16540,-5249,404,-21087,-1000,-7000,181000,1002253,
4732,-4012,16308,-4969,706,-21370,-1000,-7000,179000,1002266,
4796,-4064,16448,-4767,835,-21315,-1000,-7000,179000,1002268,
4908,-3948,16296,-4782,825,-21385,-1000,-7000,178000,1002270,
4716,-3536,16424,-4308,1250,-21355,-2000,-7000,176000,1002283,
4600,-3600,16292,-4387,1291,-21294,-2000,-7000,176000,1002285,
4468,-3548,16348,-4201,1468,-21320,-2000,-7000,176000,1002287,
3816,-3612,16176,-3860,1777,-21521,-2000,-7000,174000,1002300,
3868,-3580,16216,-3757,1745,-21744,-2000,-7000,173000,1002302,
3384,-3436,15892,-3457,1672,-22004,-2000,-7000,171000,1002315,
3248,-3476,16112,-3511,1662,-22057,-2000,-7000,171000,1002317,
3136,-3468,15876,-3385,1792,-22042,-2000,-7000,170000,1002319,
2660,-3636,15604,-3191,2110,-22043,-2000,-7000,168000,1002332,
2708,-3628,15664,-3027,2235,-22071,-2000,-7000,168000,1002334,
2740,-3732,15668,-3105,2292,-22034,-2000,-7000,167000,1002336,
2860,-3276,15628,-2829,2822,-22196,-2000,-7000,165000,1002349,
2736,-3252,15716,-2861,2836,-22130,-2000,-7000,165000,1002351,
1960,-3100,15600,-2853,3500,-22294,-2000,-7000,163000,1002364,
1840,-3076,15672,-2745,3672,-22202,-2000,-7000,162000,1002366,
1952,-2988,15556,-2793,3734,-22357,-2000,-7000,162000,1002368,
1116,-3060,15616,-2570,4077,-22498,-2000,-6000,160000,1002381,
904,-2952,15624,-2687,4030,-22522,-2000,-6000,159000,1002383,
680,-3112,15568,-2558,4119,-22477,-2000,-6000,159000,1002385,
464,-2888,15364,-2670,4158,-22219,-2000,-6000,157000,1002398,
672,-2944,15324,-2546,4243,-22192,-2000,-6000,156000,1002400,
284,-2864,15644,-2652,4589,-21824,-2000,-5000,154000,1002412,
264,-2820,15548,-2631,4687,-21876,-2000,-5000,154000,1002415,
192,-2928,15676,-2656,4749,-21760,-2000,-5000,154000,1002417,
-76,-2828,15900,-2616,5473,-21785,-3000,-5000,151000,1002429,
-184,-2744,15888,-2521,5669,-21674,-3000,-5000,151000,1002432,
-116,-2788,15972,-2542,5783,-21744,-3000,-5000,151000,1002434,
-628,-2844,16036,-2061,6308,-21472,-3000,-4000,149000,1002446,
-912,-2844,16084,-2092,6360,-21390,-3000,-4000,148000,1002449,
-1112,-2448,15884,-1806,7358,-20418,-3000,-3000,146000,1002461,
-1080,-2372,15740,-1905,7445,-20199,-3000,-3000,146000,1002463,
-1044,-2324,15968,-1772,7684,-20069,-3000,-3000,145000,1002466,
-2164,-2572,16644,-1837,8700,-19043,-3000,-2000,144000,1002478,
-2552,-2596,16880,-1777,8964,-18958,-3000,-2000,143000,1002480,
-2760,-2668,17060,-1825,9187,-18722,-3000,-2000,143000,1002483,
-4192,-2864,18132,-1610,10159,-17806,-3000,-1000,141000,1002495,
-4328,-2900,18148,-1446,10329,-17552,-3000,-1000,141000,1002498,
-4908,-2360,18036,-1331,10491,-16724,-3000,0,139000,1002510,
-5052,-2220,17996,-1126,10562,-16646,-3000,0,139000,1002512,
-5060,-2156,17764,-1247,10470,-16434,-3000,0,139000,1002515,
-5540,-1884,17004,-952,9847,-15872,-3000,0,137000,1002527,
-5540,-1740,17104,-1014,9628,-15684,-3000,1000,137000,1002530,
-5684,-1728,16800,-898,9455,-15640,-3000,1000,136000,1002532,
-6536,-1880,16804,-741,7853,-14875,-3000,2000,135000,1002544,
-6980,-1936,16896,-783,7461,-14859,-3000,2000,135000,1002547,
-7048,-1856,16892,-691,7104,-14625,-4000,2000,134000,1002549,
-5936,-1240,16652,-756,4603,-14159,-4000,2000,133000,1002561,
-7132,-1520,16996,-658,4329,-13945,-4000,2000,133000,1002564,
-7060,-1152,16368,-836,3841,-13817,-4000,2000,133000,1002566,
-7084,-1084,16980,-757,1971,-13027,-4000,3000,131000,1002578,
-6964,-1072,16792,-869,1542,-12810,-4000,3000,131000,1002581,
-6796,-992,16612,-770,304,-12156,-4000,3000,130000,1002593,
-6504,-944,16540,-762,136,-12118,-4000,3000,130000,1002595,
-6692,-960,16236,-812,-132,-11821,-4000,3000,130000,1002598,
-6476,-796,16240,-982,-1055,-11189,-4000,3000,128000,1002610,
-6460,-740,16160,-1058,-1258,-11155,-4000,3000,128000,1002612,
-6352,-636,16124,-1062,-1416,-10980,-4000,3000,128000,1002615,
-6120,-584,16004,-1320,-2061,-10496,-4000,2000,127000,1002627,
-5964,-696,15996,-1268,-2068,-10342,-4000,2000,127000,1002629,
-6036,-800,15880,-1421,-2249,-10292,-4000,2000,127000,1002632,
-5360,-700,15840,-1368,-2359,-9752,-5000,2000,126000,1002644,
-5392,-648,15828,-1559,-2409,-9670,-5000,2000,126000,1002647,
-5064,-600,15600,-1493,-2019,-9078,-5000,2000,125000,1002659,
-4904,-540,15556,-1478,-1873,-8890,-5000,2000,125000,1002661,
-4928,-460,15516,-1425,-1767,-8856,-5000,2000,125000,1002663,
-4368,-196,15304,-1469,-1307,-8214,-5000,2000,124000,1002676,
-4472,-56,15168,-1515,-1283,-8191,-5000,2000,124000,1002678,
-4212,-36,15144,-1537,-1309,-8057,-5000,2000,123000,1002681,
-4720,96,15520,-1698,-1477,-7760,-5000,2000,123000,1002693,
-4768,-32,15796,-1598,-1428,-7642,-5000,2000,123000,1002695,
-4788,72,15768,-1706,-1511,-7615,-5000,2000,122000,1002698,
-4712,-72,15976,-1557,-1849,-7388,-5000,1000,122000,1002710,
-4488,-24,15924,-1678,-1955,-7356,-5000,1000,122000,1002712,
-4556,-72,16000,-1527,-1986,-7268,-5000,1000,122000,1002715,
-4352,204,15960,-1611,-2389,-6815,-6000,1000,121000,1002727,
-4432,188,16112,-1528,-2425,-6739,-6000,1000,121000,1002729,
-4328,148,16248,-1598,-2404,-6578,-6000,1000,121000,1002732,
-4140,8,16056,-1512,-2395,-6068,-6000,1000,120000,1002744,
-4028,52,16168,-1480,-2339,-5927,-6000,1000,120000,1002746,
-3792,320,15388,-1604,-2630,-5384,-6000,1000,120000,1002759,
-3788,84,16400,-1426,-2623,-5241,-6000,1000,119000,1002761,
-3824,20,16396,-1518,-2671,-5178,-6000,0,119000,1002763,
-3640,108,16488,-1293,-3136,-4868,-6000,0,119000,1002776,
-3540,216,16584,-1436,-3293,-4819,-6000,0,119000,1002778,
-3428,228,16588,-1300,-3288,-4734,-6000,0,119000,1002780,
-3256,360,16828,-1339,-3209,-4176,-6000,0,118000,1002793,
-3120,304,16744,-1206,-3132,-4068,-6000,0,118000,1002795,
-3132,220,16708,-1304,-3087,-3958,-6000,0,118000,1002797,
-3068,152,16620,-1175,-2594,-3559,-6000,0,118000,1002810,
-2908,240,16668,-1196,-2453,-3446,-6000,0,118000,1002812,
-2956,300,16544,-1166,-2337,-3443,-6000,0,118000,1002814,
-2580,288,16624,-1104,-1566,-3159,-6000,0,118000,1002827,
-2764,172,16652,-1166,-1500,-3147,-6000,0,118000,1002829,
-2652,300,16688,-1090,-1376,-3040,-6000,0,118000,1002831,
-2992,224,16676,-1096,-750,-2469,-6000,0,117000,1002844,
-3064,196,16624,-979,-580,-2274,-6000,0,117000,1002846,
-3156,148,16668,-1076,-581,-2241,-6000,0,117000,1002848,
-2936,372,16604,-974,-346,-1832,-6000,0,117000,1002861,
-2920,516,16764,-1182,-422,-1822,-6000,0,117000,1002863,
-2792,520,16832,-1004,-326,-1762,-6000,0,117000,1002865,
-2564,468,16816,-1078,-472,-1590,-7000,0,117000,1002878,
-2624,512,16812,-995,-434,-1511,-7000,0,117000,1002880,
-2624,364,16856,-1085,-493,-1471,-7000,0,117000,1002882,
-2340,192,17156,-1044,-452,-1344,-7000,0,117000,1002895,
-2164,288,17200,-990,-409,-1339,-7000,0,117000,1002897,
-2176,236,17348,-956,-414,-1350,-7000,0,117000,1002899,
-1920,312,17376,-642,-68,-1208,-7000,0,117000,1002912,
-2044,436,17600,-728,-56,-1175,-7000,0,117000,1002914,
-2056,428,17724,-657,44,-1099,-7000,0,117000,1002916,
-1880,628,17868,-644,41,-1063,-7000,0,116000,1002919,
-1900,480,17864,-337,535,-934,-7000,0,116000,1002931,
-1892,444,17988,-434,573,-989,-7000,0,116000,1002933,
-2072,364,17732,-228,685,-959,-7000,0,116000,1002936,
-1884,416,17828,-140,864,-887,-7000,0,116000,1002948,
-1976,540,17748,-34,895,-851,-7000,0,116000,1002950,
-1780,616,17524,-116,852,-849,-7000,0,116000,1002953,
-1656,572,17468,38,1038,-805,-6000,0,116000,1002965,
-1860,428,17340,97,1168,-756,-6000,0,116000,1002967,
-1740,492,17272,70,1195,-787,-6000,0,116000,1002970,
-1660,468,17252,96,1290,-721,-6000,0,116000,1002972,
-1592,352,17096,168,1611,-565,-6000,0,116000,1002984,
-1544,268,17076,300,1746,-510,-6000,0,116000,1002987,
-1688,236,16948,264,1765,-512,-6000,0,116000,1002989,
-1752,116,16604,487,2214,-385,-6000,0,116000,1003001,
-1632,104,16580,375,2163,-389,-6000,0,116000,1003004,
-1544,224,16612,524,2236,-333,-6000,0,116000,1003006,
-1580,176,16444,437,2191,-340,-6000,0,116000,1003008,
-1732,224,16180,587,2383,-196,-6000,1000,116000,1003020,
-1684,80,16120,496,2392,-163,-6000,1000,116000,1003023,
-1632,152,16140,630,2498,-119,-6000,1000,116000,1003025,
-1672,232,15980,530,2736,182,-6000,1000,116000,1003037,
-1588,256,15932,618,2826,216,-6000,1000,116000,1003040,
-1616,248,15800,469,2795,266,-6000,1000,116000,1003042,
-1696,248,15540,533,2594,339,-6000,1000,116000,1003054,
-1672,312,15712,462,2505,353,-6000,1000,116000,1003057,
-1520,340,15576,536,2427,316,-6000,1000,116000,1003059,
-1428,496,15160,363,1917,416,-6000,2000,116000,1003071,
-1496,412,15364,253,1760,398,-6000,2000,116000,1003074,
-1524,396,15272,267,1748,469,-6000,2000,116000,1003076,
-1348,144,14976,99,1385,528,-6000,2000,116000,1003088,
-1264,60,14952,205,1349,582,-6000,2000,116000,1003090,
-1168,24,15012,68,1223,537,-6000,2000,116000,1003093,
-1088,84,14928,148,1228,597,-6000,2000,116000,1003095,
-1096,192,14696,-159,964,776,-6000,2000,116000,1003108,
-1212,164,14960,-60,957,772,-6000,2000,116000,1003110,
-1084,128,14884,-223,862,780,-6000,2000,116000,1003112,
-1280,-28,15160,-343,623,1003,-6000,2000,116000,1003125,
-1300,48,15144,-442,518,1057,-6000,2000,116000,1003127,
-1280,-28,15216,-426,412,1048,-6000,2000,116000,1003129,
-1652,-64,15592,-632,-462,1069,-6000,2000,116000,1003141,
-1580,128,15716,-723,-710,1028,-6000,2000,116000,1003144,
-1420,92,15820,-730,-873,1052,-6000,2000,116000,1003146,
-972,56,16120,-963,-2278,942,-6000,2000,116000,1003158,
-876,112,16100,-909,-2510,934,-6000,2000,116000,1003161,
-872,56,16084,-1042,-2833,867,-6000,2000,116000,1003163,
