Ax,Ay,Az,Gx,Gy,Gz,Roll,Pitch,Yaw,Timestamp,Target
-3076,-2588,15952,-510,210,-211,-16000,13000,94000,698306,
-3008,-2724,15796,-460,278,-297,-16000,13000,94000,698318,
-2968,-2692,15880,-442,301,-244,-16000,13000,94000,698320,
-2848,-2652,15964,-380,306,-288,-16000,13000,94000,698323,
-2788,-2532,15904,-376,476,-333,-16000,13000,94000,698335,
-2992,-2472,15836,-361,442,-326,-16000,13000,94000,698338,
-2948,-2512,15920,-393,472,-320,-16000,13000,94000,698340,
-3084,-2648,15800,-412,467,-305,-16000,13000,94000,698353,
-3124,-2624,15880,-351,511,-260,-16000,13000,94000,698355,
-3180,-2592,15872,-420,472,-281,-16000,13000,94000,698357,
-2968,-2560,15804,-273,632,-203,-16000,13000,94000,698370,
-3024,-2512,15812,-441,538,-237,-16000,13000,94000,698372,
-3016,-2548,15956,-359,601,-196,-16000,13000,94000,698374,
-3260,-2568,15980,-523,445,-124,-16000,13000,94000,698387,
-3420,-2512,15948,-382,494,-107,-16000,13000,94000,698389,
-3192,-2360,15764,-526,378,-97,-16000,1300,6724,14296,
3452,6788,14712,-882,81,839,19000,-13000,57000,700676,
3708,6788,14804,-894,335,963,19000,-13000,57000,700689,
3896,6972,15028,-886,399,946,19000,-13000,57000,700691,
0,0,0,0,0,0,19000,-13000,57000,700691,
-2956,-2340,16216,-707,-37,199,-16000,13000,94000,698426,
-3072,-2324,16164,-607,48,126,-16000,13000,94000,698439,
-2980,-2324,16152,-728,22,137,-16000,13000,94000,698441,
-3016,-2496,16224,-587,87,157,-16000,13000,94000,698443,
-3188,-2628,16184,-652,87,168,-16000,13000,94000,698456,
-3184,-2616,16184,-547,144,127,-16000,13000,94000,698458,
-3176,-2616,16252,-665,94,113,-16000,13000,94000,698460,
-3016,-2708,16036,-510,190,44,-16000,13000,94000,698473,
-3048,-2604,15964,-523,225,56,-16000,13000,94000,698475,
-3000,-2532,15904,-437,275,42,-16000,13000,94000,698478,
-3200,-2656,15788,-432,369,44,-16000,13000,94000,698490,
-3028,-2612,15908,-380,342,-31,-16000,13000,94000,698492,
-3232,-2720,15828,-429,390,-19,-16000,13000,94000,698495,
-3036,-2548,15572,-378,452,-108,-16000,13000,94000,698507,
-2904,-2536,15476,-391,513,-47,-16000,13000,94000,698509,
-2972,-2512,15540,-371,475,-123,-16000,13000,94000,698512,
-3072,-2560,15544,-384,531,-45,-16000,13000,94000,698524,
-3232,-2524,15768,-419,476,-108,-16000,13000,94000,698527,
-3272,-2508,15572,-409,542,-47,-16000,13000,94000,698529,
-3208,-2544,15636,-424,455,-69,-16000,13000,94000,698542,
-3120,-2640,15664,-396,482,-23,-16000,13000,94000,698544,
-3340,-2744,15652,-395,434,-85,-16000,13000,94000,698546,
-3332,-2660,15864,-369,389,-36,-16000,13000,94000,698559,
-3040,-2528,15760,-416,335,-52,-16000,13000,94000,698561,
-3344,-2648,16032,-422,354,-32,-16000,13000,94000,698564,
-3216,-2728,16016,-464,296,-47,-16000,13000,94000,698576,
-3216,-2744,15960,-348,331,-52,-16000,13000,94000,698578,
-3084,-2592,16024,-402,290,-79,-16000,13000,94000,698581,
-3056,-2548,16036,-274,411,-95,-16000,13000,94000,698593,
-3048,-2592,16028,-378,360,-135,-16000,13000,94000,698595,
-3128,-2616,15956,-265,381,-84,-16000,13000,94000,698598,
-3236,-2700,15960,-357,432,-179,-16000,13000,94000,698610,
-3048,-2664,16244,-221,513,-183,-16000,13000,94000,698613,
-3240,-2740,16044,-348,472,-233,-16000,13000,94000,698615,
-3236,-2664,16040,-191,515,-236,-16000,13000,94000,698627,
-3276,-2724,16032,-313,463,-228,-16000,13000,94000,698630,
-3260,-2628,15912,-188,509,-218,-16000,13000,94000,698632,
-3384,-2672,15844,-339,385,-264,-16000,13000,94000,698645,
-3396,-2644,15840,-248,447,-239,-16000,13000,94000,698647,
-3480,-2600,15912,-361,387,-279,-16000,13000,94000,698649,
-3252,-2560,15808,-263,412,-264,-16000,13000,94000,698662,
-3328,-2556,15820,-409,305,-264,-16000,13000,94000,698664,
-3292,-2556,15976,-295,403,-226,-16000,13000,94000,698666,
-3516,-2552,15828,-474,225,-216,-16000,13000,94000,698679,
-3580,-2508,15832,-351,258,-227,-16000,13000,94000,698681,
-3520,-2548,15836,-487,181,-204,-16000,13000,94000,698684,
-3424,-2388,15908,-363,159,-186,-16000,13000,94000,698696,
-3516,-2356,15908,-509,109,-174,-16000,13000,94000,698699,
-3332,-2492,15848,-360,131,-178,-16000,13000,94000,698701,
-3380,-2280,15792,-513,84,-119,-16000,13000,94000,698713,
-3440,-2364,15884,-378,150,-136,-16000,13000,94000,698716,
-3460,-2380,15864,-500,119,-137,-16000,13000,94000,698718,
-3152,-2364,15888,-409,90,-113,-16000,13000,94000,698731,
-3144,-2356,15784,-537,70,-101,-16000,13000,94000,698733,
-3264,-2448,15876,-406,123,-140,-16000,13000,94000,698735,
-3364,-2428,15828,-447,166,-58,-16000,13000,94000,698748,
-3220,-2432,15716,-412,157,-87,-16000,13000,94000,698750,
-3256,-2508,16024,-438,193,-73,-16000,13000,94000,698753,
-3144,-2416,15944,-366,241,-165,-16000,13000,94000,698765,
-3292,-2380,15968,-379,271,-108,-16000,13000,94000,698767,
-3092,-2444,15976,-388,253,-164,-16000,13000,94000,698770,
-3512,-2532,16088,-359,225,-66,-16000,13000,94000,698782,
-3376,-2456,15900,-423,167,-92,-16000,13000,94000,698785,
-3496,-2580,15880,-354,195,-41,-16000,13000,94000,698787,
-3292,-2500,15860,-427,104,-64,-16000,13000,94000,698800,
-3144,-2500,15764,-328,189,-27,-16000,13000,94000,698802,
-3104,-2456,15904,-391,104,-69,-16000,13000,94000,698804,
-3284,-2508,15924,-272,223,-58,-16000,13000,94000,698817,
-3208,-2504,15900,-404,177,-129,-16000,13000,94000,698819,
-3240,-2468,15984,-324,223,-76,-16000,13000,94000,698821,
-3104,-2440,15804,-415,194,-90,-16000,13000,94000,698834,
-3160,-2556,15972,-334,281,-74,-16000,13000,94000,698836,
-3220,-2548,15840,-373,257,-85,-16000,13000,94000,698838,
-3292,-2384,15824,-320,290,-90,-16000,13000,94000,698851,
-3156,-2428,15880,-424,235,-130,-16000,13000,94000,698853,
-3400,-2436,15840,-340,272,-73,-16000,13000,94000,698856,
-3360,-2544,15860,-501,141,-90,-16000,13000,94000,698868,
-3396,-2684,16004,-363,163,-61,-16000,13000,94000,698870,
-3228,-2564,16056,-514,115,-73,-16000,13000,94000,698873,
-3120,-2516,15864,-349,176,-45,-16000,13000,94000,698885,
-3320,-2528,15940,-485,132,-48,-16000,13000,94000,698888,
-3400,-2500,15740,-356,184,-60,-16000,13000,94000,698890,
-3204,-2400,15960,-465,131,-68,-16000,13000,94000,698903,
-3204,-2496,15972,-411,159,-60,-16000,13000,94000,698905,
-3268,-2480,15920,-486,128,-38,-16000,13000,94000,698907,
-3264,-2456,15940,-422,95,-104,-16000,13000,94000,698920,
-3348,-2480,15852,-499,80,-38,-16000,13000,94000,698922,
-3484,-2568,15968,-418,92,-81,-16000,13000,94000,698924,
-3252,-2608,15724,-424,88,14,-16000,13000,94000,698937,
-3396,-2680,15980,-417,96,-9,-16000,13000,94000,698939,
-3220,-2636,15784,-420,128,37,-16000,13000,94000,698942,
-3264,-2484,16012,-402,140,-48,-16000,13000,94000,698954,
-3396,-2592,15872,-307,222,35,-16000,13000,94000,698957,
-3312,-2504,15924,-380,204,3,-16000,13000,94000,698959,
-3204,-2344,15924,-330,196,36,-16000,13000,94000,698971,
-3344,-2372,15860,-407,116,-17,-16000,13000,94000,698974,
-3440,-2488,15896,-368,179,37,-16000,13000,94000,698976,
-3432,-2432,15976,-425,25,14,-16000,13000,94000,698989,
-3484,-2300,16060,-300,97,4,-16000,13000,94000,698991,
-3608,-2456,15884,-445,16,-5,-16000,13000,94000,698993,
-3592,-2644,15920,-234,-32,47,-16000,13000,94000,699006,
-3704,-2708,16144,-339,-195,55,-16000,13000,94000,699008,
-3512,-2680,16068,-209,-139,71,-16000,13000,94000,699011,
-3720,-2732,16216,-217,-322,115,-16000,13000,94000,699023,
-3808,-2856,16108,-92,-327,146,-16000,13000,94000,699026,
-3808,-2772,16056,-197,-362,155,-16000,13000,94000,699028,
-3672,-2660,16196,51,-404,213,-16000,13000,94000,699040,
-3540,-2540,16084,-27,-434,233,-16000,13000,94000,699043,
-3576,-2544,16016,87,-431,171,-16000,13000,94000,699045,
-3672,-2456,16044,16,-576,129,-16000,13000,94000,699058,
-3496,-2412,15900,21,-611,81,-16000,13000,94000,699060,
-3480,-2280,15900,-23,-637,124,-16000,13000,94000,699062,
-3296,-2372,15628,-4,-635,228,-16000,13000,94000,699075,
-3300,-2348,15804,67,-526,277,-16000,13000,94000,699077,
-3160,-2256,15664,-37,-560,223,-16000,13000,94000,699079,
-3012,-2172,15516,-10,-402,142,-15000,13000,94000,699092,
-2976,-2088,15496,-114,-445,137,-15000,13000,94000,699094,
-3040,-2100,15484,-58,-342,146,-15000,13000,94000,699097,
-2972,-2208,15320,-220,-239,119,-15000,13000,94000,699109,
-2952,-2240,15444,-154,-160,172,-15000,13000,94000,699111,
-2752,-2164,15288,-236,-184,100,-15000,13000,94000,699114,
-2692,-1988,15460,-224,-38,126,-15000,13000,94000,699126,
-2772,-2124,15380,-410,-120,90,-15000,13000,94000,699129,
-2712,-1908,15424,-332,-83,116,-15000,13000,94000,699131,
-2568,-2088,15700,-596,-171,-45,-15000,13000,94000,699143,
-2692,-2160,15676,-509,-135,-31,-15000,13000,94000,699146,
-2716,-2100,15680,-592,-203,-69,-15000,13000,95000,699148,
-2680,-2300,15912,-557,-104,-111,-15000,13000,95000,699161,
-2640,-2268,15964,-704,-170,-142,-15000,13000,95000,699163,
-2636,-2368,16024,-585,-64,-90,-15000,13000,95000,699165,
-2868,-2572,16096,-668,-28,-120,-15000,13000,95000,699178,
-2844,-2560,16168,-477,101,-94,-15000,13000,95000,699180,
-2800,-2564,16148,-598,73,-90,-15000,13000,95000,699182,
-2976,-2532,16304,-468,198,-82,-15000,13000,95000,699195,
-3036,-2476,16396,-481,183,-46,-15000,13000,95000,699197,
-3084,-2516,16392,-389,178,-74,-15000,13000,95000,699200,
-3384,-2584,16268,-411,35,-21,-15000,13000,95000,699212,
-3392,-2616,16164,-385,9,-66,-15000,13000,95000,699215,
-3388,-2600,16164,-406,-4,-13,-15000,13000,95000,699217,
-3124,-2312,15960,-387,42,-88,-15000,13000,95000,699229,
-2968,-2304,15904,-348,125,-76,-15000,13000,95000,699232,
-3152,-2340,15856,-365,80,-111,-15000,13000,95000,699234,
-3300,-2328,15664,-290,207,-144,-15000,13000,95000,699247,
-3268,-2300,15836,-439,147,-170,-15000,13000,95000,699249,
-3232,-2292,15740,-316,217,-162,-15000,13000,95000,699251,
-3060,-2216,15716,-467,168,-172,-15000,13000,94000,699264,
-3084,-2264,15724,-345,235,-159,-15000,13000,94000,699266,
-3132,-2236,15748,-472,186,-181,-15000,13000,94000,699269,
-3384,-2216,15884,-326,172,-182,-15000,13000,94000,699281,
-3288,-2396,15556,-501,141,-182,-15000,13000,94000,699283,
-3348,-2260,15732,-376,194,-182,-15000,13000,94000,699286,
-3200,-2148,15880,-515,59,-149,-15000,13000,94000,699298,
-3096,-2136,15580,-421,101,-129,-15000,13000,94000,699301,
-3080,-2196,15712,-550,48,-174,-15000,13000,94000,699303,
-3228,-2292,15816,-511,68,-191,-15000,13000,94000,699315,
-3340,-2304,15816,-584,66,-162,-15000,13000,94000,699318,
-3276,-2312,15976,-502,106,-176,-15000,13000,94000,699320,
-2908,-2260,15784,-586,22,-168,-15000,13000,94000,699332,
-3016,-2180,15892,-521,66,-184,-15000,13000,94000,699335,
-3140,-2236,16064,-614,75,-169,-15000,13000,94000,699337,
-3020,-2256,15972,-588,125,-181,-15000,13000,94000,699349,
-2836,-2248,15956,-620,131,-170,-15000,13000,94000,699352,
-2840,-2236,15788,-552,234,-150,-15000,13000,94000,699354,
-2712,-2180,15920,-558,382,-153,-15000,13000,94000,699366,
-2992,-2204,15808,-597,373,-214,-15000,13000,94000,699369,
-2964,-2132,15728,-591,407,-195,-15000,13000,94000,699371,
-2940,-2000,16020,-702,405,-277,-15000,13000,94000,699384,
-2856,-2084,15980,-620,456,-238,-15000,13000,94000,699386,
-2952,-2084,16072,-694,400,-293,-15000,13000,94000,699388,
-3296,-2372,15932,-653,473,-206,-15000,13000,94000,699401,
-3336,-2268,16016,-712,424,-258,-15000,13000,94000,699403,
-3188,-2364,16144,-664,491,-191,-15000,13000,94000,699405,
-3208,-2344,16060,-695,447,-212,-16000,13000,94000,699418,
-3156,-2408,16004,-604,464,-159,-16000,13000,94000,699420,
-3164,-2336,15948,-644,429,-159,-16000,13000,94000,699422,
-3368,-2328,15944,-547,486,-95,-16000,13000,94000,699435,
-3232,-2324,15860,-651,447,-122,-16000,13000,94000,699437,
-3396,-2352,15848,-540,503,-88,-16000,13000,94000,699440,
-3204,-2316,15944,-638,409,-143,-16000,13000,94000,699452,
-2856,-2260,15980,-502,500,-88,-16000,13000,94000,699455,
-3108,-2268,15832,-620,434,-143,-16000,13000,94000,699457,
-3092,-2184,15896,-506,568,-153,-16000,13000,94000,699469,
-3060,-2168,15920,-661,497,-178,-16000,13000,94000,699472,
-2936,-2168,15932,-537,520,-145,-16000,13000,94000,699474,
-2576,-2232,16324,-681,262,-209,-16000,13000,94000,699486,
-2596,-2232,16284,-570,247,-226,-16000,13000,94000,699489,
-2704,-2248,16416,-727,137,-223,-16000,13000,94000,699491,
-2460,-2156,16980,-697,-260,-345,-16000,13000,94000,699503,
-2300,-2200,16972,-853,-395,-361,-16000,13000,94000,699506,
-2176,-2188,17048,-725,-411,-347,-16000,13000,94000,699508,
-1560,-2036,17540,-1092,-752,-339,-16000,13000,94000,699521,
-1628,-1992,17700,-1069,-757,-336,-16000,13000,94000,699523,
-1268,-1976,17936,-1306,-819,-345,-16000,13000,94000,699525,
-792,-2308,18940,-1266,-652,-353,-16000,13000,94000,699538,
-660,-2360,18996,-1246,-628,-367,-16000,13000,94000,699540,
-708,-2568,19044,-1034,-578,-424,-16000,12000,94000,699543,
-316,-3068,19548,-642,-246,-710,-16000,12000,94000,699555,
-72,-3080,19588,-448,-118,-790,-16000,12000,94000,699557,
-160,-2964,19532,-417,29,-837,-16000,12000,94000,699560,
-24,-2840,19984,202,1159,-992,-16000,12000,94000,699572,
128,-2728,19964,195,1260,-977,-16000,12000,94000,699575,
196,-2696,20024,349,1304,-1055,-16000,12000,94000,699577,
-508,-2772,20548,626,1023,-1270,-16000,12000,94000,699590,
-572,-2784,20260,574,874,-1347,-16000,12000,94000,699592,
-808,-2828,19948,605,769,-1294,-16000,12000,94000,699594,
-308,-2720,20572,690,24,-1406,-16000,12000,94000,699607,
-132,-2744,21168,838,24,-1326,-16000,12000,94000,699609,
-168,-2596,21232,825,-62,-1411,-16000,12000,94000,699611,
-868,-2816,22108,1493,30,-1420,-15000,12000,94000,699624,
-904,-2916,22316,1502,-131,-1415,-15000,12000,94000,699626,
-1204,-2940,22488,1694,-161,-1390,-15000,12000,93000,699628,
-1796,-2916,22888,2144,-1819,-1538,-15000,12000,93000,699641,
-1940,-2832,22684,2397,-2175,-1605,-15000,12000,93000,699643,
-1888,-2824,22820,2309,-2599,-1680,-15000,12000,93000,699646,
-1612,-2504,22860,2810,-4553,-1880,-15000,11000,93000,699658,
-1672,-2600,23184,2800,-4806,-1954,-15000,11000,93000,699661,
-1572,-2488,22996,3024,-5170,-2024,-14000,11000,93000,699663,
-200,-2836,23076,3376,-6647,-2623,-14000,10000,93000,699676,
8,-2736,22964,3629,-6790,-2761,-14000,10000,93000,699678,
32,-2816,23068,3588,-6991,-2881,-14000,10000,93000,699680,
1160,-2868,22944,4371,-7042,-3572,-14000,9000,93000,699693,
1432,-2720,22824,4363,-6901,-3651,-13000,9000,93000,699695,
1644,-2780,22788,4592,-6689,-3804,-13000,9000,93000,699698,
2044,-2516,22876,5145,-4953,-4098,-13000,8000,93000,699710,
1924,-2460,22668,5409,-4591,-4135,-13000,8000,93000,699712,
1956,-2644,22860,5379,-4304,-4180,-13000,8000,93000,699715,
960,-2628,22948,6132,-2828,-4358,-12000,7000,92000,699727,
688,-2636,23180,6137,-2643,-4340,-12000,7000,92000,699729,
508,-2820,23156,6365,-2488,-4434,-12000,7000,92000,699732,
-480,-2680,23544,6835,-2440,-4596,-11000,7000,92000,699744,
-560,-2444,23540,6949,-2617,-4673,-11000,7000,92000,699747,
-768,-2460,23476,6978,-2717,-4679,-11000,7000,92000,699749,
-2240,-2296,23604,7404,-4307,-4617,-10000,6000,91000,699761,
-2324,-2288,23728,7566,-4644,-4525,-10000,6000,91000,699764,
-2480,-2228,23568,7605,-5133,-4562,-10000,6000,91000,699766,
-2788,-2016,23596,8075,-7741,-4424,-9000,5000,91000,699779,
-2692,-1984,23496,8011,-8336,-4537,-9000,5000,91000,699781,
-2520,-1676,23512,8152,-8850,-4526,-9000,5000,91000,699784,
-2092,-1056,23348,8203,-11343,-4781,-8000,4000,90000,699796,
-1704,-1012,23228,8331,-11615,-4782,-8000,4000,90000,699798,
-1560,-904,23152,8192,-12023,-4906,-8000,3000,90000,699801,
-284,-784,23172,8354,-13324,-5314,-7000,2000,90000,699813,
-184,-772,23080,8253,-13509,-5385,-7000,2000,90000,699816,
112,-788,23000,8416,-13650,-5449,-7000,2000,90000,699818,
976,-996,22616,8493,-13592,-6050,-6000,0,89000,699830,
1172,-1036,22544,8658,-13418,-6214,-6000,0,89000,699833,
1400,-948,22440,8543,-13248,-6314,-6000,0,89000,699835,
2352,-1172,21908,8907,-11739,-6955,-5000,-1000,89000,699848,
3584,6684,14444,-484,1283,798,18000,-13000,57000,700762,
3588,6820,14532,-738,889,686,18000,-13000,57000,700775,
3556,6852,14544,-601,874,691,18000,-13000,57000,700777,
3548,6888,14496,-760,747,634,18000,-13000,57000,700780,
3496,6724,14792,-689,563,563,18000,-13000,57000,700792,
3640,6856,14664,-814,484,555,18000,-13000,57000,700794,
3712,6728,14672,-696,521,567,18000,-13000,57000,700797,
3912,6668,14760,-876,366,489,18000,-13000,58000,700809,
3928,6784,14800,-748,418,464,18000,-13000,58000,700811,
4024,6664,14836,-910,345,455,18000,-13000,58000,700813,
3920,6756,14704,-743,366,321,18000,-13000,58000,700826,
3872,6648,14664,-924,259,289,18000,-13000,58000,700828,
3896,6712,14640,-782,336,280,18000,-13000,58000,700831,
4072,6816,14712,-951,247,146,18000,-13000,58000,700843,
4116,6764,14508,-820,321,152,18000,-13000,58000,700845,
4056,6756,14716,-965,222,119,18000,-13000,58000,700848,
3808,6604,14708,-896,296,80,18000,-13000,58000,700860,
3856,6616,14572,-1006,246,58,18000,-13000,58000,700862,
3920,6652,14748,-912,318,51,18000,-13000,58000,700865,
4000,6520,14748,-988,265,44,18000,-13000,58000,700877,
3776,6480,14740,-893,315,-4,18000,-13000,58000,700880,
3780,6468,14608,-1002,259,22,18000,-13000,58000,700882,
3808,6556,14788,-850,248,17,18000,-13000,58000,700894,
3860,6628,14636,-989,196,8,18000,-13000,58000,700896,
3912,6620,14860,-848,233,6,18000,-13000,58000,700899,
3800,6488,14740,-980,120,-14,18000,-13000,58000,700901,
3776,6656,14532,-885,-15,-33,18000,-13000,58000,700913,
3684,6728,14720,-1019,-80,-22,18000,-13000,58000,700916,
3776,6696,14760,-926,-66,-20,18000,-13000,58000,700918,
4072,6572,14712,-1045,-250,-86,18000,-13000,58000,700931,
3928,6432,14844,-935,-234,-101,18000,-13000,58000,700933,
4012,6520,14764,-1044,-256,-115,18000,-13000,58000,700935,
3912,6388,14900,-884,-303,-130,18000,-13000,58000,700948,
3920,6516,14888,-978,-287,-112,18000,-13000,58000,700950,
3744,6368,14704,-872,-307,-117,18000,-13000,58000,700952,
4036,6396,14780,-897,-373,-114,18000,-13000,57000,700965,
4052,6516,14740,-802,-375,-98,18000,-13000,57000,700967,
4068,6540,14652,-901,-416,-92,18000,-13000,57000,700970,
4020,6552,14784,-742,-337,-170,18000,-13000,57000,700982,
3956,6516,14744,-816,-300,-157,18000,-13000,57000,700984,
4104,6680,14576,-708,-239,-172,18000,-13000,57000,700987,
4132,6636,14596,-746,-21,-176,18000,-13000,57000,700999,
4048,6432,14708,-743,-39,-264,18000,-13000,57000,701002,
4160,6568,14700,-744,25,-232,18000,-13000,57000,701004,
4064,6468,14684,-655,136,-317,18000,-13000,57000,701016,
4128,6472,14656,-598,224,-272,18000,-13000,57000,701019,
4180,6540,14492,-613,235,-304,18000,-13000,57000,701021,
3956,6504,14416,-472,524,-262,18000,-13000,57000,701033,
3832,6428,14404,-567,483,-302,18000,-13000,57000,701036,
3988,6444,14456,-411,530,-309,18000,-13000,57000,701038,
4040,6560,14228,-520,553,-355,17000,-13000,57000,701051,
4136,6648,14180,-389,633,-322,18000,-13000,57000,701053,
3956,6688,14348,-542,576,-376,17000,-13000,57000,701055,
3740,6832,14392,-466,672,-365,18000,-12000,57000,701068,
3792,6892,14196,-593,583,-361,18000,-12000,57000,701070,
3636,6932,14144,-516,618,-335,18000,-12000,57000,701072,
3580,6728,14428,-795,318,-378,17000,-12000,57000,701085,
3540,6716,14344,-634,338,-363,17000,-12000,57000,701087,
3588,6604,14408,-828,236,-376,17000,-12000,57000,701090,
3592,6308,14364,-663,130,-386,17000,-12000,57000,701102,
3560,6296,14316,-788,29,-384,17000,-12000,57000,701104,
3476,6340,14388,-633,104,-353,17000,-12000,57000,701107,
3860,6436,14420,-714,126,-340,17000,-12000,57000,701119,
3932,6544,14216,-552,197,-318,17000,-12000,57000,701122,
3708,6552,14300,-700,183,-346,17000,-12000,57000,701124,
3604,6752,14224,-672,237,-375,17000,-12000,57000,701136,
3644,6668,14424,-765,199,-348,17000,-12000,57000,701139,
3640,6768,14424,-667,201,-365,17000,-12000,57000,701141,
3680,6836,14564,-884,133,-348,17000,-12000,57000,701154,
3752,6880,14564,-858,141,-404,17000,-12000,57000,701156,
3840,6756,14612,-901,134,-372,17000,-12000,57000,701158,
3656,6644,14588,-892,80,-381,17000,-12000,57000,701171,
3560,6532,14696,-926,70,-305,17000,-12000,57000,701173,
3504,6568,14672,-859,66,-361,17000,-12000,57000,701175,
3696,6464,14660,-871,24,-322,17000,-12000,57000,701188,
3768,6508,14632,-790,21,-415,17000,-12000,57000,701190,
3816,6516,14604,-845,2,-349,17000,-12000,57000,701193,
3628,6612,14552,-818,-79,-437,17000,-12000,57000,701205,
3760,6576,14704,-720,-5,-418,17000,-12000,57000,701207,
3756,6476,14744,-788,-69,-485,17000,-12000,57000,701210,
4036,6572,14640,-707,68,-482,17000,-12000,57000,701222,
3864,6608,14780,-764,46,-526,17000,-12000,57000,701224,
3700,6520,14704,-680,110,-491,17000,-12000,57000,701227,
3788,6472,14784,-714,274,-566,17000,-12000,57000,701239,
3812,6416,14756,-579,380,-527,17000,-12000,57000,701242,
3836,6464,14608,-629,366,-588,17000,-12000,57000,701244,
3588,6504,14652,-440,636,-602,17000,-12000,57000,701256,
3484,6520,14596,-575,558,-625,17000,-12000,57000,701259,
3644,6592,14436,-465,671,-587,17000,-12000,57000,701261,
3368,6576,14484,-617,622,-581,17000,-12000,57000,701274,
3508,6668,14536,-485,711,-557,17000,-12000,57000,701276,
3352,6696,14416,-659,614,-557,17000,-12000,57000,701278,
3084,6676,14452,-545,560,-500,17000,-12000,57000,701291,
3108,6660,14560,-687,473,-518,17000,-12000,56000,701293,
3124,6712,14408,-574,519,-471,17000,-12000,56000,701295,
3272,6912,14408,-698,426,-501,17000,-12000,56000,701308,
3240,6780,14500,-573,491,-494,17000,-12000,56000,701310,
3260,6760,14520,-691,482,-479,17000,-12000,56000,701313,
3068,6800,14480,-473,806,-436,17000,-12000,56000,701325,
3024,6772,14524,-557,839,-411,17000,-12000,56000,701327,
2916,6864,14536,-390,956,-402,17000,-12000,56000,701330,
3060,7288,14732,-385,1277,-337,17000,-11000,56000,701342,
2916,7420,14716,-265,1395,-375,17000,-11000,56000,701345,
2724,7436,14776,-358,1428,-373,17000,-11000,56000,701347,
1728,7732,15256,-258,1678,-315,17000,-11000,56000,701360,
1604,7716,15372,-299,1636,-318,17000,-11000,56000,701362,
1296,7840,15692,-179,1571,-301,17000,-11000,56000,701364,
480,8000,15928,-202,895,-16,17000,-11000,56000,701377,
316,8064,16132,-154,692,-28,17000,-11000,56000,701379,
364,8204,16072,-239,521,12,17000,-11000,56000,701381,
284,8236,16192,-163,367,79,17000,-11000,56000,701384,
-292,8680,16736,-191,-452,329,17000,-11000,56000,701396,
-324,8712,16740,-112,-570,337,17000,-11000,56000,701398,
-272,8824,16840,-187,-710,351,17000,-11000,56000,701401,
-404,8804,17488,-3,-1041,534,17000,-11000,56000,701413,
-352,8732,17780,13,-967,594,17000,-11000,56000,701416,
-536,8844,17500,105,-1043,618,17000,-11000,56000,701418,
-964,8364,17840,544,-1004,926,17000,-11000,56000,701430,
-420,8520,17768,706,-1033,974,17000,-11000,56000,701433,
-1032,8524,17820,842,-958,1103,18000,-11000,57000,701435,
-1216,8408,17376,1483,-264,1626,18000,-11000,57000,701447,
-1352,8476,17276,1583,-120,1798,18000,-11000,57000,701450,
-1464,8420,17248,1737,-38,1851,18000,-11000,57000,701452,
-2032,8300,16860,2379,526,2585,18000,-11000,57000,701465,
-2092,8328,16868,2356,533,2726,18000,-11000,57000,701467,
-2372,8084,16628,2526,666,2892,18000,-11000,57000,701469,
-3144,7992,15988,2918,913,3748,18000,-11000,57000,701482,
-3044,7924,16020,3150,1029,3979,18000,-11000,57000,701484,
-3240,7844,15800,3099,1022,4133,18000,-11000,58000,701486,
-3656,7724,15232,3646,1397,5360,19000,-11000,58000,701499,
-3604,7688,15164,3567,1409,5543,19000,-11000,58000,701501,
-3692,7648,15076,3741,1579,5793,19000,-11000,58000,701504,
-3892,7460,14868,3910,2053,7039,19000,-10000,59000,701516,
-3968,7332,14884,4066,2215,7281,19000,-10000,59000,701518,
-4072,7364,14848,4041,2305,7487,19000,-10000,59000,701521,
-3960,7208,14556,4484,2842,8762,20000,-10000,60000,701533,
-3832,7296,14296,4450,2889,8979,20000,-10000,60000,701536,
-3932,7152,14228,4579,2985,9214,20000,-10000,61000,701538,
-4320,6872,13988,4678,3230,10463,20000,-10000,62000,701550,
-4280,6872,13848,4772,3254,10741,20000,-10000,62000,701553,
-4248,6740,13856,4727,3264,10972,20000,-10000,62000,701555,
-4100,6484,13764,4829,3296,12222,20000,-10000,63000,701568,
-4048,6428,13704,4917,3383,12503,20000,-10000,63000,701570,
-4020,6480,13648,4946,3325,12758,20000,-10000,64000,701572,
-3764,6316,13568,5066,3270,13907,21000,-10000,65000,701585,
-3652,6248,13584,5024,3225,14126,21000,-10000,65000,701587,
-3572,6140,13612,5080,3269,14369,21000,-10000,66000,701589,
-3196,5916,13288,5090,3228,15634,21000,-10000,67000,701602,
-3084,5800,13296,5133,3186,15879,21000,-10000,67000,701604,
-3108,5676,13016,5121,3109,16126,21000,-10000,68000,701607,
-2972,4968,12636,5169,2279,17419,21000,-11000,69000,701619,
-2844,4892,12620,5094,1988,17639,21000,-11000,70000,701622,
-2764,4752,12496,5138,1832,17848,21000,-11000,70000,701624,
-1628,4452,12564,4963,752,18876,21000,-11000,72000,701637,
-1544,4268,12824,5123,680,19068,21000,-11000,72000,701639,
-1292,4264,12876,5020,514,19203,21000,-11000,72000,701641,
-92,3884,12840,5214,153,20092,21000,-12000,74000,701654,
208,3860,13004,5134,81,20188,22000,-12000,75000,701656,
404,3692,12772,5279,156,20352,22000,-12000,75000,701658,
1932,3784,12612,5283,440,20729,22000,-13000,77000,701671,
2280,3676,12424,5331,571,20797,22000,-13000,77000,701673,
2464,3600,12408,5235,642,20826,22000,-13000,78000,701675,
3476,3192,11848,5234,1256,21205,22000,-14000,80000,701688,
3704,2968,11812,5163,1393,21211,22000,-14000,80000,701690,
3932,2952,11688,5272,1533,21322,22000,-14000,80000,701693,
5340,2516,11400,5170,2558,21653,21000,-15000,82000,701705,
5524,2324,11120,5253,2803,21738,21000,-15000,83000,701708,
5688,2332,11328,5152,2972,21699,21000,-15000,83000,701710,
6552,2208,11280,5247,4210,21692,21000,-15000,85000,701722,
6564,2252,11196,5185,4382,21623,21000,-16000,86000,701725,
6500,2108,11136,5228,4530,21670,21000,-16000,86000,701727,
6740,2160,10572,4729,4860,21561,21000,-16000,88000,701739,
6760,2080,10440,4640,4827,21587,21000,-16000,89000,701742,
7016,2068,10552,4460,4809,21501,21000,-16000,89000,701744,
7760,1932,10064,3924,4438,21231,21000,-17000,91000,701756,
7832,1776,10012,3756,4334,21097,21000,-17000,92000,701759,
7912,1752,10124,3650,4249,21008,20000,-17000,92000,701761,
8584,1296,9808,2944,3840,20325,20000,-17000,94000,701774,
9020,1164,9892,2880,3780,20248,20000,-17000,95000,701776,
9092,1032,9804,2721,3699,20062,20000,-17000,95000,701778,
9868,744,9836,2168,3549,19382,19000,-18000,97000,701791,
10276,572,9780,2105,3621,19216,19000,-18000,97000,701793,
10440,500,9884,2017,3695,19117,19000,-18000,98000,701795,
10660,-72,9848,1561,4340,18462,19000,-19000,100000,701808,
10680,-64,9908,1588,4473,18372,19000,-19000,100000,701810,
10740,-120,9824,1461,4563,18145,18000,-19000,100000,701812,
11500,-104,9524,1037,4755,16935,18000,-19000,102000,701825,
11652,-192,9400,876,4892,16783,18000,-19000,102000,701827,
11664,-144,9464,687,5016,16606,18000,-19000,103000,701830,
11996,172,9328,132,5777,15863,17000,-19000,104000,701842,
12008,248,9396,-106,5808,15662,17000,-19000,105000,701844,
12148,324,9516,-203,5901,15420,17000,-19000,105000,701847,
12176,20,8888,-1150,6538,14428,16000,-19000,107000,701859,
12228,548,9760,-1186,6195,14212,16000,-19000,107000,701862,
12460,240,9540,-1398,6233,13976,16000,-19000,107000,701864,
12168,264,9632,-2241,6273,13157,15000,-19000,109000,701876,
12400,256,9736,-2470,6172,12946,15000,-19000,109000,701879,
12268,148,9828,-2580,6133,12742,15000,-19000,109000,701881,
12532,-92,9900,-3628,5778,11496,14000,-19000,111000,701894,
12768,-136,10024,-3668,5814,11282,14000,-19000,111000,701896,
12688,-80,10000,-3911,5719,11041,14000,-19000,111000,701898,
13124,-128,10600,-4624,5525,9942,13000,-19000,112000,701911,
13332,92,10660,-4937,5471,9735,13000,-19000,112000,701913,
13516,-40,10616,-4991,5565,9592,12000,-19000,113000,701916,
14116,120,11064,-6066,5724,8429,11000,-19000,114000,701928,
14028,44,11236,-6120,5787,8217,11000,-19000,114000,701931,
14156,-108,11420,-6427,5705,7997,11000,-19000,114000,701933,
14084,-592,11704,-7222,5453,6717,10000,-18000,115000,701945,
14096,-560,11928,-7470,5299,6456,10000,-18000,115000,701948,
14112,-640,11932,-7566,5303,6183,10000,-18000,115000,701950,
14504,-772,12284,-8562,4935,4919,9000,-18000,116000,701963,
14740,-824,12268,-8654,4973,4662,8000,-18000,116000,701965,
14628,-836,12056,-8953,4837,4435,8000,-18000,116000,701967,
14592,-1232,12548,-9730,4635,3196,7000,-18000,116000,701980,
14564,-1296,12648,-9932,4507,2999,7000,-18000,116000,701982,
14812,-1316,12720,-10011,4459,2724,7000,-18000,116000,701985,
15096,-1508,13356,-11025,3637,1367,6000,-18000,117000,701997,
15048,-1424,13352,-11106,3521,1078,5000,-18000,117000,701999,
15192,-1604,13508,-11329,3385,814,5000,-18000,117000,702002,
15224,-1920,14144,-12123,2722,-452,4000,-18000,117000,702014,
15228,-1936,14356,-12285,2601,-656,4000,-18000,117000,702016,
15352,-1992,14356,-12407,2493,-924,3000,-18000,117000,702019,
15256,-2692,15020,-13105,1744,-2092,2000,-17000,116000,702031,
15248,-2680,15116,-13140,1603,-2370,2000,-17000,116000,702034,
15488,-3284,15944,-13602,774,-3580,1000,-18000,116000,702046,
15624,-3304,16020,-13669,657,-3906,0,-18000,116000,702048,
15764,-3376,16344,-13752,529,-4113,0,-18000,116000,702051,
15944,-3992,17120,-13944,-44,-5764,0,-18000,115000,702063,
15932,-4084,17216,-13853,-12,-5971,0,-18000,115000,702066,
16160,-4188,17476,-13904,-112,-6351,0,-18000,115000,702068,
16536,-4620,18320,-13414,-430,-7928,-2000,-18000,114000,702081,
17048,-4840,17984,-13519,-359,-8423,-2000,-18000,114000,702083,
15908,-4840,18872,-13244,-166,-8506,-2000,-18000,114000,702085,
16788,-4520,18596,-12815,-22,-10453,-3000,-18000,113000,702098,
16776,-4460,18552,-12578,160,-10733,-3000,-18000,113000,702100,
16500,-4588,18456,-12624,144,-11132,-3000,-18000,113000,702103,
16340,-4412,18272,-11931,774,-12911,-4000,-19000,111000,702115,
16244,-4328,18172,-11989,804,-13309,-4000,-19000,111000,702117,
15420,-4732,17960,-11347,1346,-15063,-5000,-19000,110000,702130,
15232,-4740,17824,-11352,1357,-15379,-5000,-19000,109000,702132,
15032,-4748,18016,-11132,1474,-15682,-5000,-19000,109000,702134,
13980,-5164,17820,-10701,1830,-17231,-6000,-19000,107000,702147,
13892,-5208,17688,-10472,1933,-17446,-6000,-19000,107000,702149,
12344,-5208,17676,-10003,1998,-18613,-6000,-19000,105000,702162,
11924,-5208,17740,-9764,2061,-18846,-6000,-19000,105000,702164,
11744,-5188,17540,-9782,1994,-19044,-6000,-19000,104000,702166,
10700,-5160,17172,-9249,2089,-20219,-6000,-19000,102000,702179,
10516,-4980,17120,-9272,2146,-20316,-6000,-19000,102000,702181,
10368,-5088,17012,-9082,2266,-20527,-6000,-19000,102000,702184,
9352,-5092,16336,-8856,2866,-21354,-7000,-19000,99000,702196,
9296,-5120,16256,-8738,3056,-21637,-7000,-19000,99000,702198,
8104,-5028,15684,-8316,3831,-22367,-7000,-19000,97000,702211,
7896,-5088,15528,-8289,4013,-22581,-7000,-19000,96000,702213,
7636,-5064,15536,-8195,4199,-22595,-7000,-19000,96000,702216,
5764,-4620,15548,-7878,4890,-23144,-7000,-19000,93000,702228,
5556,-4652,15636,-7731,4982,-23086,-7000,-19000,93000,702231,
4876,-4728,15600,-7700,5050,-23263,-7000,-19000,93000,702233,
2712,-4808,15636,-7364,5188,-23047,-7000,-19000,90000,702245,
2224,-4888,15696,-7351,5133,-23114,-7000,-18000,90000,702248,
1716,-5084,15504,-7125,4891,-22906,-7000,-18000,89000,702250,
376,-4676,15412,-7291,4442,-22707,-7000,-18000,87000,702263,
-36,-4680,15568,-7123,4460,-22464,-7000,-18000,87000,702265,
-228,-4680,15576,-7125,4372,-22552,-7000,-18000,86000,702267,
-1108,-4244,15216,-6930,4454,-21735,-7000,-18000,84000,702280,
-1156,-4204,14892,-7057,4448,-21600,-7000,-18000,84000,702282,
-1404,-3288,14776,-6845,4738,-20757,-7000,-17000,81000,702295,
-1872,-3276,14548,-7041,4759,-20606,-7000,-17000,81000,702297,
-2028,-3060,14732,-6874,4815,-20430,-7000,-17000,81000,702299,
-3440,-2664,14732,-7217,5040,-19557,-7000,-17000,79000,702312,
-3600,-2536,14692,-7125,5193,-19353,-7000,-17000,78000,702314,
-3972,-2616,14592,-7323,5260,-19077,-7000,-17000,78000,702317,
-5348,-2644,15072,-7216,5653,-17508,-7000,-16000,76000,702329,
-5256,-2556,15104,-7310,5644,-17164,-7000,-16000,76000,702332,
-5816,-2580,15108,-7183,5703,-16913,-7000,-16000,75000,702334,
-6180,-2264,15328,-7070,6084,-15441,-7000,-15000,74000,702346,
-6460,-2240,15500,-6896,6215,-15197,-8000,-15000,73000,702349,
-7088,-1556,15712,-6629,6620,-13496,-8000,-15000,72000,702361,
-7136,-1204,15708,-6577,6694,-13257,-8000,-14000,72000,702364,
-7472,-1004,15672,-6553,6756,-12817,-8000,-14000,72000,702366,
-7880,-216,15516,-6579,7207,-11178,-8000,-14000,70000,702379,
-7720,24,15668,-6574,7298,-10807,-8000,-13000,70000,702381,
-7896,-28,15684,-6557,7409,-10548,-8000,-13000,70000,702383,
-8160,208,15780,-6578,7707,-8808,-9000,-12000,69000,702396,
-8076,220,15872,-6591,7751,-8576,-9000,-12000,69000,702398,
-8112,288,15744,-6628,7793,-8198,-9000,-12000,69000,702400,
-7744,744,16232,-6288,8167,-6469,-9000,-11000,68000,702413,
-7776,704,16192,-6260,8222,-6101,-9000,-11000,68000,702415,
-7860,848,16368,-6142,8321,-5875,-9000,-11000,68000,702417,
-7764,1444,16524,-5925,8744,-4241,-10000,-10000,67000,702430,
-7616,1556,16568,-5831,8810,-4046,-10000,-10000,67000,702432,
-7688,1384,16512,-5824,8829,-3671,-10000,-10000,67000,702434,
-7632,1740,16608,-5596,9198,-2233,-10000,-9000,66000,702447,
-7696,1808,16536,-5482,9324,-1906,-10000,-8000,66000,702450,
-7480,1956,16620,-5470,9348,-1733,-10000,-8000,66000,702452,
-7744,2084,16240,-5155,9462,-405,-11000,-7000,66000,702464,
-7220,1860,17324,-5190,9946,-180,-11000,-7000,66000,702467,
-7340,1916,16292,-5060,9779,72,-11000,-7000,66000,702469,
-7404,1952,16972,-5033,9339,1221,-11000,-6000,66000,702482,
-7324,1900,16980,-4865,9326,1432,-11000,-5000,66000,702484,
-7236,2048,17208,-4974,9187,1651,-11000,-5000,66000,702486,
-7208,2196,17100,-4751,8616,2718,-12000,-4000,66000,702499,
-6232,2108,16956,-4957,8963,2867,-12000,-4000,66000,702501,
-7280,2136,17596,-4718,9059,3128,-12000,-4000,66000,702503,
-6628,1884,17020,-4931,8608,4123,-12000,-3000,66000,702516,
-6780,1824,17052,-4901,8624,4374,-12000,-2000,66000,702518,
-6684,1788,17196,-5025,8483,4542,-12000,-2000,66000,702521,
-6240,1308,17184,-4970,8111,5607,-13000,-1000,67000,702533,
-6420,1204,17032,-5099,7959,5784,-13000,-1000,67000,702536,
-6356,1008,17180,-4958,7938,5979,-13000,-1000,67000,702538,
-6316,668,17748,-5039,7403,7043,-13000,0,67000,702551,
-6036,808,17772,-4940,7376,7227,-13000,0,67000,702553,
-6000,772,17800,-5062,7275,7419,-13000,0,67000,702555,
-5556,508,18092,-5102,7320,8188,-14000,0,68000,702568,
-5588,400,18048,-5114,7287,8329,-14000,1000,68000,702570,
-5472,388,18332,-5070,7272,8472,-14000,1000,68000,702572,
-6076,-432,18536,-5046,6619,9463,-14000,2000,69000,702585,
-6100,-380,18524,-5042,6479,9659,-14000,2000,69000,702587,
-5976,-424,18632,-5084,6290,9802,-14000,2000,69000,702590,
-4896,-496,19236,-5124,5468,10624,-15000,3000,70000,702602,
-4780,-476,19060,-5092,5364,10745,-15000,3000,70000,702604,
-4600,-644,19092,-5142,5237,10904,-15000,3000,70000,702607,
-4104,-1392,19444,-4842,5262,11443,-15000,4000,71000,702619,
-3920,-1564,19404,-4917,5269,11515,-15000,4000,71000,702622,
-4000,-1672,19440,-4743,5430,11679,-15000,4000,72000,702624,
-3856,-2372,19508,-4479,5536,12075,-16000,5000,73000,702637,
-3956,-2320,19360,-4290,5577,12258,-16000,5000,73000,702639,
-3896,-2488,19304,-4392,5450,12360,-16000,6000,73000,702641,
-3712,-2460,19396,-4095,5188,12897,-16000,6000,74000,702654,
-3788,-2612,19236,-4188,5025,13024,-16000,7000,74000,702656,
-3624,-2736,19420,-4098,5073,13196,-16000,7000,74000,702659,
-3132,-3200,19552,-4167,4913,13778,-16000,8000,76000,702671,
-3076,-3288,19580,-4037,4927,13900,-16000,8000,76000,702674,
-3200,-3424,19656,-4134,4832,13906,-16000,8000,76000,702676,
-3380,-3904,19600,-3975,4381,14268,-17000,9000,77000,702688,
-3288,-3956,19652,-4042,4235,14312,-17000,9000,77000,702691,
-3352,-4244,19924,-3909,4146,14434,-17000,9000,78000,702693,
-2116,-4920,20356,-3819,3331,14826,-17000,10000,79000,702705,
-1692,-5076,20412,-3581,3383,14889,-17000,10000,79000,702708,
-1416,-5184,20352,-3557,3294,14807,-17000,10000,79000,702710,
-456,-5352,19916,-3052,3603,14649,-17000,11000,81000,702723,
-320,-5472,20268,-2973,3778,14613,-17000,11000,81000,702725,
0,-5528,19884,-2841,3897,14615,-17000,11000,81000,702727,
596,-5576,19368,-2437,4318,14302,-17000,12000,82000,702740,
568,-5620,19332,-2337,4306,14241,-17000,12000,83000,702742,
680,-5748,19256,-2295,4265,14163,-17000,12000,83000,702745,
820,-5744,18728,-2121,3974,13783,-17000,13000,84000,702757,
824,-5612,18736,-2025,3946,13710,-17000,13000,84000,702760,
1052,-5692,18688,-2038,3866,13627,-17000,13000,84000,702762,
1708,-5704,18444,-1784,3544,12720,-17000,13000,86000,702774,
1472,-5796,18776,-1799,3408,12605,-17000,13000,86000,702777,
1712,-5896,18804,-1730,3356,12472,-17000,14000,86000,702779,
1512,-6136,18796,-1455,3006,12002,-16000,14000,87000,702791,
1572,-6096,18732,-1351,2975,11961,-16000,14000,87000,702794,
1996,-5892,18184,-1182,2576,11201,-16000,15000,88000,702806,
2148,-5840,18156,-1047,2611,10983,-16000,15000,88000,702809,
2344,-5724,17832,-1135,2496,10720,-16000,15000,89000,702811,
2448,-5476,17500,-913,2260,9778,-16000,15000,89000,702824,
2312,-5560,17184,-1047,2147,9643,-16000,15000,90000,702826,
2272,-5516,17276,-908,2198,9566,-16000,15000,90000,702828,
2460,-5232,16684,-989,2274,8932,-16000,16000,91000,702841,
2340,-5268,16628,-866,2336,8741,-16000,16000,91000,702843,
2308,-5240,16524,-1011,2322,8531,-16000,16000,91000,702845,
1288,-4776,16160,-979,2106,7293,-16000,16000,91000,702858,
1004,-4760,16284,-1009,1972,7163,-16000,16000,92000,702860,
784,-4888,16220,-937,1816,6999,-16000,16000,92000,702863,
-908,-5032,16184,-1197,-429,6367,-16000,16000,92000,702875,
-1084,-4900,16132,-1165,-1051,6219,-16000,16000,92000,702877,
-1104,-4952,16248,-1345,-1730,6068,-16000,16000,93000,702880,
-1404,-5192,17032,-1405,-6410,5030,-16000,15000,93000,702892,
-1416,-5268,17160,-1523,-7267,4794,-16000,15000,93000,702895,
-992,-5288,17212,-1462,-8197,4500,-16000,15000,93000,702897,
1548,-5508,17056,-1624,-12301,2969,-16000,14000,94000,702910,
2764,-5448,16988,-1721,-12776,2581,-16000,14000,94000,702912,
3432,-5396,17148,-1778,-12984,2295,-16000,14000,94000,702914,
7036,-5768,17968,-1326,-10790,1298,-16000,12000,95000,702927,
7132,-5412,17620,-1195,-9639,1130,-16000,12000,95000,702929,
7880,-5576,18364,-1087,-8529,943,-16000,12000,95000,702931,
7692,-5812,18316,-23,-2000,228,-16000,12000,95000,702944,
7484,-5996,18160,55,-814,88,-16000,12000,95000,702946,
7044,-5936,18240,332,371,11,-16000,12000,95000,702949,
5032,-5372,17928,1079,4883,-834,-16000,12000,95000,702961,
4724,-5324,17900,1303,5509,-960,-16000,12000,95000,702964,
3996,-5152,17880,1249,5886,-1115,-16000,12000,95000,702966,
1700,-4256,17396,1551,6834,-1677,-16000,12000,94000,702978,
1460,-4136,17328,1372,6729,-1752,-16000,13000,94000,702981,
1064,-3976,17140,1447,6697,-1781,-15000,13000,94000,702983,
-264,-3704,16836,1046,5562,-2052,-15000,13000,94000,702995,
-604,-3696,16756,1099,5416,-2026,-15000,13000,94000,702998,
-668,-3596,16692,898,5117,-2077,-15000,13000,94000,703000,
-1136,-3308,16340,863,4438,-2006,-15000,13000,93000,703012,
-1188,-3324,16388,724,4330,-2023,-15000,13000,93000,703015,
-1284,-3196,16216,839,4393,-1935,-15000,14000,93000,703017,
-1544,-2628,15720,637,4593,-1903,-15000,14000,93000,703030,
-1508,-2580,15736,773,4817,-1874,-15000,14000,93000,703032,
-1760,-2540,15676,640,4870,-1874,-15000,14000,93000,703034,
-2900,-2404,15420,748,5423,-1936,-15000,14000,93000,703047,
-3092,-2284,15144,581,5373,-1941,-15000,14000,92000,703049,
-3192,-2304,15260,723,5452,-1884,-15000,15000,92000,703052,
-4256,-2000,15100,423,4908,-1665,-15000,15000,92000,703064,
-4540,-1992,15236,494,4802,-1644,-15000,15000,92000,703067,
-4776,-1896,15044,366,4608,-1541,-15000,15000,92000,703069,
-5428,-1832,15204,232,3557,-1321,-15000,15000,92000,703082,
-5672,-1916,15124,248,3388,-1212,-15000,16000,92000,703084,
-5616,-1888,15192,150,3184,-1230,-15000,16000,92000,703086,
-5492,-1716,15196,188,2396,-922,-15000,16000,92000,703099,
-5396,-1852,15056,88,2235,-939,-15000,16000,92000,703101,
-5360,-1888,15140,119,2139,-868,-15000,16000,92000,703103,
-5440,-1824,15300,63,1577,-789,-15000,16000,91000,703116,
