Ax,Ay,Az,Gx,Gy,Gz,Roll,Pitch,Yaw,Timestamp,Target
440,2608,16176,-497,-260,-56,1000,-1000,24000,212407,
760,2664,16036,-407,-456,-35,1000,-1000,24000,212420,
708,2632,16108,-528,-539,-46,1000,-1000,24000,212422,
844,2616,16112,-409,-442,-41,1000,-1000,24000,212424,
1020,2540,16080,-513,-406,-65,1000,-1000,24000,212437,
1040,2564,16052,-390,-308,-83,1000,-1000,24000,212439,
1068,2632,16064,-496,-271,-73,1000,-1000,24000,212441,
1088,2572,16184,-365,-169,-71,1000,-1000,24000,212444,
1224,2656,16000,-413,78,-72,1000,-1000,24000,212456,
1096,2748,16044,-439,102,-87,1000,-1000,24000,212458,
1192,2836,16128,-439,147,-29,1000,-1000,24000,212461,
952,2752,16136,-525,159,-66,1000,-1000,24000,212473,
852,2820,16160,-497,191,10,1000,-1000,24000,212476,
884,2680,16028,-528,161,-27,1000,-1000,24000,212478,
732,2652,16200,-558,159,18,1000,-1000,24000,212480,
812,2584,16228,-587,-61,-7,1000,-1000,24000,212492,
776,2608,16296,-460,-18,30,1000,-1000,24000,212495,
920,2652,16376,-583,-113,-3,1000,-1000,24000,212497,
964,2604,16240,-420,-269,-75,1000,-1000,24000,212509,
976,2604,16144,-560,-367,-87,1000,-1000,24000,212512,
896,2596,16200,-427,-335,-72,1000,-1000,24000,212514,
1060,2676,16268,-559,-379,-99,1000,-1000,24000,212516,
1100,2648,16208,-349,-245,-114,1000,-1000,24000,212529,
1356,2696,16100,-478,-254,-147,1000,-1000,24000,212531,
1220,2588,16104,-351,-171,-137,1000,-1000,24000,212533,
1364,2664,16168,-405,96,-231,1000,-1000,24000,212545,
1216,2676,16040,-234,182,-193,1000,-1000,24000,212548,
1296,2628,16184,-350,205,-207,1000,-1000,24000,212550,
932,2716,16128,-263,356,-251,1000,-1000,24000,212563,
1072,2528,16096,-314,344,-221,1000,-1000,24000,212565,
912,2472,16160,-240,401,-235,1000,-1000,24000,212567,
832,2692,16056,-256,407,-186,1000,-1000,24000,212579,
916,2732,16180,-297,323,-217,1000,-1000,24000,212582,
844,2664,16252,-276,350,-162,1000,-1000,24000,212584,
844,2772,16152,-286,250,-205,1000,-1000,24000,212586,
644,2744,15928,-301,38,-140,1000,-1000,24000,212599,
500,2628,15940,-375,-127,-187,1000,-1000,24000,212601,
620,2692,15936,-344,-111,-120,1000,-1000,24000,212603,
832,2628,15996,-410,-296,-112,1000,-1000,24000,212615,
1040,2712,15924,-306,-276,-50,1000,-1000,24000,212618,
880,2672,16016,-414,-326,-101,1000,-1000,24000,212620,
1220,2840,15968,-345,-219,-57,1000,-1000,24000,212632,
880,2824,16084,-487,-298,-74,1000,-1000,24000,212635,
1116,2872,16108,-390,-238,-15,1000,-1000,24000,212637,
1012,2768,16196,-548,-240,-15,1000,-1000,24000,212649,
1144,2752,16136,-396,-160,-8,1000,-1000,24000,212652,
1164,2780,15988,-536,-196,-23,1000,-1000,24000,212654,
1056,2748,16060,-412,-104,-9,1000,-1000,24000,212656,
1140,2884,16144,-483,-83,-25,1000,-1000,24000,212669,
1380,2788,16036,-376,-71,-4,1000,-1000,24000,212671,
1228,2724,15988,-489,-102,-12,1000,-1000,24000,212673,
1156,2656,16056,-368,-54,-68,1000,-2000,24000,212686,
1028,2636,15984,-464,-71,-62,1000,-2000,24000,212688,
1120,2692,16008,-341,-34,-90,1000,-2000,24000,212690,
1268,2728,16120,-447,-69,-126,1000,-2000,24000,212703,
1204,2780,16092,-348,-25,-153,1000,-2000,24000,212705,
1208,2632,16032,-441,-45,-172,1000,-2000,24000,212707,
1320,2808,15860,-383,56,-178,1000,-2000,24000,212719,
1040,2720,15916,-496,48,-145,1000,-2000,24000,212722,
1132,2800,16088,-398,76,-166,1000,-2000,24000,212724,
1120,2740,16060,-497,17,-191,1000,-2000,24000,212726,
1012,2736,16028,-483,-40,-223,1000,-2000,24000,212739,
1016,2780,16148,-541,-80,-189,1000,-2000,24000,212741,
944,2812,16172,-473,-77,-187,1000,-2000,24000,212743,
1084,2764,15928,-460,-179,-201,1000,-2000,24000,212756,
1096,2632,16080,-582,-237,-201,1000,-2000,24000,212758,
1168,2572,15836,-457,-168,-207,1000,-2000,24000,212760,
1112,2468,15900,-478,-164,-232,1000,-2000,24000,212773,
1056,2476,16020,-460,-148,-239,1000,-2000,24000,212775,
1052,2608,15932,-469,-127,-219,1000,-2000,24000,212777,
1012,2540,15972,-466,-61,-272,1000,-2000,24000,212790,
1152,2740,15940,-398,37,-197,1000,-2000,24000,212792,
1152,2748,16104,-457,29,-252,1000,-2000,24000,212794,
1024,2656,15892,-435,63,-204,1000,-2000,24000,212796,
1096,2728,15804,-541,192,-236,1000,-2000,24000,212809,
1024,2764,15880,-422,263,-172,1000,-2000,24000,212811,
1064,2776,15972,-516,259,-242,1000,-2000,24000,212814,
864,2816,15872,-466,254,-155,1000,-2000,24000,212826,
748,2756,15932,-616,121,-140,1000,-2000,24000,212828,
672,2704,15988,-513,162,-82,1000,-2000,24000,212830,
748,2880,16072,-746,-136,-37,1000,-2000,24000,212843,
876,2932,16036,-590,-115,-40,1000,-2000,24000,212845,
872,2964,16068,-746,-214,-56,1000,-2000,24000,212847,
916,2756,16068,-639,-193,-21,1000,-2000,24000,212850,
1032,2780,16176,-813,-471,15,1000,-2000,24000,212862,
968,2816,16100,-683,-440,-13,1000,-2000,24000,212864,
1108,2852,16080,-810,-530,-45,1000,-2000,24000,212867,
1276,2788,16176,-685,-476,19,1000,-2000,24000,212879,
1364,2856,16176,-784,-485,10,1000,-2000,24000,212881,
1476,2800,16164,-664,-455,-12,1000,-2000,24000,212883,
1232,2720,16216,-663,-267,-53,1000,-2000,24000,212896,
1396,2784,16180,-613,-259,-51,1000,-2000,24000,212898,
1512,2812,16232,-642,-190,-14,1000,-2000,24000,212900,
1520,2812,16120,-591,34,-88,1000,-2000,24000,212913,
1492,2816,16132,-521,152,-69,1000,-2000,24000,212915,
1288,2760,16120,-544,129,-97,1000,-2000,24000,212917,
1496,2824,16072,-497,217,-48,1000,-2000,24000,212920,
1320,2644,16160,-511,318,-117,1000,-2000,24000,212932,
1332,2776,16124,-385,412,-98,1000,-2000,24000,212934,
1048,2740,16216,-504,350,-146,1000,-2000,24000,212937,
1076,2744,16216,-372,355,-133,1000,-2000,24000,212949,
952,2652,16020,-529,298,-163,1000,-2000,24000,212951,
884,2700,16044,-367,325,-152,1000,-2000,24000,212954,
984,2840,16028,-534,174,-137,1000,-2000,24000,212966,
1072,2812,16100,-410,213,-145,1000,-2000,24000,212968,
920,2728,16072,-553,167,-150,1000,-2000,24000,212970,
952,2800,16068,-425,207,-115,1000,-2000,24000,212973,
852,2780,15980,-615,15,-159,1000,-2000,24000,212985,
796,2828,16060,-515,69,-176,1000,-2000,24000,212987,
920,2824,15956,-654,19,-186,1000,-2000,24000,212990,
888,2600,15868,-692,-49,-211,1000,-2000,24000,213002,
824,2672,15968,-682,-92,-175,1000,-2000,24000,213004,
980,2760,16072,-642,-80,-210,1000,-2000,24000,213007,
956,2720,16088,-726,-61,-156,1000,-2000,24000,213009,
952,2704,16220,-766,-87,-181,1000,-2000,24000,213021,
788,2536,16104,-714,-24,-136,1000,-2000,24000,213024,
892,2540,16036,-725,-79,-158,1000,-2000,24000,213026,
788,2492,16272,-649,22,-62,1000,-2000,24000,213038,
952,2516,16248,-703,-6,-73,1000,-2000,24000,213041,
896,2440,16212,-645,11,-58,1000,-2000,24000,213043,
780,2472,16260,-663,18,-80,1000,-2000,24000,213045,
804,2504,16272,-532,50,53,1000,-2000,24000,213058,
952,2500,16088,-648,-3,20,1000,-2000,24000,213060,
952,2476,16132,-556,75,72,1000,-2000,24000,213062,
1180,2668,16128,-609,39,46,1000,-2000,24000,213075,
1008,2516,16164,-467,81,77,1000,-2000,24000,213077,
996,2572,16024,-612,20,78,1000,-2000,24000,213079,
968,2564,16004,-485,103,105,1000,-2000,24000,213081,
1228,2476,16188,-594,87,51,1000,-2000,24000,213094,
1324,2420,16248,-443,169,66,1000,-2000,24000,213096,
1248,2516,16148,-579,82,75,1000,-2000,24000,213098,
1144,2440,16344,-461,193,77,1000,-2000,24000,213111,
1128,2568,16348,-519,142,101,1000,-2000,24000,213113,
1252,2508,16244,-456,168,50,1000,-2000,24000,213115,
1156,2500,16232,-535,135,66,1000,-2000,24000,213118,
1216,2660,16132,-457,131,54,1000,-2000,24000,213130,
1272,2500,16044,-519,126,89,1000,-2000,24000,213132,
948,2508,16156,-435,110,53,1000,-2000,24000,213134,
1288,2536,16048,-393,117,53,1000,-2000,24000,213147,
1376,2592,15984,-473,126,-21,1000,-2000,24000,213149,
1512,2664,16056,-451,188,24,1000,-2000,24000,213151,
1440,2504,15984,-423,173,-33,1000,-2000,24000,213154,
1416,2560,16068,-347,311,-96,1000,-2000,24000,213166,
1456,2712,16152,-470,275,-124,1000,-2000,24000,213169,
1492,2600,15996,-391,337,-100,1000,-2000,24000,213171,
1396,2728,16112,-484,244,-120,1000,-2000,24000,213183,
1140,2648,16020,-365,372,-111,1000,-2000,24000,213186,
1248,2620,16152,-517,285,-128,1000,-2000,24000,213188,
1064,2660,16172,-438,291,-92,1000,-2000,24000,213200,
1312,2692,16052,-557,229,-102,1000,-2000,24000,213203,
1212,2680,16096,-423,269,-97,1000,-2000,24000,213205,
1316,2800,16196,-589,113,-77,1000,-2000,24000,213217,
1220,2876,16128,-504,146,-80,1000,-2000,24000,213219,
1212,2848,16032,-602,102,-81,1000,-2000,24000,213222,
1400,2988,16172,-504,123,-98,1000,-2000,24000,213224,
1160,2764,15964,-653,41,-110,1000,-2000,24000,213236,
1052,2824,16052,-623,12,-141,1000,-2000,24000,213239,
1036,2792,16124,-652,-45,-114,1000,-2000,24000,213241,
964,2656,16000,-705,-183,-188,1000,-2000,24000,213253,
1256,2664,16064,-671,-138,-136,1000,-2000,24000,213256,
1168,2608,16120,-677,-200,-212,1000,-2000,24000,213258,
1340,2672,16124,-577,-88,-174,1000,-2000,24000,213270,
1216,2608,16108,-708,-176,-250,1000,-2000,24000,213273,
1172,2568,16208,-595,-84,-214,1000,-2000,24000,213275,
1080,2556,16064,-663,-19,-260,1000,-2000,24000,213287,
1200,2592,16052,-526,24,-214,1000,-2000,24000,213290,
1144,2604,16120,-685,9,-227,1000,-2000,24000,213292,
984,2624,16084,-540,114,-212,1000,-2000,24000,213294,
1080,2580,16224,-642,177,-210,1000,-2000,24000,213307,
1180,2548,16124,-504,284,-198,1000,-2000,24000,213309,
1064,2596,16148,-617,240,-239,1000,-2000,24000,213311,
936,2636,16024,-524,351,-195,1000,-2000,23000,213323,
872,2608,16084,-596,289,-187,1000,-2000,23000,213326,
896,2652,16088,-501,335,-214,1000,-2000,23000,213328,
872,2600,16156,-589,206,-119,1000,-2000,23000,213341,
960,2720,15948,-558,163,-161,1000,-2000,23000,213343,
908,2636,16168,-598,152,-78,1000,-2000,23000,213345,
864,2644,16092,-528,143,-151,1000,-2000,23000,213347,
812,2584,16188,-572,26,-53,1000,-2000,23000,213360,
696,2688,16148,-584,-15,-108,1000,-2000,23000,213362,
868,2712,16244,-597,-24,-66,1000,-2000,23000,213364,
1020,2700,16040,-637,-72,-53,1000,-2000,23000,213376,
1136,2724,16012,-571,-31,-21,1000,-2000,23000,213379,
980,2664,16108,-621,-49,-43,1000,-2000,23000,213381,
1028,2708,16000,-603,-14,-37,1000,-2000,23000,213383,
1116,2720,16092,-648,-19,-54,1000,-2000,23000,213396,
1232,2832,16188,-592,68,-14,1000,-2000,23000,213398,
1288,2736,16140,-664,23,-76,1000,-2000,23000,213400,
1036,2552,16032,-501,89,-43,1000,-2000,23000,213413,
1108,2612,15968,-654,43,-63,1000,-2000,23000,213415,
1136,2600,16172,-525,146,-16,1000,-2000,23000,213417,
1212,2732,16168,-625,88,-57,1000,-2000,23000,213419,
1316,2748,16032,-412,265,-118,1000,-2000,23000,213432,
1420,2644,15880,-551,213,-129,1000,-2000,23000,213434,
1172,2676,15956,-409,282,-126,1000,-2000,23000,213436,
1036,2748,15908,-542,236,-145,1000,-2000,23000,213449,
1164,2828,15948,-472,275,-144,1000,-2000,23000,213451,
1284,2920,15968,-538,251,-147,1000,-2000,23000,213453,
1076,2808,15996,-607,257,-168,1000,-2000,23000,213466,
1060,2748,15888,-590,312,-111,1000,-2000,23000,213468,
900,2836,15876,-582,288,-191,1000,-2000,23000,213470,
1228,2732,15944,-624,251,-146,1000,-2000,23000,213473,
972,2684,15844,-720,144,-166,1000,-2000,23000,213485,
1144,2732,15848,-665,160,-124,1000,-2000,23000,213487,
992,2660,15780,-730,122,-145,1000,-2000,23000,213489,
900,2536,15724,-619,169,-125,1000,-2000,23000,213502,
884,2656,15728,-739,89,-201,1000,-2000,23000,213504,
1000,2620,15668,-622,145,-182,1000,-2000,23000,213506,
1180,2656,15592,-706,138,-183,1000,-2000,23000,213519,
1188,2700,15552,-599,200,-180,1000,-2000,23000,213521,
1056,2668,15552,-720,181,-214,1000,-2000,23000,213523,
892,2580,15568,-631,365,-211,1000,-2000,23000,213536,
932,2540,15512,-732,389,-211,1000,-2000,23000,213538,
952,2528,15548,-592,491,-199,1000,-2000,23000,213540,
988,2500,15488,-718,458,-201,1000,-2000,23000,213543,
896,2548,15228,-652,628,-155,1000,-2000,23000,213555,
828,2616,15284,-731,642,-130,1000,-2000,23000,213557,
964,2692,15140,-674,653,-161,1000,-2000,23000,213560,
748,2660,15264,-813,612,-102,1000,-2000,23000,213572,
732,2740,15244,-871,526,-147,1000,-2000,23000,213574,
500,2688,15116,-849,520,-79,1000,-2000,23000,213577,
428,2772,15164,-1060,242,-113,1000,-2000,23000,213589,
400,2640,14964,-945,291,-47,1000,-2000,23000,213591,
696,2688,14996,-1105,170,-103,1000,-2000,23000,213593,
616,2700,15092,-1037,230,-26,1000,-2000,23000,213596,
956,2660,14984,-1250,149,-75,1000,-2000,23000,213608,
912,2704,14944,-1153,194,-71,1000,-2000,23000,213610,
884,2720,14876,-1290,131,-96,1000,-2000,23000,213613,
892,2636,14940,-1249,327,-88,1000,-2000,23000,213625,
916,2520,14940,-1397,290,-83,1000,-2000,23000,213627,
768,2556,14720,-1277,428,-41,1000,-1000,23000,213630,
972,2456,14788,-1440,503,-79,1000,-1000,23000,213642,
1004,2532,14664,-1309,580,-83,1000,-1000,23000,213644,
912,2388,14792,-1459,493,-66,1000,-1000,23000,213647,
988,2528,14632,-1334,582,-39,0,-1000,23000,213649,
932,2488,14616,-1568,648,-95,0,-1000,23000,213661,
796,2400,14400,-1463,724,-90,0,-1000,23000,213664,
828,2404,14568,-1563,694,-121,0,-1000,23000,213666,
196,2360,14120,-1543,436,-143,0,-1000,23000,213678,
364,2392,14176,-1689,360,-70,0,-1000,23000,213680,
372,2352,14180,-1607,410,-133,0,-1000,23000,213683,
392,2408,14228,-1751,400,-78,0,-1000,23000,213685,
716,2356,14432,-1728,369,-132,0,-1000,23000,213697,
664,2296,14172,-1822,323,-114,0,-1000,23000,213700,
772,2248,14204,-1723,365,-118,0,-1000,23000,213702,
680,2244,13800,-1979,657,-63,0,-1000,23000,213714,
616,2100,13852,-1938,733,-73,0,-1000,23000,213717,
676,2224,13624,-2041,780,-35,0,-1000,23000,213719,
644,2204,13708,-1953,894,-19,0,-1000,23000,213721,
840,2260,13712,-2209,1245,42,0,-1000,23000,213733,
784,2248,13648,-2147,1353,30,0,-1000,23000,213736,
700,2308,13480,-2296,1409,10,0,-1000,23000,213738,
528,2152,13600,-2236,1534,47,0,-1000,23000,213740,
332,2080,13604,-2532,1813,90,0,-1000,23000,213753,
444,2084,13588,-2562,1798,77,0,-1000,23000,213755,
368,2064,13740,-2643,1823,142,0,-1000,23000,213757,
276,1920,13668,-3021,1953,148,0,-1000,23000,213770,
268,1960,13748,-2948,1993,183,0,-1000,23000,213772,
212,1964,13744,-3092,1974,136,0,0,23000,213774,
224,1876,13980,-3072,2055,220,0,0,23000,213776,
228,2000,13980,-3445,2029,224,0,0,23000,213789,
300,1976,14280,-3406,2075,263,0,0,23000,213791,
112,1904,14072,-3573,2037,257,0,0,23000,213793,
132,2124,14136,-3523,2082,316,0,0,23000,213796,
-156,1892,14104,-4001,1877,369,-1000,0,23000,213808,
120,1848,14196,-3961,1893,368,-1000,0,23000,213810,
-140,1764,14436,-4155,1768,370,-1000,0,23000,213813,
-196,1736,14536,-4050,1748,412,-1000,0,23000,213815,
12,1468,14684,-4432,1483,422,-1000,0,23000,213827,
192,1612,14612,-4340,1495,492,-1000,0,23000,213830,
104,1576,14792,-4505,1393,453,-1000,0,23000,213832,
292,1244,14904,-4563,1360,457,-2000,0,23000,213844,
132,1188,14940,-4718,1335,469,-2000,0,23000,213846,
196,1164,14912,-4612,1385,473,-2000,0,23000,213849,
424,1260,15016,-4758,1360,468,-2000,0,23000,213851,
512,1148,15260,-4762,1432,444,-2000,0,23000,213864,
456,1148,15340,-4821,1505,469,-3000,0,23000,213866,
384,1068,15264,-4810,1547,484,-3000,0,23000,213868,
692,704,15336,-4898,1815,429,-3000,0,23000,213880,
704,624,15312,-4898,1824,366,-3000,0,23000,213883,
712,548,15368,-4871,1920,352,-3000,0,23000,213885,
732,516,15324,-4834,1975,337,-3000,0,23000,213887,
536,308,15232,-4812,2325,240,-4000,0,23000,213900,
500,300,15260,-4879,2349,198,-4000,0,23000,213902,
640,788,14752,-4929,2372,132,-4000,0,23000,213904,
392,160,16024,-4875,2457,80,-4000,0,23000,213907,
420,8,15244,-4770,2917,80,-4000,1000,23000,213919,
412,28,15300,-4911,2885,16,-4000,1000,23000,213921,
364,76,15248,-4764,3027,65,-5000,1000,23000,213924,
-24,-52,15004,-4938,3193,-50,-5000,1000,23000,213936,
-28,-104,15016,-4844,3308,-68,-5000,1000,23000,213938,
-128,-176,15184,-4992,3308,-86,-5000,1000,23000,213940,
-144,-492,15036,-4867,3574,-124,-6000,1000,23000,213953,
-272,-508,14956,-5021,3533,-145,-6000,1000,23000,213955,
-112,-496,14772,-4871,3691,-150,-6000,1000,23000,213957,
-388,-760,14588,-5020,3956,-181,-6000,2000,23000,213970,
-100,-736,14528,-4889,4058,-208,-6000,2000,23000,213972,
-180,-736,14484,-5017,4061,-208,-6000,2000,23000,213974,
-460,-832,14116,-5037,4538,-257,-7000,2000,23000,213987,
-580,-808,14276,-5099,4604,-239,-7000,2000,23000,213989,
-628,-788,14256,-5071,4656,-274,-7000,3000,23000,213991,
-816,-736,14276,-5340,4886,-249,-7000,3000,23000,214004,
-768,-612,14264,-5470,4872,-280,-8000,3000,23000,214006,
-964,-664,14192,-5542,4844,-242,-8000,3000,23000,214008,
-1408,-760,14332,-5995,4552,-305,-8000,4000,23000,214021,
-1576,-792,14264,-5938,4475,-305,-8000,4000,23000,214023,
-1608,-812,14320,-6145,4307,-316,-8000,4000,23000,214025,
-1580,-952,14444,-6442,3604,-233,-9000,4000,23000,214038,
-1676,-1064,14496,-6667,3406,-260,-9000,4000,23000,214040,
-1700,-1104,14620,-6607,3331,-259,-9000,4000,23000,214042,
-1860,-1748,14516,-6996,2584,-330,-10000,4000,23000,214055,
-1712,-1780,14532,-6964,2573,-340,-10000,5000,23000,214057,
-1576,-1916,14740,-7035,2454,-352,-10000,5000,23000,214059,
-1108,-2180,14432,-7202,2208,-393,-11000,5000,23000,214072,
-1044,-2048,14644,-7225,2269,-295,-11000,5000,23000,214074,
-708,-2056,14788,-7202,2349,-362,-11000,5000,23000,214077,
-800,-1980,14688,-7340,2826,-392,-12000,5000,22000,214089,
-776,-1888,14664,-7478,2917,-456,-12000,5000,22000,214091,
-924,-2012,14676,-7443,3067,-395,-12000,5000,22000,214094,
-1128,-2080,15008,-7869,3288,-477,-13000,5000,22000,214106,
-1100,-2052,15112,-7800,3368,-438,-13000,6000,22000,214108,
-1156,-2148,15020,-8000,3329,-450,-13000,6000,22000,214111,
-1388,-2432,15316,-8160,3416,-465,-14000,6000,22000,214123,
-1472,-2556,15396,-8323,3338,-423,-14000,6000,22000,214126,
-1444,-2724,15360,-8255,3402,-447,-14000,6000,22000,214128,
-1492,-3044,15576,-8553,3161,-511,-15000,6000,22000,214140,
-1440,-3148,15476,-8490,3145,-535,-15000,6000,22000,214143,
-1620,-3220,15756,-8567,3078,-511,-15000,6000,22000,214145,
-1644,-3252,16044,-8689,2598,-574,-16000,7000,22000,214158,
-1704,-3400,15960,-8583,2575,-548,-16000,7000,22000,214160,
-1632,-3252,16152,-8672,2454,-608,-16000,7000,22000,214162,
-1212,-3264,16220,-8662,2407,-650,-17000,7000,22000,214175,
-1280,-3332,16284,-8815,2380,-701,-17000,7000,22000,214177,
-1208,-3336,16328,-8687,2473,-710,-17000,7000,22000,214180,
-1348,-3536,16332,-8885,2427,-749,-18000,7000,21000,214192,
-1368,-3676,16504,-8847,2459,-766,-18000,7000,21000,214194,
-1432,-3644,16592,-8910,2432,-775,-19000,7000,21000,214197,
-1476,-3660,16964,-9068,2301,-935,-19000,7000,21000,214209,
-1432,-3764,17044,-9060,2271,-910,-20000,7000,21000,214212,
-1440,-3792,16968,-9114,2171,-962,-20000,7000,21000,214214,
-2084,-4300,17412,-8999,1895,-905,-21000,8000,21000,214226,
-2212,-4484,17544,-9133,1767,-915,-21000,8000,21000,214229,
-2404,-4488,17480,-8995,1678,-893,-21000,8000,21000,214231,
-1948,-4656,17804,-8985,910,-974,-22000,8000,21000,214244,
-1796,-4808,17748,-8824,993,-991,-22000,8000,21000,214246,
-1844,-5032,17952,-8901,951,-994,-22000,8000,21000,214248,
-2000,-5480,17804,-8438,977,-937,-23000,8000,21000,214261,
-1936,-5480,17556,-8447,922,-893,-23000,8000,21000,214263,
-1888,-5464,17644,-8254,931,-873,-23000,8000,21000,214265,
-1404,-5616,17220,-8043,1247,-820,-24000,8000,21000,214278,
-1424,-5724,16992,-7968,1338,-884,-24000,8000,21000,214280,
-1444,-5728,16992,-7953,1495,-916,-24000,8000,21000,214282,
-1440,-5808,16844,-7725,2334,-1000,-25000,8000,20000,214295,
-1476,-5912,16924,-7564,2584,-956,-25000,8000,20000,214297,
-1476,-5876,16980,-7611,2680,-1016,-25000,8000,20000,214300,
-1736,-5832,17056,-7315,3524,-883,-26000,8000,20000,214312,
-1860,-5816,17052,-7405,3544,-887,-26000,8000,20000,214314,
-1856,-5812,17240,-7238,3719,-886,-26000,8000,20000,214317,
-2612,-5896,17232,-7350,3517,-888,-27000,9000,20000,214329,
-2912,-5904,17340,-7270,3501,-936,-27000,9000,20000,214332,
-3080,-5920,17404,-7367,3367,-887,-27000,9000,20000,214334,
-3260,-6204,17432,-7266,2578,-760,-28000,9000,20000,214347,
-3224,-6276,17432,-7191,2422,-674,-28000,9000,19000,214349,
-3336,-6308,17484,-7206,2232,-730,-28000,9000,19000,214351,
-3232,-6328,17240,-7006,1309,-587,-29000,9000,19000,214364,
-3252,-6372,17368,-7160,1049,-604,-29000,9000,19000,214366,
-3068,-6204,17324,-7000,989,-549,-29000,9000,19000,214369,
-2500,-6256,17508,-7003,486,-489,-29000,9000,19000,214381,
-2520,-6308,17520,-6863,499,-499,-30000,9000,19000,214383,
-2572,-6292,17700,-6962,404,-496,-30000,9000,19000,214386,
-2308,-6348,17836,-6672,445,-361,-30000,9000,19000,214398,
-2136,-6376,18016,-6736,364,-392,-30000,9000,19000,214400,
-2260,-6416,18076,-6597,433,-372,-30000,9000,19000,214403,
-2152,-6404,18208,-6410,393,-311,-31000,9000,19000,214415,
-1988,-6420,18312,-6360,403,-331,-31000,9000,19000,214417,
-1956,-6452,18332,-6346,373,-326,-31000,9000,19000,214420,
-2084,-6812,18540,-5987,420,-399,-32000,9000,19000,214432,
-2128,-6992,18508,-5819,480,-337,-32000,9000,19000,214435,
-2176,-7152,18492,-5822,405,-397,-32000,9000,19000,214437,
-1932,-7340,18700,-5156,570,-376,-32000,9000,19000,214449,
-1964,-7336,18596,-5203,539,-402,-32000,9000,19000,214452,
-1944,-7368,18556,-4935,649,-366,-32000,9000,19000,214454,
-2104,-7440,18524,-4542,716,-347,-33000,9000,19000,214467,
-2084,-7432,18540,-4337,809,-327,-33000,9000,19000,214469,
-2004,-7328,18556,-4373,748,-394,-33000,9000,19000,214471,
-1816,-7132,18812,-3746,896,-418,-33000,9000,19000,214484,
-1828,-7128,18716,-3783,833,-402,-33000,9000,19000,214486,
-1908,-7112,18824,-3560,926,-402,-33000,9000,19000,214488,
-2144,-7176,18972,-3242,859,-454,-34000,9000,19000,214500,
-2196,-7160,18840,-3099,852,-483,-34000,9000,19000,214503,
-2208,-7188,18836,-3121,791,-458,-34000,9000,19000,214505,
-2016,-7172,18912,-2671,748,-401,-34000,9000,19000,214518,
-2068,-7188,18668,-2614,759,-362,-34000,9000,19000,214520,
-2264,-7368,18548,-2489,742,-374,-34000,9000,19000,214522,
-2396,-7348,18400,-2058,682,-431,-34000,9000,19000,214534,
-2300,-7308,18320,-2013,624,-487,-34000,9000,19000,214537,
-2276,-7328,18192,-1928,603,-446,-34000,9000,19000,214539,
-2396,-7432,18040,-1565,521,-331,-34000,9000,19000,214552,
-2388,-7400,18040,-1437,582,-268,-34000,9000,19000,214554,
-2532,-7492,18028,-1374,542,-253,-34000,9000,19000,214556,
-2304,-7388,17644,-878,715,-284,-34000,9000,18000,214568,
-2264,-7428,17480,-921,631,-359,-34000,9000,18000,214571,
-2340,-7252,17628,-765,712,-352,-34000,9000,18000,214573,
-2668,-7376,17240,-564,712,-305,-34000,9000,18000,214586,
-2652,-7324,17172,-395,746,-204,-34000,9000,18000,214588,
-2540,-7324,17160,-425,694,-220,-34000,9000,18000,214590,
-2728,-7308,16972,-18,703,-87,-34000,9000,18000,214603,
-2820,-7248,16952,-111,619,-125,-34000,9000,18000,214605,
-2788,-7260,16944,70,629,-71,-34000,9000,18000,214607,
-2884,-7268,16868,139,351,2,-34000,9000,18000,214620,
-2996,-7308,16800,302,354,-8,-34000,9000,18000,214622,
-2952,-7332,16888,184,269,45,-34000,9000,18000,214624,
-2848,-7276,16760,359,232,55,-34000,9000,18000,214627,
-2640,-7284,16708,473,-4,116,-34000,9000,18000,214639,
-2756,-7268,16804,607,-44,141,-34000,9000,18000,214641,
-2728,-7236,16732,588,-89,182,-34000,9000,18000,214644,
-2800,-7328,16520,815,-336,202,-34000,9000,18000,214656,
-2892,-7252,16692,922,-289,233,-34000,9000,18000,214659,
-2820,-7304,16608,894,-343,207,-34000,9000,18000,214661,
-2348,-7264,16632,1244,-248,259,-33000,9000,18000,214673,
-2260,-7232,16596,1129,-256,238,-33000,9000,18000,214676,
-2272,-7316,16632,1311,-122,230,-33000,9000,18000,214678,
-2368,-7304,16808,1513,81,231,-33000,9000,19000,214690,
-2492,-7368,16760,1689,160,243,-33000,9000,19000,214693,
-2432,-7288,16744,1626,102,199,-33000,9000,19000,214695,
-2392,-7148,17128,1879,49,280,-33000,9000,19000,214707,
-2460,-6964,17048,1872,39,335,-33000,9000,19000,214710,
-2540,-7112,17108,1988,19,337,-33000,9000,19000,214712,
-2864,-7080,17380,2080,-361,420,-32000,9000,19000,214724,
-2756,-7032,17444,2144,-485,385,-32000,9000,19000,214727,
-2748,-7000,17572,2108,-583,377,-32000,9000,19000,214729,
-2348,-7032,17660,2331,-1065,368,-32000,9000,19000,214741,
-2280,-7040,17796,2450,-1063,409,-32000,9000,19000,214744,
-2292,-7000,17788,2416,-1184,360,-32000,9000,19000,214746,
-2200,-7172,18080,2893,-1337,310,-32000,9000,19000,214758,
-2060,-7236,18056,2805,-1423,271,-32000,9000,19000,214761,
-1972,-7176,18136,2961,-1392,279,-31000,9000,19000,214763,
-1904,-7100,18168,3339,-1287,210,-31000,9000,19000,214775,
-1928,-7176,18184,3582,-1177,193,-31000,9000,19000,214778,
-1980,-7220,18208,3516,-1217,184,-31000,9000,19000,214780,
-2068,-7124,18028,4111,-985,127,-30000,9000,19000,214793,
-2032,-7004,18052,4064,-1019,168,-30000,9000,19000,214795,
-1996,-7044,18104,4265,-951,137,-30000,9000,19000,214797,
-2240,-6984,18148,4517,-914,233,-30000,9000,19000,214810,
-2424,-6960,18192,4637,-874,230,-30000,9000,19000,214812,
-2304,-6856,18044,4615,-880,281,-30000,9000,19000,214814,
-2228,-6652,18216,4944,-826,315,-29000,9000,19000,214826,
-2060,-6636,18132,5069,-731,382,-29000,9000,19000,214829,
-2220,-6644,18208,5052,-783,355,-29000,8000,19000,214831,
-2552,-6580,17960,5395,-639,480,-28000,8000,19000,214844,
-2424,-6424,18068,5323,-688,444,-28000,8000,19000,214846,
-2412,-6552,18084,5500,-565,481,-28000,8000,19000,214848,
-2308,-6352,18156,5729,-565,520,-27000,8000,20000,214861,
-2216,-6508,18176,5944,-550,538,-27000,8000,20000,214863,
-2472,-6480,18068,5864,-656,527,-27000,8000,20000,214865,
-2692,-6196,17852,6204,-855,538,-27000,8000,20000,214878,
-2564,-6216,17856,6220,-859,603,-26000,8000,20000,214880,
-2536,-6180,17728,6354,-831,590,-26000,8000,20000,214882,
-2300,-5972,17776,6550,-833,679,-26000,8000,20000,214895,
-2456,-5856,17672,6567,-877,664,-25000,8000,20000,214897,
-2276,-5680,17632,6596,-832,716,-25000,8000,20000,214899,
-2424,-5604,17916,6658,-758,797,-25000,8000,20000,214912,
-2392,-5628,17688,6788,-711,848,-25000,8000,20000,214914,
-2504,-5508,17436,6704,-779,805,-24000,8000,20000,214916,
-2344,-5172,17684,6908,-636,954,-24000,8000,20000,214929,
-2436,-5192,17564,6776,-674,934,-24000,8000,20000,214931,
-2072,-4932,17652,6898,-631,1011,-23000,8000,20000,214933,
-2416,-4836,17832,6844,-826,1024,-23000,8000,20000,214946,
-2388,-4816,17792,7011,-872,1051,-23000,8000,20000,214948,
-2492,-4784,17684,6896,-1017,1007,-22000,8000,20000,214950,
-2880,-4568,17800,7062,-1807,1043,-22000,8000,21000,214963,
-2772,-4548,17824,6957,-1968,1043,-22000,8000,21000,214965,
-2704,-4484,17660,7055,-2056,1028,-21000,8000,21000,214967,
-2396,-4404,17820,7140,-2914,921,-21000,8000,21000,214980,
-2556,-4432,17700,7120,-3133,844,-21000,8000,21000,214982,
-2528,-4224,17792,7151,-3241,883,-20000,8000,21000,214984,
-2164,-4112,17784,7224,-3855,747,-20000,7000,21000,214997,
-2016,-4032,17772,7290,-3813,804,-19000,7000,21000,214999,
-1996,-3964,17708,7268,-3909,672,-19000,7000,21000,215001,
-1612,-3672,17688,7509,-3924,576,-19000,7000,21000,215014,
-1748,-3564,17636,7343,-4004,556,-18000,7000,21000,215016,
-1672,-3652,17588,7508,-3989,542,-18000,7000,21000,215018,
-2060,-3528,17748,7389,-3985,494,-17000,6000,22000,215031,
-2068,-3468,17808,7469,-4060,468,-17000,6000,22000,215033,
-2112,-3548,17828,7382,-4102,467,-17000,6000,22000,215035,
-2096,-3428,17852,7465,-4440,412,-16000,6000,22000,215048,
-2044,-3472,17612,7468,-4473,435,-16000,6000,22000,215050,
-1832,-3328,17712,7536,-4514,400,-16000,6000,22000,215052,
-1792,-3400,17648,7677,-4482,386,-15000,5000,22000,215065,
-1804,-3460,17780,7654,-4562,359,-15000,5000,22000,215067,
-1852,-3348,17740,7747,-4519,401,-15000,5000,22000,215070,
-1344,-2964,17224,7869,-4616,243,-14000,5000,22000,215082,
-1304,-3016,17328,8018,-4500,285,-14000,5000,22000,215084,
-1268,-2988,17232,7864,-4537,194,-14000,5000,22000,215087,
-1188,-2564,17120,8102,-4224,107,-13000,4000,22000,215099,
-1216,-2504,17032,7970,-4177,88,-13000,4000,22000,215101,
-1076,-2312,17040,8094,-4103,72,-13000,4000,22000,215104,
-1216,-2264,16992,7895,-4177,60,-12000,4000,22000,215116,
-1140,-2204,17124,7970,-4209,75,-12000,4000,23000,215118,
-1296,-2164,17004,7873,-4250,80,-12000,3000,23000,215121,
-1264,-1924,17100,7789,-4328,39,-11000,3000,23000,215133,
-1276,-1884,17068,7811,-4333,73,-11000,3000,23000,215135,
-1144,-1900,17176,7813,-4409,-26,-11000,3000,23000,215138,
-1460,-1912,16748,7844,-4813,12,-10000,2000,23000,215150,
-1640,-1936,16640,7747,-5005,-73,-10000,2000,23000,215152,
-1644,-1928,16644,7806,-5044,-54,-10000,2000,23000,215155,
-1300,-1436,16520,7672,-5553,-146,-9000,2000,23000,215167,
-1160,-1428,16244,7832,-5559,-150,-9000,2000,23000,215169,
-1080,-1368,16360,7684,-5690,-184,-9000,2000,23000,215172,
-924,-1252,16136,7747,-5922,-250,-8000,1000,23000,215184,
-868,-1116,16092,7574,-5946,-260,-8000,1000,23000,215186,
-864,-1036,16016,7698,-5910,-296,-8000,1000,23000,215188,
-192,-872,15848,7434,-5734,-355,-7000,0,23000,215201,
-172,-728,15836,7590,-5644,-396,-7000,0,23000,215203,
-172,-768,15624,7428,-5558,-372,-7000,0,23000,215206,
-60,-832,15704,7525,-5482,-408,-6000,0,23000,215208,
-96,-684,15576,7316,-4949,-470,-6000,0,23000,215220,
-44,-652,15612,7404,-4889,-506,-6000,0,23000,215223,
-52,-552,15608,7266,-4787,-513,-5000,0,23000,215225,
-68,-332,15224,7211,-4466,-610,-5000,0,23000,215238,
-132,-196,15296,7177,-4413,-602,-5000,0,23000,215240,
-376,-280,15312,7186,-4420,-616,-4000,0,23000,215242,
-180,-128,15232,7065,-4428,-604,-4000,0,23000,215244,
-200,36,15060,6926,-4612,-611,-4000,-1000,23000,215257,
-292,-92,15224,6923,-4564,-552,-3000,-1000,23000,215259,
-164,-112,14980,6868,-4629,-639,-3000,-1000,23000,215261,
-128,-60,14940,6936,-4670,-586,-3000,-1000,23000,215274,
180,84,14900,6805,-4733,-645,-3000,-1000,23000,215276,
320,88,14780,6869,-4641,-657,-2000,-1000,23000,215278,
592,504,14476,6719,-4353,-691,-2000,-2000,23000,215291,
720,460,14396,6824,-4207,-648,-2000,-2000,23000,215293,
644,400,14236,6669,-4211,-705,-2000,-2000,23000,215295,
688,732,14168,6671,-3763,-827,-1000,-2000,23000,215308,
824,736,13924,6515,-3729,-802,-1000,-2000,23000,215310,
664,712,14016,6626,-3606,-803,-1000,-3000,23000,215312,
860,968,13900,6287,-3191,-776,0,-3000,23000,215325,
908,1104,13624,6378,-3075,-788,0,-3000,23000,215327,
1036,1060,13800,6203,-2995,-764,0,-3000,23000,215329,
960,1100,13700,6330,-2914,-782,0,-3000,23000,215331,
988,1308,13396,6018,-2587,-799,0,-3000,23000,215344,
956,1276,13484,6036,-2525,-862,0,-3000,23000,215346,
992,1344,13268,5906,-2412,-830,0,-3000,23000,215348,
1408,1512,13100,5705,-1463,-872,1000,-4000,22000,215361,
1612,1580,12776,5698,-1306,-802,1000,-4000,22000,215363,
1488,1412,12592,5620,-1175,-851,1000,-4000,22000,215365,
1568,1408,12348,5503,-139,-847,2000,-4000,22000,215378,
1352,1360,12156,5368,-21,-895,2000,-4000,22000,215380,
1468,1376,12156,5418,196,-848,2000,-4000,22000,215382,
1340,1916,11596,5014,1186,-865,2000,-3000,22000,215395,
1432,2164,11516,5075,1400,-829,2000,-3000,22000,215397,
1472,2428,11256,4759,1486,-791,2000,-3000,22000,215399,
580,2776,11508,4488,2094,-370,3000,-3000,22000,215412,
204,2824,11256,4272,1964,-355,3000,-3000,22000,215414,
128,2832,11156,4255,1756,-316,3000,-3000,22000,215416,
-40,3620,12024,3445,615,-195,4000,-3000,22000,215429,
-356,3508,11864,3359,191,-245,4000,-3000,22000,215431,
-512,2880,11076,2936,-344,-266,4000,-3000,22000,215433,
-632,2964,12116,2959,-746,-274,4000,-3000,22000,215436,
-712,2272,12132,2391,-2100,-140,4000,-3000,22000,215448,
-604,2196,11736,2316,-2432,-124,4000,-3000,22000,215450,
-620,2180,11808,2231,-2718,-62,4000,-3000,22000,215453,
268,2252,11936,1963,-3766,-8,4000,-4000,22000,215465,
340,2252,11964,2015,-3807,46,4000,-4000,22000,215467,
620,2460,11880,1909,-3960,-2,4000,-4000,22000,215469,
1736,2908,11932,1686,-4112,-38,5000,-4000,22000,215482,
1804,2996,11852,1500,-4121,-108,5000,-4000,22000,215484,
1980,2964,11964,1552,-3970,-73,5000,-4000,22000,215486,
2576,3044,12028,1157,-3195,-95,5000,-5000,22000,215499,
2464,2944,11896,1266,-2872,-97,5000,-5000,22000,215501,
2548,2868,12076,1118,-2708,-100,5000,-5000,22000,215503,
2672,2840,12308,1173,-1126,-47,5000,-5000,22000,215516,
2640,3008,12356,1013,-950,-58,5000,-5000,22000,215518,
2500,2984,12332,1165,-646,-56,5000,-5000,22000,215520,
2556,3500,12756,776,229,85,5000,-5000,22000,215533,
2228,3488,12992,790,337,92,5000,-5000,22000,215535,
2276,3472,13128,636,332,147,5000,-5000,22000,215537,
2180,3556,13204,743,385,158,5000,-5000,22000,215539,
1756,3548,13400,414,-21,-64,5000,-5000,22000,215552,
1692,3420,13404,471,-121,-179,5000,-5000,22000,215554,
1564,3576,13484,350,-220,-190,5000,-5000,22000,215556,
1372,3452,13544,259,-663,-163,6000,-5000,22000,215569,
1656,3644,13504,229,-706,-141,6000,-5000,22000,215571,
1612,3556,13732,251,-810,-151,6000,-5000,22000,215573,
1916,3948,13736,81,-1224,-206,6000,-5000,22000,215586,
1860,3964,13880,-72,-1420,-244,6000,-5000,22000,215588,
1912,3932,14012,-76,-1426,-211,6000,-5000,22000,215590,
2084,3928,14244,-432,-1671,-261,6000,-5000,22000,215603,
2292,3964,14316,-338,-1594,-218,6000,-5000,22000,215605,
2268,3808,14256,-468,-1623,-213,6000,-6000,22000,215607,
2700,3868,14636,-415,-1110,-214,6000,-6000,22000,215620,
2428,3728,14572,-548,-1085,-269,6000,-6000,22000,215622,
2464,3900,14656,-418,-910,-204,6000,-6000,22000,215624,
2312,3936,14804,-636,-496,-150,6000,-6000,22000,215637,
2336,4060,14792,-556,-402,-171,6000,-6000,22000,215639,
2224,3932,14852,-718,-405,-142,6000,-6000,22000,215641,
2356,4096,15024,-666,-204,-175,6000,-6000,22000,215654,
2288,4036,15020,-787,-263,-149,6000,-6000,22000,215656,
2460,4028,15108,-657,-205,-164,6000,-6000,22000,215658,
2264,4020,15160,-815,-139,-197,6000,-6000,22000,215670,
2408,4036,15104,-729,-72,-260,6000,-6000,22000,215673,
2268,3988,15300,-818,-115,-242,6000,-6000,22000,215675,
2316,4028,14984,-805,27,-357,6000,-6000,22000,215687,
2272,4120,15240,-746,79,-319,6000,-6000,22000,215690,
2380,4192,15364,-828,33,-384,6000,-6000,22000,215692,
2260,4192,15344,-803,85,-350,6000,-6000,22000,215694,
2056,4236,15376,-877,-152,-392,6000,-6000,21000,215707,
2048,4232,15384,-795,-126,-332,6000,-6000,21000,215709,
1916,4196,15588,-904,-215,-368,6000,-6000,21000,215711,
1796,3972,15696,-807,-510,-298,6000,-6000,21000,215723,
1880,3968,15724,-948,-621,-316,6000,-6000,21000,215726,
1964,3992,15572,-816,-545,-289,6000,-6000,21000,215728,
2360,3904,15672,-781,-550,-298,6000,-6000,21000,215740,
2472,3816,15556,-637,-456,-313,6000,-6000,21000,215743,
