Ax,Ay,Az,Gx,Gy,Gz,Roll,Pitch,Yaw,Timestamp,Target
-9384,8692,9368,-617,251,-66,36000,37000,307000,433376,
-9428,8604,9312,-577,303,-55,36000,37000,307000,433379,
-9440,8576,9516,-600,233,-63,36000,37000,307000,433381,
-9472,8548,9472,-654,266,-49,36000,37000,307000,433383,
-9484,8592,9544,-726,229,-61,36000,37000,307000,433396,
-9388,8744,9312,-763,232,-83,36000,37000,307000,433399,
-9460,8800,9692,-737,225,-65,36000,37000,307000,433401,
-9440,8552,9564,-772,202,-17,36000,37000,307000,433414,
-9352,8572,9492,-749,140,53,36000,37000,308000,433416,
-9432,8492,9512,-760,108,44,36000,37000,308000,433419,
-9396,8344,9572,-778,104,27,36000,37000,308000,433421,
-9432,8412,9684,-723,47,102,36000,37000,308000,433434,
-9296,8372,9716,-690,79,131,36000,37000,308000,433436,
-9368,8296,9748,-650,52,109,36000,37000,308000,433439,
-9364,8284,9620,-601,107,230,36000,37000,308000,433451,
-9312,8364,9680,-539,88,234,36000,37000,308000,433454,
-9308,8392,9600,-578,66,257,36000,37000,308000,433456,
-9308,8436,9672,-554,102,223,36000,37000,308000,433459,
-9380,8468,9720,-549,45,252,36000,37000,308000,433471,
-9288,8528,9664,-539,68,198,36000,37000,308000,433474,
-9284,8512,9840,-491,32,224,36000,37000,308000,433476,
-9272,8504,9696,-576,51,116,36000,37000,308000,433489,
-9180,8484,9648,-592,75,138,36000,37000,308000,433491,
-9280,8600,9712,-625,96,124,36000,37000,308000,433494,
-9240,8580,9872,-597,121,89,36000,37000,308000,433496,
-9272,8620,9764,-686,210,59,36000,37000,308000,433509,
-9284,8544,9712,-629,270,19,36000,37000,308000,433511,
-9228,8472,9744,-670,239,48,36000,37000,308000,433514,
-9320,8720,9816,-644,407,-57,36000,37000,308000,433526,
-9216,8704,9832,-716,435,-61,36000,37000,308000,433529,
-9276,8712,9804,-701,463,-79,36000,37000,308000,433531,
-9196,8840,9616,-701,601,-80,36000,37000,308000,433544,
-9388,8804,9804,-701,646,-103,36000,37000,308000,433546,
-9412,8676,9804,-689,654,-121,36000,37000,308000,433549,
-9480,8736,9544,-702,603,-74,36000,37000,308000,433561,
-9440,8728,9892,-684,584,-96,36000,37000,308000,433564,
-9412,8816,9504,-715,568,-62,36000,37000,308000,433566,
-9396,8848,9628,-706,489,-84,36000,38000,308000,433579,
-9512,8920,9724,-733,437,-25,36000,38000,308000,433581,
-9476,8904,9580,-745,468,-40,36000,38000,308000,433584,
-9420,8800,9644,-785,277,-6,36000,38000,308000,433596,
-9396,8872,9608,-776,291,4,36000,38000,308000,433599,
-9324,8816,9756,-760,258,-3,36000,38000,308000,433601,
-9348,8776,9660,-771,206,10,36000,38000,308000,433604,
-9188,8692,9656,-706,139,51,36000,38000,308000,433616,
-9272,8688,9724,-712,158,76,36000,38000,308000,433619,
-9336,8620,9724,-691,179,37,36000,38000,308000,433621,
-9136,8452,9704,-607,101,128,36000,38000,308000,433634,
-9184,8464,9484,-570,139,94,36000,38000,308000,433636,
-9176,8588,9616,-538,95,140,36000,38000,308000,433639,
-9144,8540,9640,-542,91,127,36000,38000,308000,433641,
-9076,8428,9652,-415,106,136,36000,37000,308000,433654,
-8996,8416,9600,-384,116,119,36000,37000,308000,433656,
-9032,8516,9612,-366,176,102,36000,37000,308000,433659,
-9008,8676,9684,-329,215,-9,36000,37000,308000,433671,
-9072,8556,9628,-296,273,-71,36000,37000,308000,433674,
-8980,8812,9712,-245,272,-128,36000,37000,308000,433686,
-9192,8600,9748,-217,319,-156,36000,37000,308000,433689,
-9088,8692,9784,-201,264,-111,36000,37000,308000,433691,
-9188,8628,9700,-166,369,-247,36000,38000,308000,433704,
-9052,8832,9516,-194,354,-220,36000,38000,308000,433706,
-9188,8684,9640,-186,398,-222,36000,38000,308000,433709,
-9100,8740,9448,-192,396,-244,36000,38000,308000,433721,
-9048,8752,9772,-201,449,-255,36000,38000,309000,433724,
-9232,8904,9616,-147,406,-276,36000,38000,309000,433726,
-9336,8780,9624,-196,423,-232,36000,38000,309000,433739,
-9256,8776,9616,-168,391,-237,36000,38000,309000,433741,
-9252,8740,9576,-165,383,-186,36000,38000,309000,433744,
-9368,8620,9504,-131,362,-219,36000,38000,309000,433756,
-9240,8740,9580,-189,338,-207,36000,38000,309000,433759,
-9360,8640,9552,-167,326,-221,36000,38000,309000,433761,
-9404,8692,9512,-191,222,-234,36000,38000,309000,433774,
-9380,8676,9504,-151,199,-278,36000,38000,309000,433776,
-9308,8764,9396,-166,164,-260,36000,38000,309000,433779,
-9336,8740,9568,-165,58,-283,36000,38000,309000,433791,
-9272,8784,9428,-217,37,-247,36000,38000,309000,433794,
-9312,8640,9340,-239,19,-262,36000,38000,309000,433796,
-9124,8656,9404,-260,28,-258,36000,38000,309000,433809,
-9120,8732,9308,-303,65,-297,36000,38000,309000,433811,
-9168,8640,9576,-256,26,-302,36000,38000,309000,433814,
-9164,8536,9432,-259,204,-299,36000,38000,309000,433826,
-9036,8548,9516,-243,206,-254,36000,38000,309000,433829,
-9072,8436,9432,-261,200,-271,36000,38000,309000,433831,
-9244,8384,9432,-200,309,-264,36000,38000,309000,433844,
-9312,8356,9456,-236,341,-277,36000,38000,309000,433846,
-9368,8400,9512,-209,338,-319,36000,38000,309000,433849,
-9388,8348,9444,-212,165,-290,36000,38000,309000,433861,
-9452,8436,9296,-169,161,-328,36000,38000,309000,433864,
-9540,8492,9480,-200,66,-326,36000,38000,309000,433866,
-9500,8544,9500,-188,-97,-384,36000,38000,309000,433879,
-9500,8560,9400,-216,-134,-384,36000,38000,309000,433881,
-9404,8496,9372,-259,-151,-358,36000,38000,309000,433884,
-9340,8568,9444,-329,-163,-365,36000,38000,309000,433896,
-9340,8456,9516,-324,-108,-389,36000,38000,309000,433899,
-9216,8500,9524,-281,-96,-389,36000,38000,309000,433901,
-9160,8408,9508,-330,185,-402,36000,38000,309000,433914,
-9176,8380,9468,-262,183,-412,36000,38000,309000,433916,
-9260,8424,9460,-336,246,-397,36000,38000,309000,433919,
-9400,8448,9592,-249,473,-410,36000,38000,309000,433931,
-9332,8448,9412,-260,518,-391,36000,38000,309000,433934,
-9508,8476,9352,-253,550,-414,36000,38000,309000,433936,
-9716,8608,9272,-326,499,-260,36000,38000,309000,433949,
-9816,8592,9260,-350,497,-273,36000,38000,309000,433951,
-9680,8584,9412,-301,421,-246,36000,38000,309000,433954,
-9764,8592,9212,-411,167,-175,36000,38000,309000,433966,
-9716,8492,9352,-459,87,-99,36000,38000,309000,433969,
-9704,8560,9288,-461,18,-109,36000,38000,309000,433971,
-9832,8380,9304,-490,-146,-61,36000,38000,309000,433984,
-9764,8344,9428,-498,-131,-30,36000,38000,309000,433986,
-9840,8376,9344,-461,-159,-30,36000,38000,309000,433989,
-9652,8320,9540,-492,-95,39,36000,38000,309000,434001,
-9528,8360,9616,-481,-153,20,36000,38000,309000,434004,
-9524,8360,9452,-511,-144,50,36000,38000,309000,434006,
-9452,8344,9292,-501,-87,21,36000,38000,309000,434009,
-9364,8432,9496,-589,-54,-24,36000,38000,309000,434021,
-9340,8360,9456,-580,-11,3,36000,38000,309000,434024,
-9372,8336,9280,-548,-45,-4,36000,38000,309000,434026,
-9352,8320,9352,-621,-19,-21,36000,38000,309000,434039,
-9412,8240,9308,-589,-23,-24,36000,38000,309000,434041,
-9404,8284,9468,-665,-11,-6,36000,38000,309000,434044,
-9396,8216,9420,-641,23,-25,36000,38000,309000,434046,
-9416,8168,9548,-629,44,-21,36000,38000,309000,434059,
-9396,8176,9480,-662,83,-66,36000,38000,309000,434061,
-9448,8224,9508,-619,106,-42,36000,38000,309000,434064,
-9336,8428,9560,-641,267,-97,36000,38000,309000,434076,
-9308,8428,9460,-650,210,-49,36000,38000,309000,434079,
-9460,8432,9472,-684,283,-96,36000,38000,309000,434081,
-9488,8524,9624,-777,372,-125,36000,38000,309000,434094,
-9420,8556,9724,-780,408,-125,36000,38000,309000,434096,
-9440,8560,9616,-752,415,-127,36000,38000,309000,434099,
-9560,8476,9624,-829,452,-98,36000,38000,309000,434111,
-9612,8564,9624,-808,430,-98,36000,38000,309000,434114,
-9616,8544,9652,-814,422,-52,36000,38000,309000,434116,
-9796,8496,9720,-792,360,-24,36000,38000,309000,434129,
-9764,8508,9756,-854,308,-17,36000,38000,309000,434131,
-9756,8548,9716,-815,337,-11,36000,38000,309000,434134,
-9812,8496,9532,-798,293,4,36000,38000,309000,434136,
-9772,8612,9584,-795,84,119,36000,38000,309000,434152,
-9812,8660,9624,-822,76,120,36000,38000,309000,434155,
-9700,8588,9712,-789,47,137,36000,38000,309000,434157,
-9468,8508,9756,-837,-59,193,36000,38000,309000,434170,
-9604,8592,9608,-769,-103,190,36000,38000,309000,434172,
-9500,8596,9868,-813,-89,236,36000,38000,309000,434175,
-9376,8400,9716,-710,-55,273,36000,38000,309000,434187,
-9340,8412,9776,-750,-54,307,36000,38000,309000,434190,
-9284,8360,9768,-731,-10,241,36000,38000,309000,434192,
-9248,8364,9840,-660,-21,278,36000,38000,309000,434195,
-9180,8396,9888,-597,43,207,36000,38000,309000,434207,
-9264,8308,9780,-544,-10,232,36000,38000,309000,434210,
-9212,8408,9776,-572,-20,265,36000,38000,309000,434212,
-9264,8432,9680,-462,-86,154,36000,38000,309000,434225,
-9160,8540,9792,-487,-103,156,36000,38000,309000,434227,
-9248,8416,9736,-412,-143,106,36000,38000,309000,434230,
-9164,8672,9736,-444,-262,-8,35000,38000,309000,434243,
-9168,8512,9816,-426,-291,-41,35000,38000,309000,434245,
-9016,8672,9824,-454,-317,-46,35000,38000,309000,434247,
-9024,8732,9872,-373,-309,-248,35000,38000,309000,434260,
-8868,8648,9888,-431,-308,-243,35000,38000,309000,434262,
-8860,8732,9756,-432,-268,-296,35000,38000,309000,434265,
-8692,8736,9900,-366,-243,-428,35000,38000,309000,434278,
-8648,8744,9912,-361,-254,-494,35000,38000,309000,434280,
-8684,8808,9740,-297,-268,-486,35000,38000,309000,434282,
-8684,9060,9764,-287,-401,-685,35000,38000,309000,434295,
-8540,8980,9732,-274,-486,-755,35000,38000,309000,434297,
-8628,8988,9716,-293,-514,-759,35000,38000,309000,434300,
-8532,9132,9804,-263,-810,-949,35000,38000,309000,434313,
-8440,9268,9772,-300,-890,-934,35000,38000,309000,434315,
-8408,9228,9788,-301,-896,-1001,35000,38000,309000,434317,
-8124,9084,9992,-311,-1139,-1107,35000,38000,309000,434330,
-8120,9112,9940,-280,-1115,-1167,35000,38000,309000,434332,
-8104,9096,9980,-258,-1135,-1167,35000,37000,309000,434335,
-7896,9224,9892,-146,-1049,-1473,35000,37000,309000,434348,
-7828,9200,9880,-148,-1056,-1456,35000,37000,308000,434350,
-7696,9200,9736,-154,-1026,-1543,35000,37000,308000,434352,
-7620,9592,9876,-113,-836,-1838,35000,37000,308000,434365,
-7500,9704,9964,-122,-810,-1962,35000,37000,308000,434368,
-7476,9724,9728,-111,-767,-2047,35000,37000,308000,434370,
-7452,10164,9688,-247,-651,-2413,35000,37000,308000,434383,
-7404,10160,9892,-225,-628,-2521,35000,37000,308000,434385,
-7356,10228,9924,-308,-634,-2584,35000,37000,308000,434388,
-7324,10348,9740,-527,-499,-3142,34000,38000,307000,434400,
-7280,10356,9748,-621,-504,-3229,34000,38000,307000,434403,
-7348,10304,9772,-712,-421,-3345,34000,38000,307000,434405,
-7284,10072,9868,-959,-262,-3873,34000,38000,307000,434418,
-7284,10052,10012,-975,-176,-4054,34000,38000,307000,434420,
-7348,9836,10012,-1011,-141,-4122,34000,38000,307000,434423,
-7636,9536,10332,-1035,403,-4683,34000,38000,306000,434435,
-7620,9428,10272,-1005,476,-4718,34000,38000,306000,434438,
-7720,9404,10236,-1004,594,-4758,34000,38000,306000,434440,
-7932,9220,10424,-894,1223,-5099,33000,38000,306000,434453,
-7956,9168,10264,-918,1346,-5149,33000,38000,306000,434456,
-7880,9108,10372,-869,1532,-5278,33000,39000,306000,434458,
-8064,8768,10240,-617,2515,-5663,33000,39000,305000,434471,
-8168,8736,10268,-575,2599,-5712,33000,39000,305000,434473,
-8320,8860,10176,-531,2696,-5722,33000,39000,305000,434476,
-8544,8624,10308,-272,3378,-5900,33000,40000,305000,434488,
-8856,8620,10432,-274,3323,-5868,32000,40000,305000,434491,
-8820,8576,10488,-258,3378,-5924,32000,40000,305000,434493,
-9128,8016,10580,148,3983,-5981,32000,40000,304000,434506,
-9104,7844,10388,217,4214,-6032,32000,41000,304000,434508,
-9132,7756,10528,361,4395,-6052,32000,41000,304000,434510,
-9984,7444,10528,745,4847,-6105,32000,41000,304000,434523,
-10180,7388,10512,877,4994,-6023,32000,42000,304000,434526,
-10308,7288,10640,949,5160,-6005,32000,42000,304000,434528,
-11540,6952,10260,1530,4894,-5673,32000,42000,304000,434541,
-11712,6776,10276,1555,4941,-5586,32000,43000,303000,434543,
-11836,6844,10292,1639,5082,-5446,32000,43000,303000,434546,
-12712,6424,10220,2230,4781,-4727,32000,43000,303000,434558,
-12772,6312,9992,2316,4636,-4614,32000,43000,303000,434561,
-12940,6508,10024,2321,4694,-4453,32000,44000,303000,434563,
-13552,6188,9784,2776,4591,-3539,32000,44000,303000,434576,
-13704,6044,9604,2819,4485,-3322,32000,44000,303000,434579,
-13816,6028,9704,2941,4493,-3159,32000,44000,303000,434581,
-14508,5568,9176,3044,4023,-2156,33000,45000,303000,434594,
-14704,5420,9240,3106,3968,-1997,33000,45000,303000,434596,
-14660,5364,9040,3065,3921,-1715,33000,45000,303000,434599,
-15264,4920,8684,3235,3582,-409,33000,45000,303000,434612,
-15300,4696,8720,3196,3443,-218,33000,46000,303000,434614,
-15448,4688,8652,3204,3450,54,33000,46000,303000,434617,
-16172,4280,7620,2982,2673,1192,34000,46000,304000,434629,
-16176,4132,7540,2945,2614,1449,34000,46000,304000,434632,
-16376,4196,7508,2952,2526,1671,34000,46000,304000,434634,
-17260,4300,5976,2283,1751,3427,35000,46000,305000,434651,
-17372,4316,5728,2061,1657,3678,35000,46000,305000,434653,
-17488,4464,5596,1958,1544,3970,35000,46000,305000,434656,
-17648,4696,4940,688,947,5146,36000,46000,306000,434668,
-17628,4616,4856,412,798,5336,36000,46000,306000,434671,
-17648,4596,4828,202,740,5539,36000,46000,306000,434673,
-17580,4264,4620,-1089,509,6557,37000,46000,307000,434686,
-17412,4168,4748,-1330,531,6755,37000,46000,307000,434688,
-17492,3980,4608,-1569,629,6975,37000,46000,307000,434691,
-17048,3588,4208,-2976,932,8174,37000,45000,308000,434704,
-17088,3484,4228,-3245,1097,8447,37000,45000,308000,434706,
-17004,3540,4168,-3533,1201,8691,37000,45000,308000,434709,
-16248,3172,3884,-4850,1941,10019,38000,45000,310000,434721,
-16132,3244,3764,-5080,2175,10270,38000,45000,310000,434724,
-16104,3188,3792,-5380,2243,10539,38000,45000,310000,434726,
-15480,2968,3696,-6675,2468,11708,38000,45000,312000,434739,
-14984,3144,4428,-6874,2339,11941,38000,44000,312000,434741,
-15220,2500,3260,-7219,2521,12125,38000,44000,312000,434744,
-14444,2756,3892,-8653,2026,12996,39000,44000,314000,434757,
-14280,2684,3900,-8811,1961,13039,39000,44000,314000,434759,
-14116,2632,3840,-9089,1802,13207,39000,44000,314000,434762,
-13328,2560,3836,-10151,1322,13681,39000,43000,316000,434774,
-13136,2500,3936,-10396,1165,13788,39000,43000,316000,434777,
-13004,2560,4072,-10587,1021,13856,39000,43000,316000,434779,
-11960,2548,4208,-11586,292,14109,39000,42000,318000,434792,
-11780,2712,4224,-11789,138,14100,39000,42000,318000,434794,
-11620,2668,4172,-11941,8,14078,39000,42000,318000,434797,
-10888,2536,4908,-12688,-625,14070,38000,41000,320000,434810,
-10752,2620,4664,-12742,-700,14047,38000,41000,320000,434812,
-10628,2588,4880,-12861,-690,14093,38000,41000,320000,434815,
-10056,2944,5088,-13475,-1328,14216,38000,40000,322000,434827,
-10000,2848,4984,-13625,-1475,14276,38000,40000,322000,434830,
-9968,2808,4944,-13581,-1729,14267,37000,40000,322000,434832,
-8972,3360,5040,-14493,-2798,14313,37000,39000,323000,434845,
-8824,3520,5068,-14568,-3064,14308,37000,39000,324000,434847,
-8500,3624,5308,-14720,-3355,14266,37000,38000,324000,434850,
-7420,3908,5996,-15059,-5261,14120,36000,37000,325000,434862,
-7184,4024,6096,-15202,-5540,14134,36000,37000,325000,434865,
-6872,4284,6208,-15306,-5819,14206,35000,37000,325000,434867,
-5328,4968,7164,-15738,-6776,14276,34000,35000,326000,434880,
-5064,5168,7740,-15668,-6938,14313,34000,35000,326000,434882,
-4884,5236,7800,-15598,-7176,14302,34000,35000,326000,434885,
-3756,6212,8532,-15624,-8390,14213,33000,33000,327000,434898,
-3444,6472,8612,-15646,-8568,14222,33000,33000,327000,434900,
-3116,6948,8788,-15787,-8596,14245,33000,33000,328000,434902,
-1912,7940,9504,-15619,-9745,13946,31000,31000,328000,434915,
-1704,7852,9616,-15682,-9995,13840,31000,31000,329000,434918,
-1280,8188,9616,-15719,-10232,13708,31000,30000,329000,434920,
-56,8440,10608,-15574,-11379,12811,30000,29000,329000,434933,
372,8720,10748,-15511,-11606,12630,30000,28000,329000,434935,
712,8752,11076,-15558,-11764,12431,29000,28000,330000,434937,
2416,8608,11804,-15049,-12444,11342,28000,26000,330000,434950,
2620,8720,11916,-14958,-12496,11123,28000,26000,330000,434953,
2836,8584,12208,-14803,-12535,10904,28000,25000,330000,434955,
4608,8320,12440,-13958,-12496,9582,27000,24000,330000,434967,
4948,8344,12488,-13828,-12416,9360,26000,23000,330000,434970,
6752,7736,13492,-13041,-11638,8023,25000,22000,331000,434983,
7088,7512,13404,-12836,-11521,7717,25000,21000,331000,434985,
7388,7420,13660,-12651,-11388,7356,25000,21000,331000,434987,
8812,6880,14692,-11670,-10647,4730,24000,20000,331000,435000,
8852,6620,14888,-11426,-10539,4093,23000,19000,331000,435002,
9068,6572,14904,-11235,-10341,3445,23000,19000,331000,435005,
9660,6848,15804,-9946,-9121,138,22000,18000,330000,435017,
9740,6960,15888,-9722,-8937,-481,22000,18000,330000,435020,
9584,7188,15840,-9521,-8740,-1073,22000,18000,330000,435022,
9472,8176,16440,-8683,-7738,-3801,21000,17000,330000,435035,
9424,8236,16868,-8506,-7626,-4321,21000,17000,329000,435037,
9116,8328,16800,-8466,-7560,-4791,20000,17000,329000,435040,
8120,8168,17640,-7273,-6617,-6915,19000,16000,328000,435052,
8188,8464,17296,-7383,-6540,-7334,19000,16000,328000,435055,
8008,8580,16496,-7847,-6623,-7756,19000,16000,328000,435057,
6936,8308,17416,-6438,-5671,-9211,18000,15000,327000,435070,
6796,8408,17220,-6415,-5673,-9568,18000,15000,327000,435072,
6464,8296,17328,-6246,-5510,-9801,18000,15000,327000,435074,
5520,8280,17408,-5220,-4829,-11404,17000,15000,325000,435087,
5480,8324,17184,-5168,-4880,-11670,17000,15000,325000,435090,
5020,8300,17248,-5107,-5019,-11896,17000,15000,325000,435092,
3960,8336,18060,-4712,-5469,-13520,16000,14000,323000,435105,
3504,8268,18056,-4583,-5585,-13847,16000,14000,323000,435107,
3356,8160,18160,-4424,-5680,-14179,16000,14000,323000,435109,
2424,8016,18864,-3966,-6416,-15414,15000,14000,321000,435122,
2380,7932,19028,-3790,-6383,-15655,15000,14000,321000,435124,
2252,7712,19096,-3647,-6445,-15865,15000,14000,321000,435127,
1392,6920,19484,-2783,-7259,-17159,14000,14000,319000,435139,
1084,6988,18836,-3015,-7519,-17323,14000,13000,318000,435142,
980,7040,19140,-3018,-7676,-17564,14000,13000,318000,435144,
136,6572,19488,-2432,-7834,-18370,13000,13000,316000,435161,
36,6320,19596,-2280,-8018,-18388,13000,13000,315000,435163,
-16,6108,19640,-2219,-7939,-18441,13000,13000,315000,435166,
-320,5060,19968,-1791,-7477,-18716,12000,12000,313000,435178,
-488,4972,19976,-1627,-7219,-18675,12000,12000,312000,435181,
-1000,4820,19904,-1456,-7127,-18727,12000,12000,312000,435183,
-1620,3528,19392,-664,-6645,-18400,11000,12000,310000,435196,
-1656,3536,19172,-509,-6595,-18370,11000,12000,310000,435198,
-1760,3376,19112,-362,-6498,-18170,11000,12000,309000,435201,
-2248,2852,18400,-78,-6677,-17884,11000,11000,308000,435213,
-2584,2744,18316,-79,-6858,-17781,11000,11000,307000,435216,
-2588,2652,18220,-171,-6887,-17830,10000,11000,307000,435218,
-3448,2288,17904,-495,-7523,-18245,10000,11000,305000,435231,
-3616,2132,17824,-619,-7581,-18360,10000,11000,305000,435233,
-3600,2244,17868,-728,-7552,-18509,10000,11000,304000,435236,
-4148,1840,18360,-1782,-8140,-18935,9000,10000,302000,435248,
-4184,1868,18584,-1842,-8208,-18980,9000,10000,302000,435251,
-4240,1604,18472,-2011,-8209,-18888,9000,10000,301000,435253,
-4156,576,18620,-2828,-8315,-18861,8000,10000,299000,435266,
-4148,468,18856,-2945,-8240,-18748,8000,10000,299000,435268,
-4188,-876,18752,-3326,-7575,-18290,8000,9000,297000,435281,
-4396,-1060,18840,-3289,-7378,-18045,7000,9000,297000,435283,
-4348,-1280,18556,-3249,-7202,-17905,7000,9000,296000,435286,
-4488,-1964,17496,-3010,-6025,-16561,7000,9000,295000,435298,
-4712,-2004,17204,-3021,-5702,-16380,6000,9000,294000,435301,
-4704,-2120,17228,-2993,-5372,-16119,6000,8000,294000,435303,
-5080,-1992,16592,-2978,-3499,-15044,6000,8000,293000,435316,
-5108,-1996,16464,-2994,-3243,-14777,6000,8000,292000,435318,
-5200,-1956,16220,-3032,-2962,-14572,6000,8000,292000,435321,
-5800,-1752,16192,-3810,-1765,-13811,5000,8000,291000,435333,
-5844,-1708,16240,-4005,-1579,-13796,5000,8000,290000,435336,
-6004,-1748,16292,-4129,-1419,-13705,5000,8000,290000,435338,
-6460,-2492,17036,-4979,-1116,-13186,4000,8000,289000,435351,
-6508,-2644,17196,-5094,-1213,-13092,4000,8000,289000,435353,
-6532,-2812,17260,-5262,-1189,-12841,4000,8000,288000,435356,
-6732,-3940,17488,-5576,-950,-11724,3000,9000,287000,435368,
-6872,-4200,17560,-5594,-886,-11522,3000,9000,287000,435371,
-6828,-4356,17400,-5570,-760,-11273,2000,9000,287000,435373,
-6796,-4748,16836,-5092,445,-9737,2000,9000,286000,435386,
-6812,-4772,16484,-5056,712,-9492,2000,9000,286000,435388,
-6804,-4640,16468,-5011,750,-9140,1000,9000,285000,435391,
-7076,-4440,15852,-4432,1922,-7391,1000,9000,285000,435403,
-7572,-4000,15836,-4293,2080,-6923,1000,9000,285000,435406,
-7588,-4048,15308,-4342,2309,-6554,0,9000,284000,435408,
-7416,-3748,15612,-4179,2704,-4875,0,10000,284000,435421,
-7704,-3288,14400,-4372,2211,-4694,0,10000,284000,435423,
-7880,-3088,14560,-4731,1728,-4563,0,10000,284000,435426,
-9552,-3136,15560,-5655,568,-3629,0,10000,283000,435438,
-10012,-3296,15740,-5693,437,-3381,0,10000,283000,435441,
-10012,-3436,15744,-5802,295,-3121,0,10000,283000,435443,
-9756,-3892,16016,-6096,-909,-1302,-1000,10000,283000,435456,
-9760,-3976,15956,-6230,-1118,-997,-1000,10000,283000,435458,
-9632,-3892,16092,-6352,-1207,-804,-1000,10000,283000,435461,
-9480,-3760,16344,-6864,-1545,412,-2000,10000,283000,435477,
-9448,-3676,16428,-6905,-1430,641,-2000,10000,283000,435480,
-9336,-3648,16420,-6941,-1315,894,-2000,10000,283000,435482,
-9080,-3636,16708,-7122,-697,2358,-3000,10000,283000,435495,
-9204,-3524,16776,-7214,-593,2604,-3000,10000,283000,435497,
-9304,-3636,16928,-7256,-476,2934,-3000,10000,283000,435500,
-9444,-3656,16980,-7376,358,4916,-4000,10000,284000,435512,
-9612,-3604,17056,-7297,564,5347,-4000,10000,284000,435515,
-9412,-3624,16900,-7239,919,5857,-4000,10000,284000,435517,
-9152,-3528,16984,-7226,1629,8061,-5000,11000,285000,435530,
-9204,-3520,17008,-7268,1717,8370,-5000,11000,285000,435532,
-9260,-3564,17152,-7256,1737,8757,-5000,11000,285000,435535,
-9620,-3428,17296,-7231,1362,10336,-6000,11000,286000,435547,
-9752,-3312,17200,-7329,1272,10690,-6000,11000,286000,435550,
-9704,-3368,17188,-7311,1103,10999,-6000,11000,287000,435552,
-9580,-3380,17656,-7739,-136,12392,-6000,11000,288000,435565,
-9564,-3480,17776,-7690,-414,12543,-6000,11000,288000,435567,
-9464,-3408,17688,-7796,-661,12687,-7000,12000,288000,435570,
-8964,-3496,17860,-8074,-1980,13790,-7000,12000,290000,435583,
-8668,-3524,17900,-8158,-2167,13984,-7000,12000,290000,435585,
-8444,-3424,17664,-8254,-2340,14186,-7000,12000,290000,435587,
-7392,-3516,18100,-8416,-2700,15089,-8000,12000,292000,435600,
-7096,-3552,18184,-8423,-2697,15263,-8000,12000,292000,435603,
-6832,-3612,18188,-8371,-2698,15394,-8000,12000,292000,435605,
-5724,-3520,18616,-8277,-2142,16198,-8000,12000,294000,435618,
-5508,-3608,18792,-8142,-2002,16262,-9000,12000,294000,435620,
-5268,-3552,18856,-8072,-1785,16445,-9000,12000,295000,435623,
-4472,-3688,19192,-7590,-671,17070,-9000,12000,296000,435635,
-4356,-3632,19196,-7541,-411,17189,-9000,12000,297000,435638,
-4232,-3732,19236,-7402,-170,17298,-9000,12000,297000,435640,
-3872,-3496,19416,-6811,1339,17791,-9000,12000,299000,435653,
-3760,-3440,19468,-6602,1605,17892,-9000,13000,299000,435655,
-3716,-3420,19412,-6494,1959,17987,-10000,13000,299000,435658,
-3532,-3300,20100,-5650,3131,18406,-10000,13000,301000,435670,
-3532,-3052,20316,-5562,3428,18521,-10000,13000,301000,435673,
-3336,-2836,20664,-4475,4432,18865,-10000,14000,303000,435685,
-3372,-2624,20612,-4276,4547,18886,-10000,14000,304000,435688,
-3356,-2696,20712,-4072,4680,18881,-10000,14000,304000,435690,
-3336,-2180,20880,-3001,4653,18824,-9000,15000,306000,435703,
-3428,-2104,20836,-2691,4596,18809,-9000,15000,306000,435705,
-3476,-1916,20860,-2512,4466,18763,-9000,15000,306000,435708,
-3352,-1276,20988,-1379,3587,18721,-9000,16000,308000,435720,
-3200,-1320,21044,-1251,3368,18649,-9000,16000,309000,435723,
-3132,-1176,21044,-1080,3157,18674,-9000,16000,309000,435725,
-2348,-656,21656,148,1875,18344,-8000,17000,311000,435738,
-2168,-352,21880,377,1630,18335,-8000,17000,311000,435740,
-1936,-248,22016,703,1378,18260,-8000,17000,311000,435743,
-420,176,22820,2052,57,17606,-7000,17000,313000,435755,
-124,444,22804,2304,-173,17318,-7000,17000,313000,435758,
-8,580,22976,2555,-401,17148,-7000,17000,314000,435760,
1212,824,23184,4291,-1150,16119,-6000,17000,315000,435773,
1516,860,23088,4614,-1141,15891,-6000,17000,316000,435775,
1636,1048,23164,4994,-1229,15616,-6000,17000,316000,435777,
2768,1632,22748,6823,-1271,14429,-4000,17000,318000,435790,
3260,2020,22448,7105,-1044,14178,-4000,17000,318000,435792,
3280,2048,22404,7317,-934,13914,-4000,17000,318000,435795,
4364,2856,21928,8978,-339,12570,-3000,16000,319000,435808,
4404,3036,21732,9174,-287,12217,-2000,16000,320000,435810,
4584,3580,21444,10482,832,10396,-1000,16000,321000,435822,
4616,3576,21212,10698,980,10105,-1000,16000,321000,435825,
4588,3848,21024,10909,1156,9783,0,16000,321000,435827,
4228,4248,20788,12243,2129,8332,0,16000,322000,435840,
4236,4320,20888,12460,2312,8000,0,16000,322000,435842,
4076,4372,20728,12728,2457,7643,1000,16000,322000,435844,
3440,4756,19868,13628,2993,6011,2000,17000,323000,435857,
3364,4856,19544,14116,3011,5725,2000,17000,323000,435860,
3192,4908,19408,14191,3048,5456,3000,17000,323000,435862,
2720,5256,18388,14754,3440,4114,4000,17000,324000,435875,
2696,5364,18316,14784,3428,3909,5000,17000,324000,435877,
2588,5600,17948,14913,3443,3667,5000,17000,324000,435879,
2380,5672,17460,15445,3999,2336,7000,17000,324000,435892,
2492,5820,17344,15581,4175,2068,7000,17000,324000,435894,
2312,5800,17276,15676,4240,1791,7000,17000,324000,435897,
1712,6080,16600,15972,4669,428,9000,17000,324000,435909,
1624,6292,16572,15968,4657,212,9000,17000,324000,435912,
1396,6216,16552,16024,4801,-4,10000,17000,324000,435914,
580,6480,16052,16148,5130,-996,11000,18000,324000,435927,
504,6628,15972,16166,5204,-1145,12000,18000,324000,435929,
396,6596,15996,16254,5302,-1339,12000,18000,324000,435932,
-416,6640,15508,16316,5401,-1873,14000,18000,324000,435944,
-412,6712,15464,16428,5432,-2041,14000,19000,324000,435947,
-660,6788,15356,16355,5400,-2090,14000,19000,324000,435949,
-1140,7096,14444,16356,5427,-2819,16000,19000,324000,435962,
-1200,7196,14552,16282,5388,-2928,16000,19000,324000,435964,
-1328,7300,14412,16233,5372,-3070,16000,19000,324000,435966,
-1652,7652,14428,16013,5202,-3609,18000,20000,324000,435979,
-1772,7924,14204,15966,5249,-3700,18000,20000,324000,435981,
-1828,7752,14280,15994,5194,-3809,18000,20000,324000,435984,
-2364,8028,13932,15397,4935,-4234,20000,21000,324000,435996,
-2460,8084,13796,15379,4842,-4345,20000,21000,324000,435999,
-2520,8012,13624,15192,4775,-4401,21000,21000,324000,436001,
-2732,8048,13532,14859,4509,-4758,22000,21000,323000,436014,
-2848,8140,13404,14751,4479,-4798,22000,21000,323000,436016,
-2804,8184,13380,14737,4478,-4864,22000,21000,323000,436019,
-3036,8252,13000,14529,4452,-5049,24000,22000,323000,436031,
-2988,8304,13040,14138,4496,-5094,24000,22000,323000,436034,
-3020,8292,12836,14075,4469,-5085,24000,22000,323000,436036,
-3204,8520,12260,14038,4657,-5276,26000,23000,323000,436049,
-3372,8600,12072,13752,4596,-5265,26000,23000,323000,436051,
-3256,8540,12060,13679,4596,-5311,26000,23000,322000,436053,
-3624,8664,11764,12968,4722,-5536,27000,23000,322000,436066,
-3724,8600,11460,12833,4779,-5571,27000,24000,322000,436068,
-3840,8672,11516,12801,4788,-5617,28000,24000,322000,436071,
-4436,8856,11208,12015,4697,-5588,29000,24000,322000,436084,
-4256,8744,11180,11983,4833,-5646,29000,24000,322000,436086,
