Ax,Ay,Az,Gx,Gy,Gz,Roll,Pitch,Yaw,Timestamp,Target
-1680,-3572,15960,-475,-257,106,-11000,12000,257000,1724686,
-1300,-3488,16160,-532,-391,50,-11000,12000,257000,1724699,
-1044,-3436,16136,-440,-336,89,-11000,12000,257000,1724701,
-980,-3544,16152,-527,-380,13,-11000,12000,257000,1724703,
-824,-3524,16056,-392,-144,-36,-11000,12000,257000,1724716,
-884,-3548,15932,-510,-139,-70,-11000,12000,257000,1724718,
-912,-3444,15892,-378,-69,-40,-11000,12000,257000,1724721,
-872,-3420,15876,-449,177,-27,-11000,12000,257000,1724733,
-968,-3464,15904,-425,226,-52,-11000,12000,257000,1724736,
-1004,-3520,15836,-428,263,-33,-11000,12000,257000,1724738,
-1072,-3516,15844,-434,396,-73,-11000,12000,257000,1724750,
-1132,-3516,16060,-417,464,-36,-11000,12000,257000,1724753,
-1224,-3432,15932,-434,426,-110,-11000,12000,257000,1724755,
-1280,-3516,15940,-341,448,-96,-11000,12000,257000,1724767,
-1512,-3476,16056,-469,364,-156,-11000,12000,257000,1724770,
0,0,0,0,0,0,-11000,12000,257000,1724770,
-568,-3640,16040,-372,-54,-173,-18000,1000,264000,1727136,
-712,-3656,15980,-483,-56,-181,-18000,1000,264000,1727149,
-724,-3652,16016,-362,-12,-165,-18000,1000,264000,1727151,
-1216,-3356,16004,-328,-141,13,-11000,12000,256000,1724806,
-1052,-3336,16064,-450,-91,2,-11000,12000,256000,1724819,
-1104,-3384,16136,-408,-82,-49,-11000,12000,256000,1724821,
-1028,-3388,16044,-444,-61,-21,-11000,12000,256000,1724824,
-948,-3352,15968,-451,22,-200,-11000,12000,256000,1724836,
-1000,-3392,15924,-372,99,-151,-11000,12000,256000,1724838,
-1200,-3512,16068,-432,84,-190,-11000,12000,256000,1724841,
-1376,-3496,15832,-323,168,-160,-11000,12000,256000,1724853,
-1216,-3484,16024,-457,97,-161,-11000,12000,256000,1724856,
-1428,-3516,16068,-299,167,-144,-11000,12000,256000,1724858,
-1140,-3560,16056,-359,82,-120,-11000,12000,256000,1724871,
-1220,-3436,16056,-279,120,-137,-11000,12000,256000,1724873,
-1208,-3520,16080,-369,109,-113,-11000,12000,256000,1724875,
-1292,-3468,16076,-370,59,-173,-11000,12000,256000,1724888,
-1292,-3476,16080,-285,79,-108,-11000,12000,256000,1724890,
-1280,-3404,15904,-367,48,-153,-11000,12000,256000,1724893,
-1144,-3356,15948,-261,76,-167,-11000,12000,256000,1724905,
-1200,-3368,16148,-408,32,-151,-11000,12000,256000,1724908,
-1348,-3344,16052,-257,68,-171,-11000,12000,256000,1724910,
-1284,-3328,16040,-431,29,-131,-11000,12000,256000,1724922,
-1208,-3416,16196,-343,54,-145,-11000,12000,256000,1724925,
-1088,-3360,16156,-482,41,-133,-11000,12000,256000,1724927,
-936,-3360,16124,-462,178,-71,-12000,11000,256000,1724940,
-1048,-3276,16168,-495,230,-50,-12000,11000,256000,1724942,
-872,-3328,16088,-474,246,-98,-12000,11000,256000,1724944,
-1052,-3328,16092,-505,500,-13,-12000,11000,256000,1724957,
-1032,-3356,16128,-607,492,-65,-12000,11000,256000,1724959,
-1048,-3332,16064,-522,575,7,-12000,11000,256000,1724962,
-1104,-3376,16136,-666,653,-33,-12000,11000,256000,1724974,
-1092,-3324,16120,-561,748,18,-12000,11000,256000,1724976,
-1152,-3324,16120,-695,696,-5,-12000,11000,256000,1724979,
-1216,-3404,16020,-605,841,60,-12000,12000,256000,1724991,
-1236,-3428,16260,-720,802,80,-12000,12000,256000,1724994,
-1140,-3404,16056,-635,856,103,-12000,12000,256000,1724996,
-1176,-3412,16088,-763,879,177,-12000,12000,256000,1725009,
-1360,-3396,16164,-740,894,130,-12000,12000,256000,1725011,
-1392,-3464,16116,-726,884,188,-12000,12000,256000,1725013,
-1216,-3428,16008,-665,802,133,-12000,12000,256000,1725026,
-1084,-3504,15932,-518,822,126,-12000,12000,256000,1725028,
-1224,-3552,15960,-605,763,73,-12000,12000,256000,1725031,
-1564,-3640,15888,-504,762,-5,-12000,12000,256000,1725043,
-1532,-3624,15940,-627,650,-46,-12000,12000,256000,1725045,
-1512,-3536,15896,-499,677,-17,-12000,12000,256000,1725048,
-1464,-3428,16272,-639,261,16,-12000,12000,256000,1725060,
-1540,-3524,16376,-643,154,1,-12000,12000,256000,1725063,
-1352,-3388,16524,-695,83,41,-12000,12000,256000,1725065,
-1236,-3500,16596,-781,-153,110,-12000,12000,256000,1725078,
-1180,-3416,16576,-665,-85,188,-12000,12000,256000,1725080,
-1160,-3460,16792,-724,-145,90,-12000,12000,256000,1725082,
-864,-3564,17052,-611,416,33,-12000,12000,256000,1725095,
-688,-3568,17092,-775,478,-34,-12000,12000,256000,1725097,
-692,-3632,17308,-653,722,-24,-12000,12000,256000,1725100,
-936,-3764,17860,-742,1718,58,-12000,12000,256000,1725112,
-1036,-3812,17968,-525,1964,122,-12000,12000,256000,1725114,
-964,-3900,18096,-584,2119,188,-12000,12000,256000,1725117,
-696,-4176,18652,-365,3365,634,-12000,12000,256000,1725129,
-424,-4188,18608,-367,3568,797,-12000,12000,256000,1725132,
-472,-4156,18796,-298,3741,860,-12000,12000,256000,1725134,
292,-4064,18584,139,4452,1465,-12000,12000,256000,1725147,
780,-3924,18520,79,4597,1530,-12000,12000,256000,1725149,
964,-3888,18316,231,4914,1668,-12000,13000,256000,1725151,
1352,-3936,17936,672,7117,2200,-12000,13000,256000,1725164,
1232,-4104,17576,1002,7833,2378,-12000,13000,256000,1725166,
1340,-4240,17164,1042,8374,2504,-12000,13000,256000,1725168,
1844,-5040,16248,3161,12115,2697,-12000,14000,256000,1725181,
1812,-5024,16176,3675,12838,2706,-12000,15000,256000,1725183,
1628,-4912,16104,4430,13734,2702,-12000,15000,256000,1725186,
224,-4632,17788,7323,18961,3983,-11000,17000,256000,1725198,
500,-4564,18232,7996,20028,4398,-11000,17000,256000,1725201,
336,-4840,19188,8614,20867,4780,-11000,17000,256000,1725203,
792,-6016,21752,12111,26505,7067,-10000,20000,257000,1725215,
96,-6120,22072,12701,28110,7519,-9000,20000,257000,1725218,
48,-5796,22108,13096,29553,7854,-9000,21000,257000,1725220,
-1948,-4600,21824,14612,32767,9235,-8000,24000,257000,1725233,
-2460,-4232,21548,14690,32767,9420,-7000,25000,257000,1725235,
-3512,-3924,21288,15042,32767,9703,-7000,25000,257000,1725237,
-7196,-1976,19036,15775,32767,10677,-5000,28000,258000,1725250,
-7828,-1580,18532,16109,32767,10869,-5000,29000,258000,1725252,
-10652,-1380,16016,17296,32767,10923,-3000,32000,259000,1725264,
-11080,-1372,15852,17777,32767,10883,-2000,33000,259000,1725267,
-11264,-1400,15420,18177,32767,10880,-2000,33000,259000,1725269,
-11844,-1000,12996,19649,32767,10416,0,37000,261000,1725282,
-11792,-940,12676,20032,32767,10434,0,37000,261000,1725284,
-12088,-752,12580,20195,32767,10413,1000,38000,261000,1725287,
-11876,-72,11772,21875,32767,11584,4000,41000,263000,1725299,
-11888,-384,9996,22031,32767,11839,5000,42000,263000,1725302,
-12556,-116,10072,22304,32767,12086,5000,42000,264000,1725304,
-11140,2504,7076,21930,32767,12654,9000,45000,266000,1725317,
-11344,3240,6392,21938,32767,12714,10000,46000,266000,1725319,
-11128,3564,6132,21855,32767,12829,11000,46000,267000,1725321,
-12156,4796,3312,21161,32767,13799,15000,49000,270000,1725334,
-12528,4928,2816,21023,32767,14092,16000,50000,271000,1725336,
-14256,6084,612,19691,32767,15348,21000,52000,275000,1725349,
-14416,6356,196,19689,32767,15599,22000,53000,275000,1725351,
-14420,6476,-492,19446,32767,15730,23000,53000,276000,1725354,
-14276,7064,-892,19260,32767,16285,29000,56000,282000,1725366,
-16380,7804,-932,19855,32767,16250,31000,56000,283000,1725369,
-14904,8812,-6624,18826,32767,15881,32000,56000,284000,1725371,
-15908,10368,-6412,16352,32767,13698,38000,58000,290000,1725384,
-16156,10892,-6304,15575,32767,13097,40000,59000,291000,1725386,
-16288,10672,-6204,15028,32767,12546,41000,59000,292000,1725388,
-17724,10992,-7912,11681,32767,10311,48000,61000,298000,1725401,
-16796,9660,-5792,11387,32767,10342,49000,61000,299000,1725403,
-19992,9540,-7920,8490,32767,10444,56000,62000,307000,1725416,
-20240,9380,-8088,7870,32767,10538,58000,62000,308000,1725419,
-20280,9308,-7940,7557,32767,10693,59000,62000,310000,1725421,
-18540,9056,-8724,6247,32767,12439,67000,63000,317000,1725434,
-18952,9056,-10492,5970,32767,12815,68000,63000,319000,1725436,
-19336,9004,-10244,5505,32767,13145,70000,63000,320000,1725438,
-18148,7840,-10984,4171,32767,13114,78000,63000,328000,1725451,
-18028,7624,-11380,4001,32767,12779,79000,62000,330000,1725453,
-17392,7484,-11632,3754,32767,12271,80000,62000,331000,1725456,
-16928,6828,-12552,2432,32767,8775,87000,62000,339000,1725469,
-17040,6876,-13092,1959,31095,8403,89000,62000,340000,1725471,
-16840,6768,-14240,60,22793,9306,93000,61000,345000,1725484,
-16484,6640,-14580,-395,21505,9733,94000,61000,346000,1725486,
-15956,6696,-14784,-782,20362,10028,95000,60000,347000,1725488,
-12688,6108,-15252,-2676,15779,10469,97000,59000,350000,1725501,
-12292,6188,-15368,-3159,14988,10273,98000,59000,351000,1725504,
-11604,6088,-15560,-3474,14422,10054,98000,59000,351000,1725506,
-10736,6496,-15364,-5976,12068,8561,100000,58000,354000,1725519,
-10696,6700,-15248,-6358,11945,8362,100000,57000,354000,1725521,
-10696,6684,-15052,-6933,11714,8205,100000,57000,355000,1725524,
-10064,6552,-14708,-9268,10974,7687,101000,56000,357000,1725536,
-9924,6656,-14668,-9562,10870,7620,102000,56000,357000,1725539,
-9800,6864,-14288,-11395,10561,7078,102000,55000,359000,1725551,
-9508,6956,-14120,-11522,10671,7077,102000,55000,359000,1725554,
-9600,6984,-14148,-11906,10561,7016,102000,55000,0,1725556,
-9480,7116,-13800,-13086,9744,6578,103000,54000,1000,1725569,
-9560,7140,-13652,-13238,9415,6517,103000,54000,2000,1725571,
-9652,7216,-13760,-13421,9119,6446,103000,54000,2000,1725574,
-9952,7600,-12696,-14533,6866,6365,102000,53000,3000,1725586,
-9936,7620,-12400,-14804,6321,6305,102000,53000,3000,1725589,
-10056,7512,-12168,-14873,5873,6341,102000,52000,3000,1725591,
-9960,7480,-11096,-15611,3411,6382,101000,52000,4000,1725604,
-9608,7484,-11080,-15574,3140,6404,101000,52000,4000,1725606,
-9520,7588,-10920,-15779,2771,6465,101000,52000,4000,1725608,
-8372,7900,-10412,-15961,1327,6374,100000,51000,4000,1725621,
-8212,7976,-10104,-15894,1305,6341,99000,51000,4000,1725623,
-8000,7980,-10088,-15901,1286,6240,99000,51000,5000,1725626,
-7184,8088,-8992,-15505,1701,6059,98000,50000,5000,1725638,
-6976,8128,-8904,-15595,1722,6008,98000,50000,5000,1725641,
-6764,8124,-8832,-15375,1910,5930,98000,50000,5000,1725643,
-6620,7988,-7668,-14970,1924,5370,97000,49000,5000,1725656,
-6820,8076,-7376,-14705,1904,5240,96000,49000,6000,1725658,
-6704,8084,-7308,-14684,1705,5168,96000,49000,6000,1725660,
-6868,8380,-6208,-13780,977,4595,95000,48000,6000,1725673,
-6752,8372,-6264,-13591,774,4560,95000,48000,6000,1725675,
-6776,8432,-5724,-13470,553,4467,95000,48000,6000,1725678,
-6632,8444,-5228,-12433,-464,4403,94000,48000,6000,1725690,
-6336,8456,-5056,-12424,-628,4355,94000,48000,6000,1725693,
-6160,8404,-4792,-12123,-682,4426,93000,47000,6000,1725695,
-5496,8488,-3956,-11259,-930,4240,92000,47000,6000,1725708,
-5284,8648,-3756,-10953,-862,4193,92000,47000,6000,1725710,
-5156,8588,-3648,-10844,-829,4105,92000,47000,6000,1725713,
-4872,8648,-3264,-9722,-309,3548,91000,46000,6000,1725725,
-4844,8604,-3336,-9463,-201,3482,91000,46000,6000,1725728,
-4780,8660,-3188,-9326,-101,3320,91000,46000,6000,1725730,
-5032,8220,-2836,-7994,513,2746,90000,46000,6000,1725743,
-5092,8244,-3096,-7842,495,2648,90000,46000,6000,1725745,
-5296,8212,-2932,-7481,568,2641,90000,46000,6000,1725747,
-5048,8420,-3412,-6458,360,2552,90000,45000,6000,1725760,
-4872,8404,-3512,-6150,357,2564,89000,45000,6000,1725762,
-4940,8440,-3540,-6095,232,2565,89000,45000,6000,1725765,
-4668,8668,-3192,-5141,29,2445,89000,45000,7000,1725778,
-4368,8716,-3268,-5034,-20,2411,89000,45000,7000,1725780,
-4320,8696,-3248,-4867,-62,2309,89000,45000,7000,1725782,
-4396,9032,-2952,-4259,-365,1626,89000,44000,7000,1725795,
-4420,9156,-3028,-4224,-482,1437,89000,44000,7000,1725797,
-4680,9156,-2956,-4028,-444,1343,89000,44000,7000,1725800,
-4864,9168,-3096,-3671,-706,928,88000,44000,7000,1725812,
-4880,9108,-2988,-3448,-701,883,88000,44000,7000,1725815,
-5132,9172,-2876,-3503,-805,829,88000,44000,7000,1725817,
-5120,9304,-2976,-2837,-906,604,88000,44000,7000,1725830,
-5256,9152,-3044,-2856,-932,606,88000,44000,7000,1725832,
-5232,9164,-3248,-2689,-922,533,88000,44000,7000,1725835,
-4764,9100,-3168,-2306,-948,469,88000,44000,7000,1725847,
-4620,9128,-3120,-2276,-1009,405,88000,44000,7000,1725850,
-4756,9076,-3320,-2121,-967,401,88000,44000,7000,1725852,
-4628,9240,-3320,-1706,-1115,-10,88000,44000,7000,1725864,
-4404,9432,-3424,-1488,-1025,-49,88000,44000,7000,1725867,
-4572,9388,-3216,-1555,-1141,-158,88000,44000,7000,1725869,
-4632,9796,-3272,-1111,-1499,-381,87000,43000,7000,1725882,
-4548,9716,-3336,-1162,-1670,-442,87000,43000,6000,1725884,
-4520,9720,-3180,-1003,-1802,-504,87000,43000,6000,1725887,
-4516,9772,-3184,-858,-2811,-965,87000,43000,6000,1725899,
-4684,9732,-3000,-769,-3080,-1127,87000,43000,6000,1725902,
-4736,9832,-3040,-739,-3297,-1199,87000,43000,6000,1725904,
-5096,9600,-2996,-589,-4835,-1580,87000,43000,6000,1725917,
-5232,9588,-3016,-434,-5189,-1623,87000,43000,5000,1725919,
-5064,9544,-2932,-542,-5596,-1681,87000,43000,5000,1725922,
-5480,9200,-3032,-348,-8894,-2290,86000,44000,4000,1725934,
-5640,9060,-3084,-433,-9751,-2405,86000,44000,4000,1725937,
-5840,9164,-3044,-371,-10803,-2602,86000,44000,4000,1725939,
-6956,9120,-2984,-379,-17030,-3436,84000,44000,1000,1725952,
-7184,9076,-3156,-440,-18490,-3612,84000,44000,1000,1725954,
-7356,9100,-3128,-397,-19781,-3623,83000,44000,1000,1725956,
-8000,9508,-3804,-622,-27063,-3662,81000,44000,357000,1725969,
-7932,9640,-3760,-538,-28296,-3612,81000,44000,356000,1725971,
-7568,9820,-3968,-732,-29590,-3555,80000,44000,356000,1725974,
-5968,10156,-4400,-1434,-32768,-3493,77000,43000,351000,1725987,
-5656,10152,-4288,-1663,-32768,-3563,76000,43000,350000,1725989,
-5272,10148,-4064,-1782,-32768,-3768,76000,43000,350000,1725991,
-4248,9716,-3384,-2429,-32768,-5008,73000,43000,345000,1726004,
-4236,9420,-3536,-2664,-32768,-5381,72000,43000,345000,1726006,
-4632,9164,-2424,-3420,-32768,-7225,69000,42000,340000,1726019,
-4652,9088,-2284,-3753,-32768,-7631,69000,42000,340000,1726022,
-5044,9152,-1952,-3832,-32768,-8008,68000,42000,339000,1726024,
-5908,9340,-1844,-4278,-32768,-10354,65000,42000,334000,1726036,
-6180,9388,-1592,-4212,-32768,-10966,64000,42000,334000,1726039,
-6348,9424,-1664,-4193,-32768,-11471,64000,42000,333000,1726041,
-6620,9420,-1864,-3945,-32768,-14248,60000,41000,328000,1726054,
-6396,9528,-2016,-3817,-32768,-14705,60000,41000,328000,1726056,
-5484,9532,-1416,-3830,-32768,-17135,57000,41000,323000,1726069,
-5276,9720,-1096,-3728,-32768,-17456,56000,41000,322000,1726071,
-5328,9652,-1172,-3963,-32768,-17676,55000,41000,321000,1726074,
-5864,10020,28,-4892,-32768,-18069,52000,40000,317000,1726086,
-4868,9684,196,-5160,-32768,-18120,51000,40000,316000,1726089,
-5452,9624,760,-5195,-32768,-18529,51000,40000,315000,1726091,
-7916,9224,1268,-6141,-32768,-19585,47000,40000,310000,1726104,
-7884,9416,1560,-6555,-32768,-19871,46000,39000,309000,1726106,
-10268,9260,2016,-7468,-32768,-20712,43000,39000,305000,1726119,
-10564,9088,2048,-7656,-32768,-20876,42000,39000,304000,1726121,
-10688,9188,2252,-7537,-32768,-20963,42000,38000,303000,1726123,
-13208,8944,10556,-8510,-32768,-20840,38000,37000,298000,1726136,
-12964,9092,6084,-8049,-32768,-20490,37000,37000,298000,1726139,
-14260,9368,-2908,-8665,-32768,-19870,37000,37000,297000,1726141,
-12560,9384,88,-11046,-32768,-19169,33000,36000,293000,1726154,
-11980,8972,320,-11787,-32768,-18557,33000,35000,292000,1726156,
-10548,8756,-904,-14876,-32768,-16636,29000,34000,288000,1726169,
-10228,8528,-88,-15355,-32768,-16220,29000,33000,288000,1726171,
-9064,5652,-992,-17082,-32768,-16536,28000,33000,287000,1726173,
-8308,6964,3484,-21647,-32768,-17786,24000,31000,284000,1726186,
-8620,7188,4388,-22101,-32768,-17865,24000,31000,283000,1726189,
-8640,7240,5364,-22400,-32768,-18041,23000,30000,282000,1726191,
-9104,7120,6448,-23324,-32768,-17485,19000,28000,279000,1726204,
-9340,6924,6400,-23567,-32768,-17369,19000,27000,279000,1726206,
-716,-3612,16116,-537,-209,-154,-18000,1000,264000,1727186,
-748,-3644,15968,-433,-171,-116,-18000,1000,264000,1727188,
-856,-3512,16140,-603,-229,-102,-18000,1000,264000,1727201,
-684,-3472,16016,-472,-197,-96,-18000,1000,264000,1727203,
-720,-3488,16080,-604,-239,-117,-18000,1000,264000,1727205,
-676,-3620,16052,-458,-206,-129,-18000,1000,264000,1727218,
-716,-3516,16024,-578,-243,-121,-18000,1000,264000,1727220,
-760,-3664,16008,-433,-193,-131,-18000,1000,264000,1727222,
-672,-3612,15920,-518,-255,-121,-18000,1000,264000,1727235,
-640,-3716,15948,-435,-261,-168,-18000,1000,264000,1727237,
-716,-3712,16304,-495,-261,-141,-18000,1000,264000,1727240,
-664,-3684,16004,-458,-284,-131,-18000,1000,264000,1727252,
-604,-3584,16076,-385,-197,-82,-18000,1000,264000,1727255,
-576,-3684,16260,-439,-280,-120,-18000,1000,264000,1727257,
-748,-3596,16020,-353,-170,-92,-18000,1000,264000,1727269,
-708,-3544,16076,-504,-243,-116,-18000,1000,264000,1727272,
-628,-3488,16216,-364,-172,-87,-18000,1000,264000,1727274,
-452,-3644,16068,-494,-205,-143,-18000,1000,264000,1727287,
-576,-3700,16004,-452,-198,-167,-18000,1000,264000,1727289,
-472,-3572,16060,-506,-182,-156,-18000,1000,264000,1727291,
-656,-3544,16152,-538,-172,-182,-18000,1000,264000,1727304,
-636,-3512,16256,-451,-135,-112,-18000,1000,264000,1727306,
-728,-3572,16000,-545,-168,-168,-18000,1000,264000,1727309,
-468,-3552,16012,-381,-109,-92,-18000,1000,264000,1727321,
-592,-3616,16108,-540,-167,-141,-18000,1000,264000,1727323,
-532,-3556,16100,-398,-100,-117,-18000,1000,264000,1727326,
-612,-3564,16008,-514,-141,-114,-18000,1000,264000,1727338,
-692,-3680,15944,-387,-116,-116,-18000,1000,264000,1727341,
-572,-3636,16056,-512,-143,-109,-18000,1000,264000,1727343,
-304,-3632,15968,-420,-117,-110,-18000,1000,264000,1727355,
-376,-3560,16116,-456,-61,-72,-18000,1000,264000,1727358,
-320,-3632,16128,-426,-69,-104,-18000,1000,264000,1727360,
-528,-3696,16076,-397,51,-67,-18000,1000,264000,1727373,
-532,-3528,16068,-512,-5,-93,-18000,1000,264000,1727375,
-564,-3604,15976,-416,77,-62,-18000,1000,264000,1727377,
-420,-3532,16064,-569,43,-97,-18000,1000,264000,1727390,
-492,-3548,16020,-418,105,-119,-18000,1000,264000,1727392,
-536,-3512,16032,-550,29,-93,-18000,1000,264000,1727394,
-740,-3580,16104,-463,83,-120,-18000,1000,264000,1727407,
-552,-3592,16104,-574,73,-138,-18000,1000,264000,1727409,
-708,-3608,16112,-442,76,-103,-18000,1000,264000,1727412,
-484,-3664,16076,-497,16,-97,-18000,1000,264000,1727424,
-608,-3564,15996,-509,-14,-121,-18000,1000,264000,1727427,
-572,-3496,15972,-498,-2,-64,-18000,1000,264000,1727429,
-584,-3676,16108,-486,-69,-153,-18000,1000,264000,1727441,
-632,-3652,15984,-419,-17,-63,-18000,1000,264000,1727444,
-692,-3784,16012,-453,-51,-130,-18000,1000,264000,1727446,
-464,-3612,15984,-339,21,-93,-18000,1000,264000,1727459,
-400,-3536,16056,-483,-30,-129,-18000,1000,264000,1727461,
-420,-3612,15964,-334,43,-86,-18000,1000,264000,1727463,
-500,-3612,15868,-475,82,-95,-18000,1000,264000,1727476,
-452,-3580,16196,-364,159,-75,-18000,1000,264000,1727478,
-384,-3628,16060,-470,100,-82,-18000,1000,264000,1727480,
-172,-3456,16040,-420,297,-113,-18000,1000,264000,1727493,
-452,-3648,16156,-469,317,-65,-18000,1000,264000,1727495,
-252,-3584,15972,-382,343,-92,-18000,1000,264000,1727498,
-628,-3684,16156,-447,477,-110,-18000,1000,264000,1727510,
-488,-3572,16128,-473,423,-130,-18000,1000,264000,1727513,
-544,-3668,15972,-429,448,-117,-18000,1000,264000,1727515,
-760,-3732,16132,-474,395,-135,-18000,1000,264000,1727527,
-560,-3572,16016,-347,418,-76,-18000,1000,264000,1727530,
-680,-3596,16136,-469,347,-140,-18000,1000,264000,1727532,
-636,-3584,16040,-334,331,-87,-18000,1000,264000,1727545,
-688,-3532,16100,-469,221,-89,-18000,1000,264000,1727547,
-524,-3484,16152,-336,278,-83,-18000,1000,264000,1727549,
-664,-3480,16044,-471,131,-100,-18000,1000,264000,1727562,
-488,-3476,16020,-450,101,-139,-18000,1000,264000,1727564,
-752,-3580,16160,-489,68,-124,-18000,1000,264000,1727566,
-588,-3564,16100,-521,40,-137,-18000,1000,264000,1727579,
-724,-3536,16228,-430,108,-98,-18000,1000,264000,1727581,
-360,-3576,16040,-528,42,-110,-18000,1000,264000,1727583,
-228,-3544,16196,-427,256,-25,-18000,1000,264000,1727596,
-420,-3624,16132,-594,252,-15,-18000,1000,264000,1727598,
-256,-3564,16168,-429,363,2,-18000,1000,264000,1727601,
-196,-3516,15984,-568,689,83,-18000,1000,264000,1727613,
-12,-3632,16024,-461,828,61,-18000,1000,264000,1727615,
-96,-3664,16040,-558,874,131,-18000,1000,264000,1727618,
-40,-3536,16216,-517,1363,211,-18000,1000,264000,1727630,
28,-3576,16204,-447,1494,265,-18000,1000,264000,1727633,
64,-3580,16324,-443,1601,254,-18000,1000,264000,1727635,
128,-3580,16200,-222,2289,350,-18000,1000,264000,1727648,
-16,-3712,16196,-314,2320,336,-18000,1000,264000,1727650,
-24,-3600,16320,-216,2501,351,-18000,1000,264000,1727652,
-408,-3360,16316,-329,2926,415,-18000,2000,264000,1727665,
-300,-3308,16624,-221,3108,479,-18000,2000,264000,1727667,
-428,-3352,16552,-312,3230,560,-18000,2000,264000,1727669,
52,-3360,16632,-41,4559,915,-18000,2000,264000,1727682,
372,-3460,16976,-77,4824,1050,-18000,2000,264000,1727684,
404,-3468,16832,-107,5084,1085,-18000,2000,264000,1727687,
588,-3928,17420,-364,6371,1361,-18000,3000,264000,1727699,
360,-3932,17672,-464,6638,1311,-18000,3000,264000,1727702,
192,-3964,17580,-415,6971,1352,-18000,3000,264000,1727704,
536,-3984,18388,-79,9499,1133,-18000,4000,263000,1727716,
584,-3852,18592,148,10229,1116,-18000,4000,263000,1727719,
548,-4036,18436,173,10984,1052,-18000,4000,263000,1727721,
312,-3988,18876,1681,17362,834,-18000,6000,263000,1727734,
336,-4112,18892,1810,18793,841,-18000,6000,263000,1727736,
432,-4084,19104,2173,20343,785,-18000,7000,263000,1727738,
-16,-3512,19652,2659,27970,915,-18000,9000,262000,1727751,
-248,-3484,19348,2760,29270,1030,-18000,10000,262000,1727753,
-352,-3264,19104,2759,30239,1177,-18000,10000,262000,1727755,
-1928,-3160,18656,3285,32767,2556,-18000,13000,261000,1727768,
-2104,-3060,18196,3432,32767,2939,-18000,14000,261000,1727770,
-2560,-3036,18416,3549,32767,3326,-18000,14000,261000,1727773,
-5272,-3016,17760,4019,32767,5780,-17000,17000,260000,1727785,
-5696,-3052,17468,3966,32767,6200,-17000,18000,260000,1727788,
-6048,-3076,17396,4226,32767,6567,-17000,19000,260000,1727790,
-7680,-3640,15860,4925,32767,7068,-17000,22000,260000,1727802,
-7732,-3700,15800,5443,32222,6865,-17000,23000,260000,1727805,
-7592,-3796,15820,5765,31255,6615,-17000,23000,260000,1727807,
-7760,-4368,14700,9440,29257,5104,-16000,26000,259000,1727820,
-8316,-4472,13984,9833,29328,4985,-16000,26000,259000,1727822,
-8748,-4916,12920,8739,31188,4949,-15000,30000,259000,1727835,
-8156,-4100,12312,9259,32645,5346,-15000,30000,259000,1727837,
-9008,-3512,13624,9133,32377,5463,-15000,31000,259000,1727839,
-8892,-2260,12856,10472,32767,5897,-14000,34000,258000,1727852,
-9172,-2100,13560,10811,32767,5977,-14000,35000,258000,1727855,
-8892,-1880,13444,11204,32767,6067,-13000,35000,258000,1727857,
-8448,-800,12244,12389,32767,6585,-12000,38000,258000,1727870,
-8480,-464,12116,12358,32767,6633,-12000,39000,258000,1727872,
-8476,-324,11724,12535,32767,6701,-12000,40000,258000,1727874,
-9664,884,9572,11929,32767,6763,-11000,43000,258000,1727887,
-10084,1076,9584,11798,32767,6729,-10000,44000,258000,1727889,
-10364,1244,9352,11401,32767,6743,-10000,44000,258000,1727892,
-12108,1992,8040,9574,32767,6805,-9000,47000,258000,1727905,
-12452,2124,7568,9182,32767,6901,-9000,48000,259000,1727907,
-13092,2172,7604,8683,32767,6982,-9000,49000,259000,1727909,
-14068,1944,5932,6846,32767,8224,-7000,52000,259000,1727922,
-14084,1948,5768,6375,32767,8529,-7000,53000,259000,1727924,
-14096,1832,6012,6268,32767,8951,-7000,53000,259000,1727927,
-14620,1948,4396,5750,32767,11517,-5000,57000,261000,1727940,
-14680,2028,3988,5826,32767,11953,-5000,57000,261000,1727942,
-15700,2476,2432,6810,32767,14271,-2000,61000,264000,1727955,
-16064,2556,2024,6890,32767,14637,-1000,61000,264000,1727957,
-16548,2652,1824,7210,32767,14948,-1000,62000,265000,1727959,
-17944,3088,300,8045,32767,15921,3000,65000,269000,1727972,
-18152,2996,-604,8294,32767,15963,3000,66000,269000,1727974,
-18608,3200,-1040,8269,32767,15867,4000,67000,270000,1727977,
-19260,3496,-2032,8823,32767,15064,10000,70000,276000,1727989,
-18984,3488,-2348,8941,32767,14808,12000,70000,277000,1727992,
-19028,3580,-2552,9057,32767,14546,13000,71000,278000,1727994,
-17300,4236,-7684,10261,32767,13164,21000,74000,286000,1728007,
-18736,3528,-2116,10292,32767,12929,23000,74000,288000,1728009,
-17692,3596,-3772,11045,32767,12699,25000,75000,289000,1728012,
-18108,4044,-5816,9111,32767,11431,37000,77000,301000,1728024,
-18340,4396,-7364,8326,32767,11188,40000,77000,303000,1728026,
-18624,6020,-9480,2996,32767,10010,56000,79000,319000,1728039,
-18464,6832,-9288,2076,32767,9783,59000,79000,323000,1728041,
-19184,7284,-8468,1431,32767,9457,63000,79000,326000,1728044,
-20188,6744,-6952,979,32767,10068,82000,79000,345000,1728056,
-20448,6464,-7120,1396,32767,10478,85000,79000,349000,1728059,
-20356,6180,-7460,1521,32767,10823,89000,79000,353000,1728061,
-18208,5192,-9412,1385,29840,13118,103000,77000,7000,1728074,
-18104,4944,-10396,967,28601,13586,105000,77000,9000,1728076,
-17968,4920,-10220,780,27914,14032,107000,76000,11000,1728079,
-16600,4244,-12536,789,25960,14955,115000,74000,19000,1728092,
-16608,5816,-12952,17,26361,14692,116000,73000,20000,1728094,
-16044,4900,-10492,387,24376,14377,117000,73000,21000,1728096,
-14168,5112,-10872,-269,22519,12297,122000,71000,26000,1728109,
-14000,5136,-10992,-212,22183,11937,122000,70000,27000,1728111,
-14376,5104,-11180,-452,21572,11543,123000,70000,28000,1728114,
-14184,5972,-11756,-1168,19106,10424,126000,68000,31000,1728127,
-14348,5996,-11608,-1242,18645,10359,126000,68000,31000,1728129,
-14236,6420,-11652,-1711,17119,10749,128000,66000,33000,1728142,
-14104,6372,-12040,-1711,16920,11002,128000,65000,33000,1728144,
-13896,6536,-12320,-2025,16562,11183,129000,65000,34000,1728147,
-13300,6724,-12184,-2465,15906,11472,130000,63000,35000,1728159,
-13136,6744,-12260,-2651,15843,11405,130000,62000,35000,1728162,
-13004,6692,-12172,-2678,15878,11369,130000,62000,35000,1728164,
-11928,6724,-12796,-3224,15740,11185,131000,60000,37000,1728177,
-12000,6600,-12896,-3355,15764,11119,131000,60000,37000,1728179,
-11496,6756,-13196,-3658,16126,11119,131000,58000,38000,1728192,
-11212,6892,-13268,-3880,16150,11102,131000,57000,38000,1728194,
-11016,6844,-13508,-3893,16265,11133,132000,57000,38000,1728197,
-10804,7492,-13648,-4651,15751,10865,132000,55000,39000,1728209,
-10948,7624,-13752,-4780,15616,10739,132000,55000,39000,1728212,
-10696,7900,-13692,-4871,15345,10628,132000,54000,40000,1728214,
-11096,8376,-14316,-5628,13739,10370,132000,53000,40000,1728227,
-11276,8272,-14356,-5638,13376,10373,132000,52000,40000,1728229,
-11088,7964,-14316,-6362,11230,10147,132000,51000,41000,1728242,
-10816,7880,-14264,-6448,10906,10142,132000,50000,41000,1728244,
-10672,7752,-14184,-6605,10511,10059,132000,50000,41000,1728247,
-9508,7704,-13852,-7235,9367,10201,131000,49000,41000,1728260,
-9228,7728,-13840,-7190,9312,10227,131000,48000,41000,1728262,
-8768,7964,-13848,-7420,9235,10204,131000,48000,41000,1728264,
-7168,8204,-13196,-7892,9663,9774,130000,47000,41000,1728277,
-6824,8268,-13332,-8142,9680,9623,130000,46000,41000,1728279,
-6596,8420,-13040,-8166,9784,9456,130000,46000,41000,1728282,
-5772,8680,-11420,-8772,9667,8291,130000,45000,42000,1728294,
-5968,8800,-11156,-8927,9501,7979,130000,45000,42000,1728297,
-5812,8924,-10936,-8917,9378,7696,129000,44000,42000,1728299,
-6924,9040,-10652,-9240,8194,6329,129000,43000,42000,1728312,
-7216,8996,-10320,-9097,7961,6183,129000,43000,42000,1728314,
-7484,8312,-10532,-8926,5287,5652,128000,42000,42000,1728327,
-7440,8424,-10568,-8802,4691,5586,128000,42000,42000,1728329,
-7452,8260,-10548,-8736,4053,5516,128000,42000,42000,1728332,
-7588,8008,-10676,-8166,373,5009,127000,41000,42000,1728344,
-7744,7952,-10428,-7937,-217,5013,127000,41000,42000,1728347,
-7432,7984,-10380,-7888,-921,4954,126000,41000,42000,1728349,
-6560,7512,-9796,-7209,-3251,5000,125000,41000,41000,1728362,
-6224,7372,-9644,-7286,-3544,5017,125000,41000,41000,1728364,
-5796,7348,-9616,-7099,-3660,4997,125000,41000,41000,1728366,
-3092,7328,-8716,-7199,-3197,4546,124000,41000,40000,1728379,
-2940,7284,-8616,-7119,-2865,4381,124000,40000,40000,1728382,
-2728,7300,-8568,-7204,-2520,4165,124000,40000,40000,1728384,
-2888,7540,-8228,-7270,-556,3020,123000,40000,40000,1728397,
-2984,7652,-8212,-7139,-144,2896,123000,40000,40000,1728399,
-3364,7644,-8188,-7247,105,2657,123000,40000,40000,1728401,
-4616,7540,-8320,-7185,905,2075,122000,40000,40000,1728414,
-4912,7540,-8176,-7272,792,2029,122000,40000,40000,1728417,
-4932,7500,-8248,-7151,741,1990,122000,39000,40000,1728419,
-5716,7356,-8292,-7073,-369,2143,121000,39000,40000,1728432,
-5668,7256,-8112,-7066,-618,2149,121000,39000,40000,1728434,
-5448,7552,-8104,-6944,-836,2264,121000,39000,40000,1728436,
-4760,7912,-7920,-6805,-2287,2375,120000,39000,40000,1728449,
-4728,7960,-7736,-6590,-2447,2398,120000,39000,39000,1728452,
-4540,8144,-7748,-6641,-2698,2269,120000,39000,39000,1728454,
-3648,8336,-7012,-6229,-3180,1728,119000,39000,39000,1728467,
-3800,8388,-6920,-6240,-3192,1642,119000,39000,39000,1728469,
-3780,8364,-7020,-6141,-3177,1501,118000,39000,39000,1728471,
-3908,8672,-6668,-5972,-2910,960,118000,39000,39000,1728484,
-3800,8660,-6628,-6047,-2925,828,118000,39000,38000,1728486,
-3952,8708,-6660,-5966,-2827,754,117000,39000,38000,1728489,
-4344,8784,-6328,-5744,-2566,393,117000,39000,38000,1728501,
-4352,8780,-6404,-5583,-2439,432,117000,39000,38000,1728504,
-4344,8784,-6472,-5709,-2445,387,117000,39000,38000,1728506,
-4172,9016,-5796,-5439,-2207,100,116000,39000,38000,1728519,
-4168,9104,-5872,-5356,-2110,70,116000,39000,38000,1728521,
-4336,9164,-5960,-5279,-2102,-29,116000,39000,38000,1728524,
-4952,9528,-5748,-4898,-2135,-62,115000,39000,38000,1728536,
-4964,9796,-5928,-4954,-2260,-66,115000,39000,37000,1728539,
-4824,9812,-5952,-4746,-2274,-23,115000,39000,37000,1728541,
-4816,10184,-5628,-4390,-3029,-10,114000,39000,37000,1728554,
-4800,10068,-5804,-4162,-3070,23,114000,39000,37000,1728556,
-4772,10164,-5728,-4171,-3174,36,114000,39000,37000,1728559,
-4280,10056,-5792,-3729,-3279,-200,113000,39000,37000,1728571,
-4204,10000,-5732,-3587,-3184,-181,113000,39000,37000,1728574,
-4160,10012,-5664,-3524,-3058,-256,113000,39000,37000,1728576,
-4504,10056,-5852,-3019,-2235,-284,113000,39000,36000,1728589,
-4356,10072,-5688,-3081,-2169,-304,113000,39000,36000,1728591,
-4528,10044,-5656,-2830,-1977,-315,113000,39000,36000,1728594,
-4620,10652,-6004,-2628,-1567,-419,112000,39000,36000,1728606,
-4548,10752,-5808,-2468,-1512,-459,112000,39000,36000,1728609,
-4832,10836,-6288,-2083,-1289,-497,112000,39000,36000,1728621,
-5016,10764,-6224,-2091,-1364,-580,112000,39000,36000,1728624,
-4968,10764,-6196,-1910,-1337,-520,112000,39000,36000,1728626,
-5400,10920,-6216,-1699,-1636,-529,112000,39000,36000,1728639,
-5472,10840,-6324,-1488,-1619,-502,112000,39000,36000,1728641,
-5252,10928,-6300,-1570,-1739,-450,112000,39000,36000,1728644,
-4812,11324,-6160,-1296,-1879,-450,112000,39000,36000,1728656,
-4684,11412,-6464,-1232,-1791,-458,112000,39000,36000,1728659,
-4852,11496,-6372,-1256,-1809,-623,111000,39000,36000,1728661,
-5292,11264,-6480,-972,-1577,-877,111000,39000,35000,1728674,
-5192,11224,-6504,-1101,-1626,-920,111000,39000,35000,1728676,
-5392,11304,-6712,-897,-1548,-911,111000,39000,35000,1728679,
-5672,11272,-6756,-816,-1685,-747,111000,39000,35000,1728691,
-5576,11400,-6648,-824,-1703,-757,111000,39000,35000,1728694,
-5600,11352,-6624,-709,-1615,-675,111000,39000,35000,1728696,
-5052,11196,-6704,-612,-1274,-690,111000,39000,35000,1728709,
-5280,11408,-6484,-425,-1123,-698,111000,39000,35000,1728711,
-5680,11536,-6748,-400,-735,-818,111000,39000,35000,1728724,
-5684,11560,-6584,-290,-661,-857,111000,39000,35000,1728726,
-5956,11540,-6732,-385,-633,-831,111000,39000,35000,1728729,
-5940,11580,-6784,-170,-610,-795,111000,39000,35000,1728741,
-5888,11772,-6760,-93,-574,-769,111000,39000,35000,1728744,
-5868,11600,-6876,-139,-638,-788,111000,39000,35000,1728746,
-5916,11532,-7016,135,-766,-959,111000,39000,35000,1728759,
-6056,11408,-7092,24,-886,-1059,111000,39000,35000,1728761,
-5948,11448,-7088,210,-866,-1055,111000,39000,35000,1728764,
-6408,11308,-7272,264,-1142,-1006,111000,39000,35000,1728776,
-6408,11428,-7308,328,-1177,-1061,111000,39000,35000,1728779,
-6240,11396,-7332,391,-1146,-1013,111000,39000,35000,1728781,
-6020,11480,-7356,534,-965,-904,111000,39000,35000,1728794,
-6200,11516,-7452,687,-824,-874,111000,39000,35000,1728796,
-6124,11612,-7436,584,-825,-897,111000,39000,35000,1728799,
-5980,11752,-7448,887,-383,-976,112000,39000,35000,1728811,
-6024,11620,-7344,830,-343,-994,112000,39000,35000,1728814,
-5964,11844,-7480,941,-226,-1028,112000,39000,35000,1728816,
-6516,11772,-7500,1093,124,-1039,112000,39000,35000,1728829,
-6388,11836,-7676,1031,63,-1094,112000,39000,35000,1728831,
-6536,11880,-7896,1141,121,-1073,112000,39000,35000,1728834,
-6804,12068,-7952,1161,151,-1068,112000,39000,35000,1728846,
-6756,12056,-7976,1313,248,-1079,112000,39000,35000,1728849,
-7004,11968,-8036,1205,212,-1037,112000,39000,35000,1728851,
-7012,11936,-8368,1406,392,-965,113000,39000,36000,1728864,
-6796,12044,-8404,1464,491,-923,113000,39000,36000,1728866,
-6952,11908,-8532,1419,483,-965,113000,39000,36000,1728869,
-7292,11908,-8536,1732,641,-826,113000,39000,36000,1728881,
-7240,11960,-8556,1617,566,-809,113000,39000,36000,1728884,
-7120,11980,-8492,1781,574,-749,113000,39000,36000,1728886,
-7192,12088,-8624,1740,151,-621,113000,39000,36000,1728899,
-6992,12068,-8672,1793,85,-628,113000,39000,36000,1728901,
-7168,12108,-8804,1764,29,-593,114000,39000,36000,1728904,
-6944,12044,-8928,1710,-156,-579,114000,39000,36000,1728916,
-6928,12012,-8984,1793,-71,-583,114000,39000,36000,1728918,
-7084,11964,-9048,1687,-107,-618,114000,39000,36000,1728921,
-6964,11972,-8988,1786,166,-666,114000,39000,36000,1728933,
-6916,11924,-9192,1597,143,-646,114000,39000,36000,1728936,
-7156,11888,-9192,1723,222,-612,114000,39000,36000,1728938,
-6980,11744,-9348,1509,309,-677,115000,39000,36000,1728951,
-6816,11720,-9372,1517,279,-723,115000,39000,36000,1728953,
-6824,11748,-9384,1488,320,-654,115000,39000,37000,1728956,
-7120,11684,-9732,1407,294,-798,115000,39000,37000,1728968,
-7132,11672,-9800,1480,321,-730,115000,39000,37000,1728971,
-7060,11808,-9976,1324,175,-779,115000,39000,37000,1728973,
-7200,11936,-9972,1383,-420,-785,115000,39000,37000,1728986,
-7476,11864,-9928,1254,-622,-820,115000,39000,37000,1728988,
-7324,11852,-9768,1332,-786,-821,115000,39000,37000,1728991,
-7200,11624,-9760,1098,-1352,-664,116000,39000,37000,1729003,
-7188,11548,-9788,1034,-1455,-725,116000,39000,37000,1729006,
-6996,11504,-9672,1075,-1412,-689,116000,39000,37000,1729008,
-6896,11404,-9680,742,-983,-740,116000,39000,37000,1729021,
-6884,11276,-9816,829,-792,-767,116000,39000,37000,1729023,
-6968,11284,-9692,631,-710,-765,116000,39000,37000,1729026,
-6972,11252,-9680,518,37,-717,116000,39000,37000,1729038,
-6856,11392,-9740,497,153,-678,116000,39000,37000,1729041,
-7000,11384,-9820,443,174,-707,116000,39000,37000,1729043,
-7380,11260,-9764,463,180,-576,116000,39000,37000,1729056,
-7260,11456,-9752,345,53,-579,116000,39000,37000,1729058,
-7188,11292,-9888,451,7,-523,116000,39000,37000,1729061,
-7556,11380,-9656,312,-586,-342,116000,39000,37000,1729073,
-7504,11480,-9724,409,-727,-286,116000,39000,37000,1729076,
-7276,11492,-9668,348,-826,-239,116000,39000,37000,1729078,
-6932,11528,-9796,298,-1061,-262,116000,39000,37000,1729091,
-6968,11520,-9620,378,-954,-224,116000,39000,37000,1729093,
-6900,11500,-9632,263,-957,-241,116000,39000,37000,1729096,
-6564,11300,-9488,335,-259,-293,117000,39000,37000,1729108,
-6636,11292,-9524,163,-207,-305,117000,39000,37000,1729111,
-6528,11356,-9584,295,-55,-346,117000,38000,37000,1729113,
-6872,11408,-9624,106,261,-406,117000,38000,37000,1729126,
-7008,11292,-9572,51,258,-481,117000,38000,37000,1729128,
-7104,11404,-9668,73,285,-440,117000,38000,37000,1729131,
-7388,11324,-9724,-62,-43,-377,117000,38000,37000,1729143,
-7476,11372,-9828,59,-102,-302,117000,38000,37000,1729146,
-7520,11408,-9656,-66,-289,-292,117000,38000,37000,1729148,
-7632,11380,-9776,52,-1067,-128,117000,38000,37000,1729161,
-7336,11412,-9816,-105,-1273,-84,117000,38000,37000,1729163,
-7488,11348,-10000,22,-1367,-85,117000,38000,37000,1729166,
-7072,11436,-9808,-73,-1783,-76,117000,38000,37000,1729178,
-7076,11448,-9752,-133,-1891,-152,117000,38000,37000,1729181,
-6992,11372,-9736,-139,-1878,-150,117000,38000,37000,1729183,
-6852,11392,-9736,-319,-2042,-348,117000,38000,37000,1729196,
-6892,11516,-9552,-231,-2056,-350,117000,38000,37000,1729198,
-6860,11364,-9624,-398,-2141,-430,117000,38000,37000,1729201,
-7308,11272,-9452,-460,-2098,-451,117000,38000,37000,1729213,
-7296,11228,-9508,-577,-2085,-416,117000,38000,37000,1729216,
-7108,11208,-9692,-506,-2113,-411,117000,38000,37000,1729218,
-6908,11160,-9420,-664,-1832,-310,117000,39000,37000,1729231,
-6828,11164,-9324,-688,-1771,-360,117000,39000,36000,1729233,
-7012,11164,-9188,-702,-1646,-323,117000,39000,36000,1729235,
-6816,11088,-9252,-784,-1372,-404,117000,39000,36000,1729248,
-6560,11136,-9164,-716,-1294,-380,117000,39000,36000,1729250,
-6780,11116,-9324,-783,-1342,-450,117000,39000,36000,1729252,
-7368,11200,-9112,-679,-1362,-473,116000,39000,36000,1729265,
-7268,11208,-8996,-841,-1491,-470,116000,39000,36000,1729267,
-7224,11136,-9076,-712,-1536,-438,116000,39000,36000,1729270,
-7444,11120,-8968,-778,-2422,-483,116000,39000,36000,1729282,
-7580,11072,-8824,-745,-2581,-496,116000,39000,36000,1729285,
-7912,11156,-8592,-723,-3147,-269,116000,39000,36000,1729298,
-7604,11184,-8700,-843,-3320,-247,116000,39000,36000,1729300,
-7612,11116,-8688,-750,-3335,-159,116000,39000,36000,1729302,
-7204,11304,-8420,-785,-3317,-252,116000,39000,35000,1729315,
-6936,11268,-8360,-684,-3158,-248,116000,39000,35000,1729318,
-6952,11116,-8508,-781,-3005,-235,116000,39000,35000,1729320,
-6680,10896,-8424,-759,-2018,-469,116000,39000,35000,1729333,
-6664,10980,-8444,-663,-1769,-444,116000,39000,35000,1729335,
-6724,10868,-8520,-746,-1707,-524,116000,39000,35000,1729337,
-7540,10952,-8200,-506,-1154,-623,116000,39000,35000,1729350,
-7584,11096,-8100,-641,-1190,-583,116000,39000,35000,1729353,
-7680,11144,-8104,-498,-1163,-570,115000,39000,35000,1729355,
-7900,11336,-8144,-481,-1755,-427,115000,39000,35000,1729368,
-8224,11252,-8076,-488,-1950,-476,115000,39000,35000,1729370,
-8236,11384,-8180,-428,-2077,-400,115000,39000,35000,1729373,
-8260,11380,-8212,-356,-2670,-252,115000,39000,35000,1729385,
-8180,11312,-8072,-227,-2636,-114,115000,39000,34000,1729388,
-8012,11268,-8168,-332,-2746,-112,115000,39000,34000,1729390,
-7536,11108,-8124,-139,-2682,-199,115000,39000,34000,1729403,
-7468,11144,-8032,-230,-2678,-268,115000,39000,34000,1729405,
-7556,11076,-8052,-95,-2625,-341,115000,39000,34000,1729408,
-7716,11276,-8180,-109,-2376,-441,115000,39000,34000,1729420,
-7644,11340,-8224,-182,-2396,-472,115000,39000,34000,1729423,
-7900,11296,-8204,-94,-2343,-445,115000,39000,34000,1729425,
-8016,11212,-8360,-118,-2238,-451,115000,39000,34000,1729438,
-8040,11224,-8044,-3,-2140,-450,115000,40000,34000,1729440,
-7808,11176,-8212,-80,-2084,-387,115000,40000,34000,1729443,
-7880,10940,-8200,-24,-1843,-424,115000,40000,33000,1729455,
-7844,10864,-8060,53,-1754,-404,115000,40000,33000,1729458,
-7880,10832,-8080,-2,-1806,-449,115000,40000,33000,1729460,
-7980,11016,-8068,117,-1817,-482,115000,40000,33000,1729473,
-8156,11112,-8020,-46,-1963,-488,115000,40000,33000,1729475,
-8188,11060,-8068,94,-2008,-503,115000,40000,33000,1729478,
-8484,11060,-8312,-94,-3007,-564,115000,40000,33000,1729490,
-8716,11040,-8220,-21,-3254,-598,114000,40000,33000,1729493,
-8748,11148,-8164,-126,-3412,-575,114000,40000,33000,1729495,
-8716,11080,-8268,-128,-4180,-375,114000,40000,32000,1729508,
-8788,10988,-8344,-39,-4127,-270,114000,40000,32000,1729510,
-8752,11052,-8236,-143,-4246,-261,114000,40000,32000,1729513,
-7716,10712,-8168,43,-3968,-266,114000,40000,32000,1729525,
-7740,10688,-8084,-144,-3980,-355,114000,40000,32000,1729528,
-7872,10680,-7976,-15,-3832,-395,114000,40000,32000,1729530,
-7912,10672,-8048,-174,-3592,-623,114000,40000,31000,1729543,
-7940,10724,-7960,-116,-3606,-703,114000,40000,31000,1729545,
-8068,10692,-7956,-215,-3645,-675,114000,40000,31000,1729547,
-8944,10408,-7984,-437,-4733,-807,113000,41000,31000,1729560,
-9128,10420,-7912,-391,-5056,-794,113000,41000,31000,1729562,
-9344,10360,-7692,-557,-5564,-849,113000,41000,31000,1729565,
-10060,10228,-7732,-765,-8856,-884,113000,41000,30000,1729578,
-10432,10224,-7780,-986,-9782,-850,112000,41000,29000,1729580,
-10508,10144,-7588,-952,-10580,-837,112000,41000,29000,1729582,
-10976,9984,-7464,-1630,-15452,-605,111000,42000,27000,1729595,
-11148,9916,-7364,-1660,-16410,-553,111000,42000,27000,1729597,
-10708,9416,-6940,-2299,-21454,-445,109000,43000,25000,1729610,
-10544,9372,-7020,-2519,-22440,-509,108000,43000,24000,1729612,
-10372,9376,-6988,-2600,-23296,-534,108000,43000,24000,1729615,
-9888,9132,-6272,-3462,-27603,-918,105000,44000,20000,1729627,
-9940,9084,-6544,-3469,-28273,-983,105000,44000,19000,1729630,
-9532,9124,-6080,-3743,-28954,-1093,104000,44000,19000,1729632,
-9232,9200,-5700,-4606,-31796,-1662,101000,45000,15000,1729645,
-9080,9160,-5680,-4785,-32086,-1723,100000,45000,14000,1729647,
-9108,9316,-5412,-4937,-32564,-1871,100000,45000,13000,1729650,
-8572,9204,-5216,-5906,-32768,-2515,96000,46000,9000,1729662,
-8704,9052,-4980,-6255,-32768,-2691,95000,46000,8000,1729665,
-8256,8892,-4652,-7107,-32768,-3431,91000,47000,3000,1729678,
-7904,9036,-4476,-7434,-32768,-3567,90000,47000,2000,1729680,
-7952,8936,-4480,-7566,-32768,-3758,90000,47000,1000,1729682,
-7432,9076,-4012,-8877,-32768,-5016,86000,47000,357000,1729695,
-7188,9140,-4028,-9281,-32768,-5579,85000,47000,356000,1729697,
-7060,9224,-4004,-9645,-32768,-6047,84000,47000,355000,1729700,
-7492,8764,-2144,-11246,-32768,-9466,79000,48000,350000,1729713,
-7900,8704,-1820,-11395,-32768,-9982,79000,48000,349000,1729715,
-8144,8544,-1348,-11802,-32768,-10594,78000,48000,348000,1729717,
-9824,8104,872,-13086,-32768,-12706,73000,48000,343000,1729730,
-10208,7948,1812,-13413,-32768,-12969,72000,48000,342000,1729732,
-11072,7772,2060,-13888,-32768,-14560,66000,49000,337000,1729745,
-11128,7792,2256,-13809,-32768,-14668,65000,49000,336000,1729747,
-10836,7420,2312,-13821,-32768,-15084,64000,49000,335000,1729750,
-8380,6364,2396,-13136,-32768,-19693,59000,49000,329000,1729763,
-8700,6576,2856,-12837,-32768,-20511,58000,49000,328000,1729765,
-8148,6744,3076,-12255,-32768,-21172,57000,49000,327000,1729767,
-9304,6440,1664,-10075,-32768,-22896,51000,49000,321000,1729780,
-9628,6448,1516,-9710,-32768,-22934,50000,49000,320000,1729783,
-14720,8432,-12944,-10937,-32768,-18365,45000,48000,315000,1729795,
-18436,7568,-9492,-11337,-32768,-18287,45000,48000,314000,1729798,
-13744,10236,-9460,-13444,-32768,-18356,44000,48000,313000,1729800,
-10896,8340,-4532,-13467,-32768,-12459,39000,46000,309000,1729813,
-10216,7924,-4064,-13911,-32768,-11665,39000,46000,308000,1729815,
-7252,7252,-384,-15369,-32768,-8253,35000,44000,305000,1729828,
-6828,6956,292,-15657,-32768,-7746,34000,44000,304000,1729830,
-6800,6836,744,-16242,-32768,-7198,33000,43000,304000,1729833,
-6040,5920,1952,-20208,-32768,-5322,30000,41000,301000,1729845,
-6052,5744,2224,-21067,-32768,-5079,29000,41000,300000,1729848,
-5940,5632,2384,-22051,-32768,-5017,28000,40000,300000,1729850,
-5292,5588,4072,-25677,-32768,-5200,24000,37000,298000,1729863,
-4800,5664,4404,-26170,-32768,-5391,24000,37000,297000,1729865,
-3376,5428,5592,-26512,-32768,-6562,20000,34000,295000,1729877,
-3104,5320,5908,-26421,-32768,-6709,19000,34000,295000,1729880,
-2912,5300,6756,-26336,-32768,-6972,19000,33000,294000,1729882,
-2296,4880,6804,-25181,-32768,-7063,15000,30000,293000,1729895,
-1980,4824,9000,-25139,-32768,-7181,15000,30000,292000,1729897,
-1700,4460,9568,-25021,-32768,-7182,14000,29000,292000,1729899,
52,3844,11724,-25123,-32768,-5688,11000,26000,291000,1729912,
-436,2688,13424,-25002,-32768,-5380,11000,25000,290000,1729914,
2568,1988,12380,-25543,-32768,-3892,8000,22000,289000,1729927,
2752,2200,11972,-25794,-32768,-3674,7000,22000,289000,1729929,
3024,1700,12900,-25474,-32768,-3439,7000,21000,289000,1729932,
5484,1272,13336,-24031,-32768,-2257,4000,18000,288000,1729944,
5496,984,14196,-23214,-32768,-2118,4000,17000,288000,1729947,
4424,968,13800,-22651,-32768,-1876,3000,16000,288000,1729949,
5708,492,13000,-20041,-24565,-1465,1000,14000,288000,1729962,
6480,356,13192,-19837,-23989,-1500,1000,13000,288000,1729964,
7432,268,13480,-19665,-23597,-1445,1000,13000,288000,1729966,
7468,0,17468,-19624,-23912,614,0,10000,288000,1729979,
7428,-488,17016,-19789,-23709,1124,-1000,10000,288000,1729981,
9908,-528,18224,-19857,-22343,1152,-1000,9000,288000,1729983,
9332,-1184,20252,-20407,-12846,1113,-3000,8000,288000,1729996,
9320,-1420,20768,-20478,-10154,1456,-3000,8000,288000,1729998,
8944,-1884,21364,-20577,-8122,1604,-4000,8000,288000,1730001,
10020,-3384,21540,-19955,2016,1737,-6000,8000,288000,1730013,
9720,-3552,21884,-19689,3618,1546,-6000,8000,288000,1730016,
9648,-5276,21572,-15729,11011,-133,-8000,8000,288000,1730028,
9224,-5484,20928,-14928,11785,-484,-8000,9000,288000,1730031,
8632,-5988,20660,-14178,12346,-883,-8000,9000,288000,1730033,
3688,-5440,18336,-11420,15119,-2152,-9000,10000,288000,1730045,
2408,-4772,18028,-11324,15621,-2246,-10000,10000,288000,1730048,
1748,-4600,17944,-11060,16238,-2264,-10000,11000,288000,1730050,
-2544,-2944,18428,-11768,15353,-1897,-11000,12000,287000,1730063,
-2760,-2796,18904,-11784,14997,-1768,-11000,12000,287000,1730065,
-3320,-3808,22280,-9153,12445,-604,-12000,13000,287000,1730078,
-2640,-4480,22288,-8488,11735,-525,-12000,14000,287000,1730080,
-2512,-5000,21824,-7785,11084,-423,-12000,14000,287000,1730082,
-1892,-6836,20232,-6692,8977,-936,-13000,14000,286000,1730095,
-1676,-6744,20084,-6489,8930,-1102,-13000,15000,286000,1730097,
-1524,-6760,19876,-6537,8731,-1340,-14000,15000,286000,1730100,
-1452,-5320,18732,-6350,7609,-2295,-14000,15000,286000,1730112,
-1876,-5048,18396,-6540,7163,-2394,-14000,15000,286000,1730114,
-2048,-3232,17352,-7098,5688,-2613,-15000,16000,285000,1730127,
-1972,-3020,17352,-7134,5550,-2595,-15000,16000,285000,1730129,
-1780,-2948,16980,-7310,5394,-2642,-15000,16000,285000,1730132,
-4764,-2404,14824,-9364,6465,-2019,-16000,17000,285000,1730144,
-5848,-2612,18632,-10491,4049,-2073,-17000,17000,285000,1730147,
-6576,-3500,22416,-11038,1912,-1722,-17000,17000,285000,1730149,
-4688,-9600,32767,-3642,-523,21,-17000,17000,285000,1730162,
-4024,-11772,32767,2602,2505,1538,-17000,17000,285000,1730164,
4452,-22340,32767,18970,12278,1327,-15000,18000,284000,1730177,
1800,-24916,32767,17948,13309,1177,-15000,18000,284000,1730179,
2048,-24920,32767,16440,11806,928,-15000,18000,284000,1730181,
156,-16156,32767,6969,6886,-912,-14000,18000,284000,1730194,
-1348,-13132,30884,5436,7673,-969,-14000,19000,284000,1730196,
-2120,-10312,26916,4315,9686,-1012,-14000,19000,284000,1730199,
-3540,3500,15424,237,12844,973,-14000,20000,284000,1730211,
-4180,4300,17584,-672,11253,1333,-14000,20000,284000,1730213,
-4940,5772,19284,-782,10177,1923,-14000,20000,284000,1730216,
-7748,8876,17736,596,8976,4376,-14000,21000,284000,1730228,
-5764,9772,14996,621,9439,4196,-14000,21000,284000,1730231,
-6276,8572,15088,497,8983,4427,-14000,22000,284000,1730233,
-3612,3172,7616,-5607,2554,2321,-14000,22000,284000,1730246,
-3752,1728,5700,-7518,1574,1750,-14000,22000,284000,1730248,
-3328,1040,4760,-9736,1300,1251,-14000,22000,284000,1730250,
-184,-4608,20064,-8670,-1176,-1243,-15000,22000,284000,1730263,
804,-2712,14912,-7282,-2461,-1559,-15000,22000,284000,1730265,
-864,-9864,8800,-2591,-2173,-3098,-16000,21000,284000,1730278,
-1052,-10456,10360,-3300,-2003,-3252,-16000,21000,284000,1730280,
-1768,-10640,12764,-3115,-1848,-3210,-16000,21000,284000,1730282,
-4384,-7548,14088,-589,384,-1561,-16000,21000,284000,1730295,
-4708,-7044,13748,-7,119,-1144,-16000,21000,284000,1730297,
-4976,-5912,13304,183,-221,-662,-16000,21000,284000,1730300,
-4880,-3172,13752,1398,-1175,1386,-16000,21000,284000,1730312,
-4140,-2876,14028,1672,-1243,1687,-16000,21000,284000,1730315,
-3928,-2708,14044,1841,-1530,1738,-16000,21000,284000,1730317,
-988,-2488,14088,1955,-2643,897,-15000,21000,284000,1730330,
-756,-2608,14208,1681,-2724,483,-15000,21000,284000,1730332,
-440,-2696,14260,1732,-2669,101,-15000,21000,284000,1730335,
196,-3628,15640,1687,-2318,-1924,-15000,20000,284000,1730347,
-268,-3808,16136,1808,-2211,-2120,-15000,20000,284000,1730349,
-1444,-3800,17104,938,-2008,-2141,-15000,20000,284000,1730362,
-1728,-3616,17404,840,-1980,-2005,-15000,20000,284000,1730364,
-2252,-3464,17408,584,-2123,-1709,-15000,20000,284000,1730367,
-3068,-3112,20704,-838,-2707,-62,-15000,19000,284000,1730379,
-3228,-3176,20768,-942,-2519,248,-15000,19000,284000,1730382,
-4064,-2844,19924,-651,-4890,145,-15000,19000,284000,1730384,
-1388,-4808,20132,-1391,-1923,367,-15000,19000,284000,1730397,
-908,-5212,18972,-1333,-1854,97,-15000,19000,284000,1730399,
-96,-5360,18764,-967,-1738,-61,-15000,19000,284000,1730401,
804,-5232,15804,-639,-638,-1153,-15000,19000,284000,1730414,
920,-4928,15664,-394,-336,-1201,-15000,19000,284000,1730416,
860,-4752,15544,-406,-153,-1229,-15000,18000,284000,1730418,
244,-3100,14160,-135,1410,-651,-15000,18000,284000,1730431,
120,-3000,14048,-266,1681,-424,-15000,18000,284000,1730433,
-216,-2740,13776,-268,2038,-285,-15000,18000,284000,1730436,
-956,-2612,13548,-588,3032,513,-15000,19000,284000,1730448,
-1308,-2664,13620,-673,3041,539,-16000,19000,284000,1730450,
-1340,-2800,13844,-646,3036,623,-16000,19000,284000,1730453,
-2412,-3424,14756,-722,2236,492,-16000,19000,284000,1730466,
-2780,-3628,14920,-580,2085,390,-16000,19000,284000,1730468,
-2708,-3828,15160,-684,1784,357,-16000,19000,284000,1730470,
-3016,-4300,16556,-303,599,-271,-16000,19000,284000,1730483,
-3176,-4360,16672,-326,351,-326,-16000,19000,284000,1730485,
-3144,-4564,17224,-216,-871,-681,-16000,19000,284000,1730498,
-3184,-4560,17244,-115,-1018,-658,-16000,19000,284000,1730500,
-3120,-4392,17288,-208,-1226,-717,-16000,19000,284000,1730502,
-2220,-4016,16936,-30,-1718,-523,-16000,18000,284000,1730515,
-1964,-3840,16656,-165,-1786,-498,-16000,18000,284000,1730517,
-1836,-3804,16548,-21,-1742,-443,-16000,18000,284000,1730520,
-840,-3508,15968,-162,-1462,-334,-16000,18000,284000,1730532,
-484,-3436,15752,-87,-1313,-388,-16000,18000,284000,1730535,
-400,-3484,15596,-205,-1171,-390,-16000,18000,284000,1730537,
8,-3520,15340,-331,-202,-498,-16000,18000,284000,1730549,
-236,-3488,15268,-337,-12,-446,-16000,18000,284000,1730552,
-184,-3488,15408,-377,107,-502,-16000,18000,284000,1730554,
-848,-3856,15452,-459,818,-354,-16000,18000,284000,1730567,
-884,-3892,15700,-526,827,-392,-16000,18000,284000,1730569,
-1120,-4004,15788,-483,943,-291,-16000,18000,284000,1730571,
-1600,-4104,16040,-477,831,-181,-16000,18000,283000,1730584,
-1828,-4124,16120,-310,837,-151,-16000,18000,283000,1730586,
-1812,-4128,16076,-404,707,-155,-16000,18000,283000,1730588,
-2060,-4040,16272,-137,329,-106,-16000,18000,283000,1730601,
-2088,-3904,16240,-250,208,-122,-16000,18000,283000,1730603,
-1872,-3736,15964,-125,-57,-250,-16000,18000,283000,1730616,
-1764,-3668,16052,-184,-104,-232,-16000,18000,283000,1730618,
-1680,-3644,16024,-189,-146,-277,-16000,18000,283000,1730620,
-1436,-3592,15996,-236,-149,-260,-16000,18000,283000,1730633,
-1576,-3520,15840,-350,-183,-279,-16000,18000,283000,1730635,
-1620,-3648,15960,-280,-138,-258,-16000,18000,283000,1730638,
-1384,-3784,15840,-422,-95,-273,-16000,17000,283000,1730650,
-1404,-3784,16024,-287,-29,-242,-16000,17000,283000,1730652,
-1416,-3852,15884,-428,-56,-289,-16000,17000,283000,1730655,
-1508,-3992,15876,-297,45,-202,-16000,17000,283000,1730667,
-1308,-3944,15948,-404,-5,-166,-16000,17000,283000,1730670,
-1360,-3988,16068,-270,71,-175,-16000,17000,283000,1730672,
-1524,-3956,16012,-358,25,-105,-16000,17000,283000,1730685,
-1436,-3756,15912,-321,36,-93,-16000,17000,283000,1730687,
-1488,-3728,15980,-357,51,-71,-16000,17000,283000,1730690,
-1360,-3700,16028,-371,81,-28,-16000,17000,283000,1730702,
-1384,-3668,16196,-406,29,-64,-16000,17000,283000,1730704,
-1436,-3548,16240,-415,69,-38,-16000,17000,283000,1730707,
-1368,-3588,16040,-548,91,-65,-16000,17000,283000,1730719,
-1552,-3696,16156,-467,189,-43,-16000,17000,283000,1730722,
-1440,-3564,16040,-586,125,-80,-16000,17000,283000,1730724,
-1404,-3656,16112,-466,282,-66,-16000,17000,283000,1730736,
-1308,-3752,16072,-645,205,-73,-16000,17000,283000,1730739,
-1284,-3788,16036,-512,287,-28,-16000,17000,283000,1730741,
-1552,-3916,15944,-607,191,-39,-16000,17000,283000,1730754,
-1544,-3892,15788,-495,233,-27,-16000,17000,283000,1730756,
-1620,-3928,15924,-573,209,-24,-16000,17000,283000,1730758,
-1512,-3868,15852,-504,150,-19,-16000,17000,283000,1730771,
-1436,-3764,15904,-527,164,20,-16000,17000,283000,1730773,
-1660,-3860,15776,-497,135,-11,-16000,17000,283000,1730776,
-1652,-3756,15944,-419,157,52,-16000,17000,283000,1730788,
-1400,-3648,15884,-510,72,-5,-16000,17000,283000,1730791,
