Ax,Ay,Az,Gx,Gy,Gz,Roll,Pitch,Yaw,Timestamp,Target
988,1232,16684,51,91,41,5000,-3000,80000,279305,
1060,1116,16716,46,72,75,5000,-3000,80000,279317,
964,1200,16612,77,74,71,5000,-3000,80000,279320,
1076,1236,16664,90,77,56,5000,-3000,80000,279322,
1012,1240,16640,82,79,73,5000,-3000,80000,279324,
960,1288,16536,54,44,96,5000,-3000,80000,279336,
996,1180,16600,73,40,81,5000,-3000,80000,279339,
1064,1260,16604,45,53,99,5000,-3000,80000,279341,
1148,1288,16572,46,2,64,5000,-3000,80000,279343,
1088,1196,16736,18,-77,61,5000,-3000,80000,279356,
968,1112,16808,32,-62,76,5000,-3000,80000,279358,
1080,1060,16784,34,-68,65,5000,-3000,80000,279360,
1016,1128,16692,29,-80,93,5000,-3000,80000,279362,
1292,1176,16580,42,28,88,5000,-3000,80000,279375,
1264,1268,16620,60,37,92,5000,-3000,80000,279377,
1240,1236,16664,63,53,92,5000,-3000,80000,279379,
1156,1236,16580,56,69,130,5000,-3000,80000,279392,
1020,1316,16656,60,31,132,5000,-3000,80000,279394,
1164,1080,16500,58,3,152,5000,-3000,80000,279401,
1080,1044,16588,65,34,142,5000,-3000,80000,279404,
1144,1244,16384,56,12,133,5000,-3000,80000,279406,
1216,1160,16680,53,9,149,5000,-3000,80000,279408,
1264,1192,16604,57,43,111,5000,-3000,80000,279421,
1172,1164,16476,43,58,135,5000,-3000,80000,279423,
1180,1204,16480,37,70,130,5000,-3000,80000,279425,
1120,1100,16532,63,64,137,5000,-3000,80000,279428,
1192,1184,16584,46,59,154,5000,-3000,80000,279440,
1184,1248,16564,18,24,118,5000,-3000,80000,279443,
1160,1232,16732,17,26,144,5000,-3000,80000,279445,
1232,1312,16652,10,17,142,5000,-3000,80000,279447,
1368,1196,16664,6,13,110,5000,-3000,80000,279460,
1236,1104,16568,-20,-19,126,5000,-3000,80000,279462,
1276,1292,16564,-32,18,102,5000,-3000,80000,279464,
1328,1144,16480,-72,-30,68,5000,-3000,80000,279476,
1332,1212,16732,-33,-24,43,5000,-3000,80000,279479,
1380,1284,16680,-67,-24,65,5000,-3000,80000,279481,
1252,1152,16600,-49,-2,19,5000,-3000,80000,279483,
1296,1152,16720,-43,90,-13,5000,-3000,80000,279496,
1256,1140,16816,-41,120,-18,5000,-3000,80000,279498,
1244,1068,16816,-44,116,-24,5000,-3000,80000,279500,
1264,1092,16728,12,178,-20,5000,-3000,80000,279513,
1248,1080,16780,14,176,-27,5000,-3000,80000,279515,
1280,1068,16788,36,188,-7,5000,-3000,80000,279517,
1220,1016,16720,33,194,-21,5000,-3000,80000,279520,
1128,1152,16784,8,124,-4,5000,-3000,80000,279532,
1036,1236,16640,15,81,27,5000,-3000,80000,279534,
1136,1220,16704,1,82,1,5000,-3000,80000,279537,
1140,1124,16604,5,71,6,5000,-3000,80000,279539,
1216,1220,16688,-43,-36,6,5000,-3000,80000,279552,
1192,1212,16680,-53,-33,15,5000,-3000,80000,279554,
1220,1344,16676,-70,-50,2,5000,-3000,80000,279556,
1204,1240,16636,-63,-38,27,5000,-3000,80000,279558,
1180,1204,16728,-90,-9,-7,5000,-3000,80000,279571,
1180,1140,16848,-109,-29,-18,5000,-3000,80000,279573,
1168,1224,16908,-80,-8,-16,5000,-3000,80000,279575,
1048,1188,16708,-50,58,-7,5000,-3000,80000,279588,
1088,1140,16648,-38,90,-47,5000,-3000,80000,279590,
1208,1156,16612,-34,107,-14,5000,-3000,80000,279592,
1136,1096,16720,-29,90,-19,5000,-3000,80000,279595,
1192,1160,16688,9,84,-26,5000,-3000,80000,279607,
1220,1080,16664,8,103,-18,5000,-3000,80000,279609,
1216,1160,16636,9,73,-17,5000,-3000,80000,279612,
1240,1024,16604,6,93,-38,5000,-3000,80000,279614,
1156,1072,16820,47,173,-44,5000,-3000,80000,279626,
1256,952,16852,54,198,-50,5000,-3000,80000,279629,
1128,1096,16724,60,243,-43,5000,-3000,80000,279631,
996,952,16920,71,284,-33,5000,-3000,80000,279643,
1052,948,16832,80,271,-38,5000,-3000,80000,279646,
1024,1048,16956,98,294,-33,5000,-3000,80000,279648,
908,996,16888,90,296,-54,5000,-3000,80000,279650,
984,1092,16988,155,269,-24,5000,-3000,80000,279663,
1116,1060,16764,132,258,1,5000,-3000,80000,279668,
1100,1228,16736,132,233,22,5000,-3000,80000,279671,
988,1136,16868,127,211,-5,5000,-3000,80000,279673,
964,1200,16880,127,197,31,5000,-3000,80000,279675,
956,1204,16680,98,76,39,5000,-3000,80000,279688,
1056,1116,16848,88,58,61,5000,-3000,80000,279690,
848,1184,16716,83,32,20,5000,-3000,80000,279692,
1060,1100,16836,55,-2,29,5000,-3000,80000,279695,
1056,1164,16752,38,-66,9,5000,-3000,80000,279707,
1112,1080,16968,35,-37,16,5000,-3000,80000,279709,
1092,1172,16880,59,-8,20,5000,-3000,80000,279712,
1084,1036,16928,62,-2,10,5000,-3000,80000,279714,
1036,1100,16960,118,96,3,5000,-3000,80000,279726,
1052,1048,16968,140,89,-16,5000,-3000,80000,279729,
996,1084,16840,133,116,14,5000,-3000,80000,279731,
1000,1164,16868,155,127,6,5000,-3000,80000,279733,
996,1204,16732,178,114,-22,5000,-3000,80000,279746,
1108,1208,16564,185,127,-1,5000,-3000,80000,279748,
1168,1220,16564,190,110,-8,5000,-3000,80000,279750,
968,1116,16832,190,32,10,5000,-3000,80000,279763,
1040,1120,16776,163,19,24,5000,-3000,80000,279765,
928,1156,16888,180,20,36,5000,-3000,80000,279767,
1044,1120,16664,147,-16,24,5000,-3000,80000,279770,
1016,1072,16820,164,-31,13,5000,-3000,80000,279782,
1004,1140,16752,162,-17,29,5000,-3000,80000,279784,
1004,1144,16764,167,5,44,5000,-3000,80000,279787,
1020,1152,16744,169,-34,52,5000,-3000,80000,279789,
888,992,16840,169,3,64,5000,-3000,80000,279801,
1140,1128,16720,166,23,61,5000,-3000,80000,279804,
1072,1144,16576,190,42,87,5000,-3000,80000,279806,
1132,1108,16596,190,65,70,5000,-3000,80000,279809,
1112,1220,16632,163,65,78,5000,-3000,80000,279821,
1068,1220,16716,138,36,72,5000,-3000,80000,279823,
1168,1268,16632,114,17,67,5000,-3000,80000,279826,
992,1116,16580,104,-108,60,5000,-3000,80000,279838,
1056,1164,16772,92,-101,39,5000,-3000,80000,279840,
1000,1136,16632,87,-129,44,5000,-3000,80000,279843,
952,976,16756,87,-135,28,5000,-3000,80000,279845,
984,956,16816,137,-58,-25,5000,-3000,80000,279857,
980,1068,16692,148,-42,-7,5000,-3000,80000,279860,
1000,1064,16644,167,-7,5,5000,-3000,80000,279862,
1148,1100,16744,188,-10,5,5000,-3000,80000,279864,
1096,1180,16612,217,138,5,5000,-3000,80000,279877,
1108,1200,16700,196,172,10,5000,-3000,80000,279879,
1060,1184,16732,219,176,8,5000,-3000,80000,279881,
1036,1144,16744,214,189,57,5000,-3000,80000,279894,
1144,1124,16664,227,180,69,5000,-3000,80000,279896,
1032,1176,16672,203,193,51,5000,-3000,80000,279898,
1180,1156,16652,220,170,89,5000,-3000,80000,279901,
936,1164,16784,201,15,81,5000,-3000,80000,279913,
976,1096,16716,186,14,87,5000,-3000,80000,279915,
940,1196,16712,184,-6,86,5000,-3000,80000,279917,
964,1220,16696,178,-11,78,5000,-3000,80000,279920,
908,1196,16620,146,-62,63,5000,-3000,80000,279932,
1008,1064,16720,143,-58,63,5000,-3000,80000,279935,
1084,1104,16728,159,-68,63,5000,-3000,80000,279937,
1080,1156,16696,152,-33,37,5000,-3000,80000,279949,
1144,1040,16508,158,-23,39,5000,-3000,80000,279952,
1180,1080,16712,144,-21,47,5000,-3000,80000,279954,
1052,1128,16568,136,-35,26,5000,-3000,80000,279956,
1204,1016,16448,127,13,18,5000,-3000,80000,279969,
1056,1140,16508,117,8,-4,5000,-3000,80000,279971,
1124,1264,16532,106,28,11,5000,-3000,80000,279973,
1208,1168,16496,126,30,22,5000,-3000,80000,279976,
1212,1184,16608,85,15,3,5000,-3000,80000,279988,
1280,1220,16560,83,27,2,5000,-3000,80000,279990,
1292,1240,16684,70,31,-24,5000,-3000,80000,279993,
1220,1180,16536,81,18,-11,5000,-3000,80000,279995,
1140,1016,16704,103,15,-36,5000,-3000,80000,280007,
1100,1108,16672,69,-3,-56,5000,-3000,80000,280010,
1148,1208,16848,102,7,-29,5000,-3000,80000,280012,
1100,1120,16688,102,-48,-60,5000,-3000,80000,280024,
1204,1144,16640,89,-29,-46,5000,-3000,80000,280027,
1092,1104,16456,75,-66,-80,5000,-3000,80000,280029,
1168,1148,16560,85,-60,-58,5000,-3000,80000,280031,
1156,1192,16772,40,-48,-100,5000,-3000,80000,280044,
1112,1064,16628,41,-60,-73,5000,-3000,80000,280046,
1248,1184,16460,37,-68,-108,5000,-3000,80000,280048,
1316,1252,16660,42,-19,-139,5000,-3000,80000,280061,
1320,1364,16588,58,19,-124,5000,-3000,80000,280063,
1248,1288,16680,26,33,-142,5000,-3000,80000,280065,
1184,1160,16544,36,15,-160,5000,-3000,80000,280067,
1064,1124,16584,23,-53,-128,5000,-3000,80000,280108,
996,1160,16596,21,-87,-126,5000,-3000,80000,280110,
1008,1124,16760,-6,-109,-133,5000,-3000,80000,280112,
1012,1152,16660,-3,-114,-128,5000,-3000,80000,280115,
1152,1136,16484,-12,-89,-144,5000,-3000,80000,280127,
1232,1096,16456,-19,-37,-144,5000,-3000,80000,280129,
1176,1116,16552,-28,-26,-122,5000,-3000,80000,280132,
1236,1088,16380,-27,160,-140,5000,-3000,80000,280144,
1248,1216,16452,-34,197,-150,5000,-3000,80000,280146,
1252,1128,16324,-49,232,-149,5000,-3000,80000,280149,
1224,1188,16352,-38,219,-152,5000,-3000,80000,280151,
968,1252,16440,-43,231,-142,5000,-3000,80000,280163,
976,1104,16488,-69,187,-165,5000,-3000,80000,280166,
980,1212,16508,-78,146,-167,5000,-3000,80000,280168,
948,1236,16496,-123,12,-162,5000,-3000,80000,280180,
988,1212,16532,-143,-10,-131,5000,-3000,80000,280183,
1084,1220,16532,-163,-58,-174,5000,-3000,80000,280185,
1040,1128,16456,-172,-44,-147,5000,-3000,80000,280187,
1004,1160,16544,-222,-126,-166,5000,-3000,80000,280200,
1060,1088,16704,-194,-119,-151,5000,-3000,80000,280202,
1088,1192,16524,-230,-124,-189,5000,-3000,80000,280204,
1068,1016,16596,-213,-9,-196,5000,-3000,80000,280217,
1228,1016,16608,-213,26,-190,5000,-3000,80000,280219,
1148,992,16548,-193,50,-206,5000,-3000,80000,280221,
1048,1076,16832,-195,166,-226,5000,-3000,80000,280234,
984,1028,16696,-188,183,-200,5000,-3000,80000,280236,
1000,908,16636,-178,229,-209,5000,-3000,80000,280238,
944,972,16720,-193,218,-218,5000,-3000,80000,280241,
820,1040,16892,-163,113,-195,5000,-3000,80000,280253,
804,1184,16836,-153,119,-212,5000,-3000,80000,280255,
856,1116,16908,-163,93,-186,5000,-3000,80000,280257,
820,1140,17012,-158,-12,-161,5000,-3000,80000,280270,
908,1132,16948,-136,-55,-132,5000,-3000,80000,280272,
780,1184,16872,-131,-54,-131,5000,-3000,80000,280274,
860,1212,16980,-136,-31,-98,5000,-3000,80000,280277,
868,1196,16904,-118,-10,-64,5000,-3000,80000,280289,
772,1288,17104,-106,22,-59,5000,-3000,80000,280291,
780,1192,16988,-110,34,-86,5000,-3000,80000,280294,
612,1300,16992,-91,-4,-40,5000,-3000,80000,280306,
496,1332,17164,-110,-10,-10,5000,-3000,80000,280309,
456,1348,17244,-100,14,6,5000,-3000,80000,280311,
480,1444,17028,-111,-33,-10,5000,-3000,80000,280313,
136,1492,17140,-134,-38,38,5000,-3000,80000,280326,
144,1476,17216,-126,-64,60,5000,-3000,80000,280328,
0,1632,17356,-129,-62,69,5000,-3000,80000,280330,
0,1516,17316,-130,-57,97,5000,-3000,80000,280332,
-372,1696,17300,-126,-143,194,5000,-3000,80000,280345,
-480,1744,17496,-164,-187,219,5000,-3000,80000,280347,
-648,1700,17544,-158,-210,228,5000,-3000,80000,280350,
-972,1720,17612,-63,-279,483,5000,-3000,80000,280362,
-940,1740,17944,-46,-285,522,5000,-3000,80000,280364,
-880,1688,17708,-15,-282,600,5000,-3000,80000,280367,
-1000,1636,17684,25,-288,661,5000,-3000,80000,280369,
-1264,1776,17804,246,-154,1023,5000,-3000,80000,280382,
-1240,1740,17788,296,-183,1104,5000,-3000,80000,280384,
-1432,1892,17832,335,-130,1161,5000,-3000,80000,280386,
-1808,2012,17624,526,-90,1589,5000,-3000,80000,280399,
-1868,1852,17408,554,-93,1692,5000,-3000,80000,280401,
-2020,1952,17620,564,-98,1778,5000,-3000,80000,280403,
-2348,2072,17552,610,-75,2208,5000,-3000,81000,280416,
-2304,2012,17440,611,-79,2282,5000,-3000,81000,280418,
-2376,2060,17300,643,-64,2364,5000,-3000,81000,280420,
-2588,1960,17356,808,96,2818,5000,-3000,81000,280432,
-2664,2120,17568,837,151,2938,5000,-3000,81000,280435,
-2708,2048,17424,860,198,3014,5000,-3000,81000,280437,
-3028,2460,17440,975,534,3481,5000,-3000,81000,280449,
-3104,2444,17260,981,586,3573,5000,-3000,81000,280452,
-3124,2504,17172,1005,599,3677,5000,-3000,81000,280454,
-3472,2424,17240,1055,612,4240,5000,-2000,82000,280466,
-3480,2564,17368,1077,567,4320,5000,-2000,82000,280469,
-3584,2464,17084,1065,556,4426,5000,-2000,82000,280471,
-3804,2416,17008,1077,383,4955,5000,-2000,82000,280483,
-3900,2568,16908,1089,319,5071,5000,-2000,83000,280486,
-3836,2620,16784,1070,252,5164,5000,-2000,83000,280488,
-4336,2564,16772,909,-350,5621,5000,-2000,83000,280500,
-4200,2652,16876,867,-506,5725,5000,-2000,83000,280503,
-4344,2500,16836,810,-706,5787,5000,-2000,83000,280505,
-4236,2560,17368,622,-1578,6356,5000,-2000,84000,280518,
-4228,2440,17256,602,-1738,6453,5000,-2000,84000,280520,
-4092,2436,17188,600,-1819,6593,5000,-2000,84000,280522,
-3564,2016,17400,650,-2173,7244,6000,-3000,85000,280535,
-3488,2084,17360,651,-2202,7357,6000,-3000,85000,280537,
-3444,2072,17360,665,-2204,7476,6000,-3000,85000,280539,
-3244,1980,17124,748,-2256,8117,6000,-3000,86000,280552,
-3100,1952,16924,771,-2244,8246,6000,-3000,86000,280554,
-3056,1848,16972,776,-2239,8346,6000,-3000,86000,280556,
-2960,1720,16944,848,-2260,8884,6000,-3000,87000,280569,
-2896,1684,16796,866,-2256,8967,6000,-3000,87000,280571,
-2940,1708,16752,874,-2253,9077,6000,-3000,87000,280573,
-2732,1660,16672,985,-2223,9655,6000,-4000,88000,280586,
-2544,1528,16784,987,-2189,9784,6000,-4000,88000,280588,
-2516,1448,16828,996,-2210,9848,6000,-4000,89000,280590,
-2648,1084,17008,1051,-2263,10438,6000,-4000,89000,280603,
-2616,1060,16944,1026,-2292,10535,6000,-4000,90000,280605,
-2700,956,17108,1048,-2381,10632,6000,-4000,90000,280607,
-2444,612,17240,1098,-2793,11130,6000,-4000,91000,280620,
-2456,552,17192,1122,-2872,11247,6000,-4000,91000,280622,
-2368,616,17468,1146,-2913,11343,6000,-4000,91000,280624,
-1616,340,17228,1334,-3156,11872,6000,-5000,92000,280637,
-1672,348,17316,1378,-3158,11973,6000,-5000,93000,280639,
-1480,404,17180,1436,-3181,12107,6000,-5000,93000,280641,
-916,328,17052,1621,-3215,12718,6000,-5000,94000,280654,
-904,220,17264,1681,-3181,12783,6000,-5000,94000,280656,
-824,108,17168,1720,-3202,12893,6000,-5000,94000,280658,
-360,-348,17140,2019,-3194,13446,6000,-6000,96000,280671,
-372,-456,17112,2083,-3189,13522,6000,-6000,96000,280673,
-180,-604,17076,2178,-3102,13594,6000,-6000,96000,280675,
432,-964,17016,2631,-2642,14101,6000,-6000,97000,280688,
552,-1052,16824,2723,-2524,14186,6000,-6000,98000,280690,
728,-1108,16792,2821,-2373,14295,6000,-6000,98000,280692,
1184,-984,16904,3211,-1553,14767,6000,-7000,99000,280705,
1124,-1108,16844,3267,-1443,14837,6000,-7000,100000,280707,
1148,-904,16928,3355,-1333,14928,6000,-7000,100000,280710,
1252,-1132,17276,3623,-1046,15471,6000,-7000,101000,280722,
1336,-1152,17276,3698,-1055,15566,6000,-7000,102000,280724,
1404,-1312,17316,3726,-1045,15665,6000,-7000,102000,280727,
1760,-1992,16912,4233,-854,16288,6000,-7000,103000,280739,
1980,-2108,17060,4338,-798,16366,6000,-7000,104000,280741,
1956,-2164,17044,4441,-730,16465,6000,-7000,104000,280744,
2164,-2632,16724,4917,-330,16928,6000,-8000,106000,280756,
2228,-2676,16560,5019,-288,16990,6000,-8000,106000,280758,
2216,-2728,16384,5112,-251,17085,6000,-8000,106000,280761,
2696,-3000,15924,5616,43,17372,7000,-8000,108000,280773,
2756,-2856,15972,5625,122,17405,7000,-8000,108000,280776,
2920,-2720,15840,5740,232,17450,7000,-8000,109000,280778,
3412,-1924,16100,5974,747,17523,7000,-8000,110000,280790,
3460,-1668,15984,6000,873,17504,7000,-8000,111000,280793,
3744,-1592,16076,6010,945,17495,7000,-8000,111000,280795,
3892,-1068,16384,6024,1418,17544,7000,-8000,113000,280807,
3996,-1068,16352,6002,1484,17557,7000,-8000,113000,280809,
3896,-1040,16468,5988,1513,17563,7000,-8000,113000,280812,
3904,-1136,16576,5850,1559,17622,7000,-9000,115000,280824,
3964,-1348,16456,5815,1553,17626,8000,-9000,115000,280826,
3876,-1392,16552,5803,1531,17635,8000,-9000,116000,280829,
4164,-1328,16540,5635,1280,17623,8000,-9000,117000,280841,
4280,-1312,16400,5598,1219,17574,8000,-9000,118000,280844,
4300,-1184,16416,5557,1163,17560,8000,-9000,118000,280846,
4616,-868,16168,5281,601,17251,8000,-9000,120000,280858,
4628,-796,16152,5217,449,17202,8000,-9000,120000,280861,
4764,-716,16184,5158,312,17110,8000,-9000,120000,280863,
5152,-424,16280,4692,-483,16653,8000,-9000,122000,280875,
5260,-256,16516,4623,-636,16522,8000,-9000,122000,280878,
5304,-304,16276,4538,-825,16418,8000,-10000,122000,280880,
5444,-384,16560,4143,-1570,15863,8000,-10000,124000,280892,
5680,-336,16340,4073,-1651,15781,8000,-10000,124000,280895,
5672,-576,16472,4012,-1737,15666,8000,-10000,124000,280897,
6508,-544,16380,3822,-1904,14871,8000,-11000,126000,280910,
6724,-580,16128,3791,-1905,14674,8000,-11000,126000,280912,
7044,-608,16140,3772,-1850,14511,8000,-11000,126000,280914,
7704,-400,15712,3677,-1418,13531,8000,-11000,128000,280927,
7812,-204,15728,3625,-1286,13385,8000,-11000,128000,280929,
7952,-132,15540,3615,-1186,13175,8000,-11000,128000,280931,
8164,580,15632,3296,-639,12085,8000,-12000,129000,280944,
8100,656,15752,3244,-565,11886,8000,-12000,129000,280946,
8192,796,15908,3170,-526,11705,8000,-12000,130000,280948,
7736,688,16244,2824,-400,10654,8000,-12000,131000,280961,
7824,680,15888,2786,-423,10474,8000,-12000,131000,280963,
7768,496,16036,2744,-402,10305,8000,-12000,131000,280965,
7520,16,15860,2556,-425,9354,8000,-12000,132000,280978,
7552,64,15912,2548,-425,9200,8000,-12000,132000,280980,
7552,-4,15564,2514,-435,9052,8000,-13000,132000,280982,
7688,240,15464,2350,-453,8032,8000,-13000,133000,280995,
7752,300,15456,2274,-490,7854,8000,-13000,133000,280997,
7740,236,15336,2244,-520,7684,8000,-13000,133000,281000,
7740,152,15052,1985,-686,6816,8000,-13000,134000,281012,
7860,208,14940,1946,-685,6652,8000,-13000,134000,281014,
7840,-16,15004,1909,-716,6483,8000,-13000,134000,281017,
8184,176,14620,1636,-614,5532,8000,-13000,135000,281029,
8168,192,14644,1618,-563,5381,8000,-13000,135000,281031,
8064,164,14608,1552,-522,5263,8000,-14000,135000,281034,
8064,276,14660,1226,-283,4452,8000,-14000,135000,281046,
8012,216,14756,1187,-262,4322,8000,-14000,135000,281048,
8088,220,14724,1091,-227,4208,8000,-14000,136000,281051,
7736,280,14860,786,-125,3427,8000,-14000,136000,281063,
7700,208,14688,706,-130,3259,8000,-14000,136000,281065,
7792,232,14796,617,-186,3111,8000,-14000,136000,281068,
7684,-104,14720,355,-318,2281,8000,-14000,136000,281080,
7716,-136,14896,349,-319,2133,8000,-14000,136000,281082,
7884,-224,14716,287,-332,1976,8000,-14000,136000,281085,
7924,-428,14572,142,-244,1224,8000,-14000,136000,281097,
7984,-352,14508,126,-223,1070,8000,-14000,136000,281099,
8084,-388,14592,69,-195,958,8000,-14000,137000,281102,
7872,128,14748,-263,-75,182,8000,-14000,137000,281114,
7996,164,14632,-323,-120,45,8000,-14000,137000,281117,
7944,156,14784,-405,-158,-86,8000,-14000,137000,281119,
7880,56,14788,-684,-294,-900,8000,-15000,136000,281131,
7876,-20,14568,-726,-286,-1052,8000,-15000,136000,281134,
7960,-228,14768,-778,-274,-1196,8000,-15000,136000,281136,
7812,-188,14796,-982,-190,-1900,8000,-15000,136000,281148,
7780,-272,14812,-1044,-206,-1997,8000,-15000,136000,281151,
7932,-344,15016,-1054,-199,-2137,8000,-15000,136000,281153,
7832,-584,15096,-1222,-221,-2792,8000,-15000,136000,281165,
7884,-476,15288,-1261,-229,-2914,8000,-15000,136000,281168,
7924,-572,15076,-1273,-175,-3037,8000,-15000,136000,281170,
7908,-480,15176,-1491,-148,-3666,7000,-15000,135000,281183,
7796,-524,15200,-1529,-192,-3773,7000,-15000,135000,281185,
7848,-412,15332,-1575,-171,-3894,7000,-15000,135000,281187,
7832,-404,15568,-1804,-369,-4577,7000,-15000,135000,281200,
7800,-424,15616,-1821,-400,-4681,7000,-15000,135000,281202,
7792,-496,15564,-1867,-460,-4815,7000,-15000,135000,281204,
7732,-596,15772,-2127,-721,-5430,7000,-15000,134000,281217,
7772,-740,15968,-2144,-768,-5539,7000,-15000,134000,281219,
7932,-676,15828,-2184,-839,-5685,7000,-15000,134000,281221,
7888,-576,15916,-2391,-959,-6418,7000,-15000,133000,281234,
7936,-428,16028,-2445,-974,-6558,7000,-15000,133000,281236,
7816,-484,15952,-2457,-986,-6698,7000,-15000,133000,281239,
7632,-456,16088,-2660,-1055,-7565,7000,-15000,132000,281251,
7740,-496,16004,-2665,-1112,-7690,7000,-15000,132000,281253,
7604,-584,16120,-2678,-1095,-7845,7000,-15000,132000,281256,
7628,-688,16188,-2742,-1107,-8560,7000,-15000,131000,281268,
7788,-564,16140,-2709,-1064,-8668,7000,-15000,131000,281270,
7684,-692,16300,-2736,-1077,-8796,7000,-15000,131000,281273,
7556,-680,16244,-2769,-981,-9412,7000,-15000,130000,281285,
7748,-724,16456,-2774,-957,-9518,7000,-15000,130000,281287,
7684,-632,16412,-2763,-912,-9628,7000,-15000,130000,281290,
7612,-688,16444,-2744,-778,-10200,7000,-15000,129000,281302,
7608,-796,16432,-2742,-722,-10310,7000,-15000,128000,281305,
7620,-780,16324,-2727,-710,-10418,7000,-15000,128000,281307,
7324,-768,16180,-2784,-534,-10999,7000,-15000,127000,281319,
7296,-804,16032,-2824,-513,-11113,7000,-15000,127000,281322,
7188,-700,16048,-2843,-499,-11240,7000,-15000,127000,281324,
6708,-692,15924,-2930,-494,-11979,7000,-15000,126000,281337,
6628,-684,15972,-2959,-506,-12081,7000,-15000,125000,281339,
6760,-824,16156,-2940,-528,-12303,7000,-15000,125000,281341,
6576,-752,16112,-3009,-540,-12888,7000,-15000,124000,281354,
6584,-604,16320,-2960,-525,-12932,7000,-15000,124000,281356,
6340,-752,16264,-2998,-374,-13487,7000,-15000,122000,281369,
6368,-768,16340,-2960,-328,-13607,7000,-15000,122000,281371,
6440,-836,16256,-2958,-320,-13660,7000,-15000,122000,281373,
6216,-784,16124,-2963,-135,-14104,7000,-15000,121000,281386,
6200,-860,15892,-2989,-109,-14184,7000,-15000,120000,281388,
6220,-612,15904,-3011,-72,-14275,7000,-15000,120000,281390,
5540,-224,15724,-3169,103,-14775,7000,-15000,119000,281403,
5484,-212,15736,-3195,127,-14855,7000,-15000,118000,281405,
5392,-100,15868,-3240,115,-14944,7000,-15000,118000,281407,
4808,-320,15844,-3465,-147,-15422,7000,-15000,117000,281420,
4728,-364,15888,-3509,-212,-15490,7000,-14000,116000,281422,
4668,-332,15872,-3544,-225,-15575,7000,-14000,116000,281424,
4640,-388,15976,-3631,-329,-15996,7000,-14000,114000,281437,
4684,-504,15804,-3642,-306,-16063,7000,-14000,114000,281439,
4672,-404,16072,-3664,-272,-16122,7000,-14000,114000,281441,
4448,-488,16160,-3692,-162,-16297,7000,-14000,112000,281454,
4436,-484,16036,-3703,-129,-16304,7000,-14000,112000,281456,
4372,-416,16080,-3720,-78,-16355,7000,-14000,112000,281458,
4184,-444,16004,-3799,69,-16469,7000,-14000,110000,281471,
4108,-288,15876,-3801,105,-16506,7000,-14000,110000,281473,
3996,-320,16068,-3782,128,-16509,7000,-14000,110000,281475,
3792,-384,15712,-3903,186,-16674,7000,-14000,108000,281488,
3652,-404,15656,-3907,206,-16735,7000,-13000,108000,281490,
3700,-600,15864,-3858,480,-17019,7000,-13000,106000,281503,
3716,-544,15844,-3847,509,-17031,7000,-13000,106000,281505,
3676,-528,15648,-3826,627,-17066,7000,-13000,105000,281507,
3648,-404,15788,-3765,1133,-17113,7000,-13000,104000,281520,
3672,-448,15812,-3760,1282,-17103,7000,-13000,103000,281522,
3520,-464,15856,-3739,1347,-17068,7000,-13000,103000,281524,
3004,-520,15848,-3647,1891,-17018,6000,-12000,101000,281537,
2748,-588,15924,-3623,1990,-16996,6000,-12000,101000,281539,
2852,-588,15856,-3600,2083,-16953,6000,-12000,101000,281541,
2176,-716,16028,-3501,2351,-16781,6000,-12000,99000,281554,
2068,-740,15868,-3490,2406,-16730,6000,-12000,99000,281556,
2016,-904,15948,-3448,2461,-16732,6000,-12000,99000,281558,
1716,-1052,16088,-3192,2588,-16568,6000,-11000,97000,281571,
1640,-1092,16184,-3137,2642,-16515,6000,-11000,97000,281573,
1668,-1040,16260,-3080,2657,-16442,6000,-11000,97000,281575,
1476,-800,16336,-2685,3077,-15963,6000,-10000,95000,281588,
1372,-800,16408,-2599,3178,-15855,6000,-10000,95000,281590,
1252,-696,16416,-2544,3287,-15739,6000,-10000,95000,281593,
804,-544,16388,-2298,3689,-15026,6000,-10000,93000,281605,
588,-548,16416,-2224,3769,-14911,6000,-10000,93000,281607,
588,-532,16420,-2164,3807,-14748,6000,-9000,93000,281610,
4,-296,16268,-1910,3748,-13972,6000,-9000,91000,281622,
-240,-256,16520,-1922,3681,-13804,6000,-9000,91000,281625,
-472,-300,16524,-1872,3628,-13691,6000,-9000,91000,281627,
-1132,-88,16716,-1803,3028,-13025,6000,-8000,90000,281639,
-1200,4,16644,-1793,2902,-12871,6000,-8000,89000,281642,
-1232,-32,16688,-1753,2772,-12849,6000,-8000,89000,281644,
-1456,204,16948,-1623,2185,-12066,6000,-8000,88000,281656,
-1520,208,17164,-1618,2131,-12005,6000,-7000,88000,281659,
-1500,228,17096,-1544,2033,-11875,6000,-7000,88000,281661,
-1088,492,17168,-1293,1822,-10952,6000,-7000,87000,281673,
-1184,700,17112,-1255,1824,-10821,6000,-7000,87000,281676,
-1108,744,16964,-1228,1861,-10665,6000,-7000,86000,281678,
-1416,824,16868,-1135,2047,-9962,6000,-7000,85000,281690,
-1572,836,16956,-1101,2087,-9877,6000,-6000,85000,281693,
-1752,956,16712,-1085,2076,-9784,6000,-6000,85000,281695,
-2300,960,16940,-1001,1820,-9378,6000,-6000,84000,281707,
-2396,1060,16984,-998,1758,-9281,6000,-6000,84000,281710,
-2440,1148,17060,-978,1719,-9217,6000,-6000,84000,281712,
-2536,1264,17580,-861,1634,-8787,6000,-6000,83000,281725,
-2640,1312,17636,-829,1622,-8679,6000,-5000,83000,281727,
-2808,1420,17460,-780,1616,-8592,6000,-5000,83000,281729,
-2896,1648,17684,-615,1475,-7894,6000,-5000,82000,281742,
-2832,1740,17640,-565,1460,-7792,6000,-5000,82000,281744,
-2940,1624,17668,-575,1415,-7636,6000,-5000,82000,281746,
-2960,1900,17532,-456,1122,-7054,6000,-5000,81000,281759,
-2996,1900,17312,-472,1021,-6954,6000,-5000,81000,281761,
-3100,1924,17448,-457,959,-6860,6000,-5000,81000,281763,
-2940,2020,17440,-435,572,-6348,6000,-4000,80000,281776,
-2868,2028,17368,-442,517,-6248,6000,-4000,80000,281778,
-2804,2004,17392,-407,504,-6178,6000,-4000,80000,281780,
-2444,2128,17348,-252,537,-5572,6000,-4000,80000,281793,
-2404,2040,17308,-228,560,-5465,6000,-4000,79000,281795,
-2184,2128,17332,-168,623,-5345,6000,-4000,79000,281797,
-1800,2244,17272,18,960,-4742,6000,-4000,79000,281810,
-1752,2400,17124,36,975,-4656,6000,-4000,79000,281812,
-1656,2296,17088,71,1078,-4527,6000,-4000,79000,281814,
-1944,2408,17084,101,1237,-4031,6000,-4000,78000,281827,
-2096,2380,17120,89,1211,-3919,6000,-3000,78000,281829,
-2132,2420,17028,87,1162,-3860,6000,-3000,78000,281831,
-2512,2264,17264,56,643,-3492,6000,-3000,78000,281844,
-2504,2272,17160,7,561,-3448,6000,-3000,78000,281846,
-2508,2196,17164,25,456,-3394,6000,-3000,78000,281848,
-2044,2352,17160,43,76,-3163,6000,-3000,78000,281861,
-1936,2336,17256,59,18,-3089,6000,-3000,77000,281863,
-1796,2348,17116,58,-13,-3052,6000,-3000,77000,281865,
-1708,2308,17084,57,-34,-2989,6000,-3000,77000,281867,
-1340,2244,16756,84,-16,-2676,6000,-3000,77000,281880,
-1416,2376,16896,84,3,-2619,6000,-3000,77000,281882,
-1224,2336,16792,89,16,-2549,6000,-3000,77000,281884,
-1076,2272,16800,86,44,-2303,6000,-3000,77000,281897,
-1004,2232,16712,96,63,-2258,6000,-3000,77000,281899,
-1032,2256,16820,92,55,-2228,6000,-3000,77000,281902,
-844,2072,16592,144,214,-1955,6000,-3000,77000,281914,
-644,2168,16560,153,257,-1913,6000,-3000,76000,281916,
-664,2068,16600,145,255,-1864,6000,-3000,76000,281919,
-720,2284,16588,130,341,-1676,6000,-3000,76000,281931,
-772,2200,16676,99,354,-1657,6000,-3000,76000,281933,
-740,2256,16688,108,357,-1622,6000,-3000,76000,281936,
-800,2260,16680,96,331,-1578,6000,-3000,76000,281938,
-992,2136,16816,48,127,-1448,7000,-3000,76000,281951,
-944,2224,16892,69,83,-1405,7000,-3000,76000,281953,
-976,2056,16728,63,49,-1403,7000,-3000,76000,281955,
-412,2112,16720,86,-55,-1230,7000,-2000,76000,281968,
-296,2156,16704,88,-44,-1210,7000,-2000,76000,281970,
-184,2156,16684,127,-26,-1163,7000,-2000,76000,281972,
-272,2148,16580,106,14,-1165,7000,-2000,76000,281974,
104,2112,16436,149,384,-1046,7000,-2000,76000,281987,
80,2156,16344,150,408,-995,7000,-2000,76000,281989,
4,2128,16500,172,450,-998,7000,-2000,76000,281991,
-196,2156,16532,100,474,-853,7000,-2000,76000,282004,
-212,2272,16564,88,457,-852,7000,-2000,76000,282006,
-88,2324,16516,88,432,-829,7000,-2000,76000,282008,
-220,2300,16580,69,408,-803,7000,-2000,76000,282011,
-272,2260,16784,11,269,-666,7000,-2000,76000,282023,
-148,2176,16692,-18,249,-632,7000,-2000,76000,282026,
-68,2120,16680,3,200,-621,7000,-2000,76000,282028,
36,2244,16540,-62,84,-564,7000,-2000,75000,282040,
36,2232,16580,-66,66,-553,7000,-2000,75000,282043,
204,2336,16496,-104,79,-545,7000,-2000,75000,282045,
56,2168,16800,-94,43,-533,7000,-2000,75000,282047,
112,1996,16688,-107,41,-465,7000,-2000,75000,282060,
248,2032,16712,-109,28,-454,7000,-2000,75000,282062,
184,1872,16704,-101,24,-441,7000,-2000,75000,282064,
344,1976,16728,-73,43,-327,7000,-2000,75000,282077,
396,1996,16772,-94,42,-309,7000,-2000,75000,282079,
344,2012,16764,-83,31,-276,7000,-2000,75000,282081,
328,2044,16600,-78,40,-254,7000,-2000,75000,282083,
556,1924,16504,-103,76,-203,7000,-2000,75000,282096,
704,1812,16628,-92,90,-203,7000,-2000,75000,282098,
608,1868,16696,-91,101,-200,7000,-2000,75000,282100,
648,1848,16764,-80,186,-171,7000,-2000,75000,282113,
732,1720,16776,-106,209,-181,7000,-2000,75000,282115,
536,1664,16744,-70,196,-176,7000,-2000,75000,282118,
516,1812,16768,-96,204,-171,7000,-2000,75000,282120,
324,1760,16692,-59,223,-163,7000,-2000,75000,282132,
400,1760,16740,-65,218,-163,7000,-2000,75000,282135,
268,1732,16776,-48,184,-158,7000,-2000,75000,282137,
168,1868,16696,-74,58,-166,7000,-2000,75000,282149,
268,1696,16732,-89,43,-171,7000,-2000,75000,282152,
212,1788,16472,-88,-15,-178,7000,-2000,75000,282154,
256,1740,16492,-84,-8,-185,7000,-2000,75000,282156,
572,1868,16528,-72,-75,-148,6000,-2000,75000,282169,
648,1836,16684,-102,-18,-145,6000,-2000,75000,282171,
552,1908,16748,-87,23,-134,6000,-2000,75000,282173,
724,1808,16504,-28,251,-71,6000,-2000,75000,282186,
652,1952,16620,-56,299,-35,6000,-2000,75000,282188,
704,1996,16620,-50,322,-7,6000,-2000,75000,282190,
572,1904,16540,-50,338,7,6000,-2000,75000,282193,
288,1980,16772,-99,220,127,6000,-2000,75000,282205,
356,1880,16604,-106,194,95,6000,-2000,75000,282207,
372,1832,16728,-118,134,142,6000,-2000,75000,282210,
424,1796,16504,-151,-84,243,6000,-2000,75000,282222,
448,1772,16568,-139,-112,236,6000,-2000,75000,282224,
504,1852,16588,-161,-144,238,6000,-2000,75000,282227,
536,1832,16640,-136,-147,223,6000,-2000,75000,282229,
848,1912,16616,-151,-172,209,6000,-2000,75000,282242,
736,1964,16464,-176,-159,222,6000,-2000,75000,282244,
792,2000,16552,-182,-188,196,6000,-2000,75000,282246,
960,1756,16724,-180,-75,179,6000,-2000,75000,282259,
948,1836,16684,-172,-56,189,6000,-2000,75000,282261,
1016,1848,16668,-183,-16,188,6000,-2000,75000,282263,
992,1816,16748,-168,15,186,6000,-2000,75000,282265,
824,1852,16572,-149,163,161,6000,-2000,75000,282278,
856,1864,16712,-170,182,146,6000,-2000,75000,282280,
776,1688,16704,-162,190,148,6000,-2000,75000,282282,
708,1696,16572,-145,265,77,6000,-2000,75000,282295,
628,1676,16592,-149,303,49,6000,-2000,75000,282297,
628,1604,16548,-153,295,57,6000,-2000,75000,282299,
596,1648,16776,-142,284,28,6000,-2000,75000,282302,
540,1596,16776,-129,191,34,6000,-2000,75000,282314,
616,1732,16864,-135,172,41,6000,-2000,75000,282316,
580,1716,16896,-107,177,55,6000,-2000,75000,282319,
