Ax,Ay,Az,Gx,Gy,Gz,Roll,Pitch,Yaw,Timestamp,Target
-3928,1508,15760,-391,467,22,-1000,17000,279000,1144668,
-4292,1556,15668,-418,457,34,-1000,17000,279000,1144680,
-4164,1524,15948,-358,442,13,-1000,17000,279000,1144683,
-4216,1444,15832,-411,459,51,-1000,17000,279000,1144685,
-4288,1636,15816,-385,293,21,-1000,17000,279000,1144698,
-4200,1576,15904,-423,249,71,-1000,17000,279000,1144700,
-4232,1500,15760,-465,291,19,-1000,17000,279000,1144702,
-4080,1616,15720,-470,171,29,-1000,17000,279000,1144715,
-4104,1720,15744,-486,206,34,-1000,17000,279000,1144717,
-4108,1632,15772,-451,206,20,-1000,17000,279000,1144720,
-4044,1620,16044,-482,199,46,-1000,17000,279000,1144732,
-4052,1536,15996,-407,221,26,-1000,17000,279000,1144735,
-4164,1556,16012,-440,193,42,-1000,17000,279000,1144737,
-4340,1560,16012,-361,142,87,-1000,17000,279000,1144750,
-4248,1724,15916,-375,158,69,-1000,17000,279000,1144752,
-4272,1560,15776,-403,173,96,-1000,17000,279000,1144755,
-4044,1716,15912,-339,137,121,-1000,17000,279000,1144767,
-4072,1668,15916,-378,168,104,-1000,17000,279000,1144770,
-4176,1672,15876,-323,166,98,-1000,17000,279000,1144772,
-4156,1600,15944,-321,321,82,-1000,17000,279000,1144785,
-4136,1604,15880,-271,327,103,-1000,17000,279000,1144787,
-4096,1636,15912,-310,336,91,-1000,17000,279000,1144789,
-4204,1664,15892,-240,468,156,-1000,17000,279000,1144802,
-4156,1728,15952,-291,445,167,-1000,17000,279000,1144804,
-4168,1600,15852,-257,469,150,-1000,17000,279000,1144807,
-4460,1580,15996,-288,279,87,-1000,17000,279000,1144819,
-4496,1628,15980,-261,292,76,-1000,17000,279000,1144822,
-4432,1652,15964,-272,218,83,-1000,17000,279000,1144824,
-4388,1540,15844,-273,77,110,0,17000,279000,1144837,
-4320,1508,15728,-246,-11,138,0,17000,279000,1144839,
-4348,1552,15804,-283,-4,105,0,17000,279000,1144841,
-4224,1580,15812,-267,15,125,0,17000,279000,1144844,
-4048,1496,16048,-298,66,59,0,17000,279000,1144856,
-3972,1656,15792,-263,129,62,0,17000,279000,1144859,
-3932,1468,15944,-274,155,84,0,17000,279000,1144861,
-4044,1520,15860,-216,422,140,0,17000,279000,1144874,
-4024,1460,15932,-259,439,161,0,17000,279000,1144876,
-4052,1496,15832,-267,468,199,0,17000,279000,1144878,
-4124,1500,15708,-250,541,164,0,17000,279000,1144881,
-4144,1528,15656,-290,504,145,0,17000,279000,1144894,
-4200,1536,15740,-267,510,138,0,17000,279000,1144896,
-4248,1628,15788,-286,453,171,0,17000,279000,1144898,
-4484,1664,15660,-362,279,229,0,17000,279000,1144911,
-4432,1664,15620,-406,255,253,0,17000,279000,1144913,
-4324,1692,15860,-390,256,231,0,17000,279000,1144916,
-4424,1680,15700,-396,186,233,0,17000,279000,1144918,
-4256,1464,15804,-479,78,188,0,17000,279000,1144931,
-4164,1628,15572,-452,37,216,0,17000,279000,1144933,
-4224,1632,15816,-507,-3,230,0,17000,279000,1144935,
-4060,1588,15892,-474,27,243,0,17000,279000,1144948,
-4040,1504,15904,-520,56,225,0,17000,279000,1144950,
-3988,1472,15776,-495,113,217,0,17000,279000,1144953,
-4008,1484,15808,-474,109,214,0,17000,279000,1144955,
-3928,1468,15804,-479,186,234,0,17000,279000,1144968,
-4064,1512,15612,-460,115,202,0,17000,279000,1144970,
-3948,1656,15756,-491,152,226,0,17000,279000,1144972,
-3860,1548,15848,-497,222,156,0,17000,279000,1144985,
-3956,1552,15600,-475,287,148,0,17000,279000,1144987,
-4008,1628,15796,-436,246,150,0,17000,279000,1144990,
-3980,1416,15800,-415,280,159,0,17000,279000,1144992,
-4312,1496,15628,-427,161,144,0,17000,279000,1145005,
-4228,1508,15648,-423,97,130,0,17000,279000,1145007,
-4084,1540,15608,-439,56,101,0,17000,279000,1145010,
-3812,1652,15768,-544,-150,-2,0,17000,279000,1145022,
-3728,1672,15656,-588,-106,-12,0,17000,279000,1145025,
-3816,1712,15840,-501,-73,-34,0,17000,279000,1145027,
-3904,1540,15764,-538,-42,-2,0,17000,279000,1145030,
-4032,1460,16072,-416,357,20,0,17000,279000,1145042,
-4032,1516,15896,-441,404,40,0,17000,279000,1145045,
-4108,1456,15780,-469,462,45,0,17000,279000,1145047,
-4316,1672,15824,-456,520,35,0,17000,279000,1145063,
-4268,1692,15836,-456,490,77,0,17000,279000,1145066,
-4272,1668,15864,-470,486,78,0,17000,279000,1145068,
-4216,1700,15788,-458,502,17,0,17000,279000,1145071,
-4324,1548,15724,-542,411,37,0,17000,279000,1145083,
-4396,1608,15700,-483,344,76,0,17000,279000,1145086,
-4452,1692,15864,-531,310,89,0,17000,279000,1145088,
-4424,1648,15636,-583,308,106,0,17000,279000,1145090,
-4492,1588,15560,-649,114,93,0,17000,279000,1145103,
-4384,1688,15812,-691,119,40,0,17000,279000,1145106,
-4320,1704,15772,-657,57,69,0,17000,279000,1145108,
-4196,1664,15656,-757,108,48,0,17000,279000,1145121,
-4196,1460,15628,-745,81,82,0,17000,279000,1145123,
-4120,1584,15824,-788,98,65,0,17000,279000,1145125,
-4132,1484,15724,-782,168,70,0,17000,279000,1145128,
-4228,1452,15816,-741,311,123,0,17000,279000,1145140,
-4376,1440,15848,-738,356,103,-1000,17000,279000,1145143,
-4220,1360,15828,-706,357,99,-1000,17000,279000,1145145,
-4308,1448,15796,-708,379,105,-1000,17000,279000,1145158,
-4272,1468,15716,-677,347,132,-1000,17000,279000,1145160,
-4204,1584,15876,-727,356,153,-1000,17000,279000,1145162,
-4084,1516,15724,-679,431,207,-1000,17000,280000,1145175,
-4176,1500,15988,-716,446,207,-1000,17000,280000,1145177,
-4072,1548,15624,-704,491,228,-1000,17000,280000,1145180,
-4060,1476,15836,-668,485,225,-1000,17000,280000,1145192,
-4056,1496,15808,-704,552,208,-1000,17000,280000,1145195,
-4144,1460,15720,-654,506,238,-1000,17000,280000,1145197,
-4180,1640,15804,-687,490,271,-1000,17000,280000,1145210,
-4116,1584,15560,-677,436,294,-1000,17000,280000,1145212,
-4164,1644,15696,-713,404,291,-1000,17000,280000,1145215,
-4192,1564,15944,-741,209,213,-1000,17000,280000,1145228,
-4220,1616,15924,-760,178,202,-1000,17000,280000,1145230,
-4264,1508,15768,-750,141,166,-1000,17000,280000,1145232,
-4284,1436,15844,-834,-95,213,-1000,17000,280000,1145245,
-4348,1528,16076,-788,-141,196,-1000,17000,280000,1145247,
-4256,1504,15968,-803,-171,205,-1000,17000,280000,1145250,
-3964,1464,16076,-716,-117,135,-1000,17000,280000,1145262,
-3944,1528,16096,-734,-88,137,-1000,17000,280000,1145265,
-3952,1388,16068,-749,13,104,-1000,17000,280000,1145267,
-4048,1396,15972,-610,240,92,-1000,17000,280000,1145280,
-4016,1296,16148,-583,302,75,-1000,17000,280000,1145282,
-4048,1268,16044,-546,285,107,-1000,17000,280000,1145284,
-4312,1264,16132,-455,385,132,-1000,17000,280000,1145297,
-4344,1316,16016,-463,393,141,-1000,17000,280000,1145299,
-4304,1452,16168,-454,383,140,-1000,17000,280000,1145302,
-4452,1416,15984,-422,229,141,-1000,17000,280000,1145314,
-4408,1496,15796,-453,195,147,-1000,17000,280000,1145317,
-4332,1520,15936,-432,204,138,-1000,17000,280000,1145319,
-4232,1444,15696,-479,80,170,-1000,17000,280000,1145332,
-4116,1648,15692,-486,104,143,-1000,17000,280000,1145334,
-4248,1704,15796,-492,76,162,-1000,17000,280000,1145336,
-3900,1664,15908,-487,196,118,-1000,17000,280000,1145349,
-4044,1688,15780,-472,188,134,-1000,17000,280000,1145351,
-3948,1724,15840,-511,227,132,-1000,17000,280000,1145354,
-3872,1596,15796,-500,374,112,-1000,17000,280000,1145366,
-3888,1624,15820,-518,404,110,-1000,17000,280000,1145369,
-4016,1608,15804,-510,400,78,-1000,17000,280000,1145371,
-4204,1580,15860,-509,173,114,-1000,17000,280000,1145384,
-4224,1604,15772,-477,168,72,-1000,17000,280000,1145386,
-4264,1520,15960,-472,65,111,-1000,17000,280000,1145389,
-4268,1328,15824,-512,-186,65,-1000,17000,280000,1145401,
-4212,1536,15704,-497,-295,106,-1000,17000,280000,1145404,
-4220,1524,15768,-555,-329,66,-1000,17000,280000,1145406,
-3840,1524,15844,-503,-365,74,-1000,17000,280000,1145419,
-3872,1488,15824,-513,-312,52,-1000,17000,280000,1145421,
-3856,1468,15860,-498,-214,21,-1000,17000,280000,1145423,
-3548,1528,16052,-422,110,35,-1000,17000,280000,1145436,
-3688,1456,15904,-374,175,27,-1000,17000,280000,1145438,
-3780,1500,15836,-332,229,35,-1000,17000,280000,1145441,
-3996,1464,15828,-271,487,-52,-1000,17000,280000,1145453,
-4084,1492,15968,-303,459,-27,-1000,17000,280000,1145456,
-4172,1516,16144,-278,479,-39,-1000,17000,280000,1145458,
-4372,1520,15952,-234,261,-58,-1000,17000,280000,1145471,
-4384,1444,15964,-261,227,-18,-1000,17000,280000,1145473,
-4396,1424,15968,-384,-136,-59,-1000,17000,280000,1145486,
-4368,1436,16032,-367,-188,-72,-1000,17000,280000,1145488,
-4324,1464,16080,-317,-220,-99,-1000,17000,280000,1145490,
-4244,1240,16244,-317,-310,-91,-1000,17000,280000,1145503,
-4208,1152,16088,-235,-316,-121,-1000,17000,280000,1145505,
-4152,1244,15984,-276,-324,-91,-1000,17000,280000,1145508,
-3920,1112,16072,-112,-219,-103,-1000,17000,280000,1145520,
-3908,1172,15940,-114,-191,-65,-1000,17000,280000,1145523,
-3900,1124,16028,-128,-92,-97,-1000,17000,280000,1145525,
-4028,1192,16016,-6,33,-115,-1000,17000,280000,1145538,
-3972,1224,16036,-28,112,-124,-1000,17000,280000,1145540,
-3896,1212,16008,34,105,-119,-1000,17000,280000,1145542,
-3844,1264,15956,81,241,-152,-1000,17000,280000,1145555,
-3908,1312,15872,105,205,-135,-1000,17000,280000,1145557,
-3996,1372,15952,58,244,-151,-1000,17000,280000,1145560,
-3908,1484,15840,66,288,-173,-1000,17000,280000,1145572,
-3964,1460,15700,32,315,-209,-1000,17000,280000,1145575,
-3848,1484,15756,57,340,-210,-1000,17000,280000,1145577,
-3852,1672,15628,-11,300,-286,0,17000,280000,1145590,
-3816,1684,15652,-26,326,-315,0,17000,280000,1145592,
-3824,1716,15496,4,297,-303,0,17000,280000,1145594,
-3832,1756,15632,-46,265,-327,0,17000,280000,1145597,
-3936,1792,15468,-74,126,-368,0,17000,280000,1145609,
-3924,1844,15496,-101,94,-372,0,17000,280000,1145612,
-4036,1840,15616,-112,63,-439,0,17000,280000,1145614,
-3984,1832,15748,-123,-124,-492,0,17000,280000,1145627,
-3896,1844,15668,-88,-162,-537,0,17000,280000,1145629,
-3848,1856,15624,-101,-173,-535,0,17000,280000,1145632,
-3768,1752,15728,-139,-165,-500,0,17000,280000,1145634,
-3764,1976,15600,-101,-65,-566,0,17000,280000,1145647,
-3704,1976,15572,-90,-39,-587,0,17000,280000,1145649,
-3712,1768,15736,-40,0,-594,0,17000,280000,1145652,
-3768,1744,15900,-36,247,-682,0,17000,280000,1145664,
-3872,1704,15728,32,240,-717,0,17000,280000,1145667,
-3892,1668,15860,38,275,-670,0,17000,280000,1145669,
-3960,1732,15932,11,329,-709,0,17000,280000,1145671,
-4316,1656,15916,109,335,-633,0,17000,280000,1145684,
-4268,1748,15856,111,352,-643,0,17000,280000,1145686,
-4284,1672,15776,162,333,-627,0,17000,280000,1145689,
-4448,1856,15760,80,242,-641,0,17000,280000,1145701,
-4324,1808,15656,83,203,-639,0,17000,280000,1145704,
-4484,1844,15772,50,149,-632,0,17000,280000,1145706,
-4564,1848,15656,52,155,-620,0,17000,280000,1145709,
-4524,1628,15756,0,97,-592,0,17000,280000,1145721,
-4440,1696,15868,-3,130,-613,0,17000,280000,1145724,
-4500,1692,15720,29,106,-599,0,17000,280000,1145726,
-4436,1648,15844,-18,114,-562,0,17000,280000,1145728,
-4068,1652,15768,14,260,-486,0,17000,280000,1145741,
-4152,1768,15824,-12,297,-476,0,17000,280000,1145743,
-4204,1652,15964,-23,375,-519,0,17000,280000,1145746,
-4340,1652,15808,-23,595,-424,0,17000,280000,1145758,
-4304,1672,15944,-39,663,-427,0,17000,280000,1145761,
-4452,1664,15852,17,643,-386,0,17000,280000,1145763,
-4488,1684,15636,-50,686,-335,0,17000,280000,1145765,
-4380,1736,15696,-93,554,-247,0,17000,279000,1145778,
-4368,1796,15556,-142,473,-229,0,17000,279000,1145780,
-4252,1828,15544,-141,502,-239,0,17000,279000,1145783,
-4344,1848,15572,-243,392,-169,0,17000,279000,1145795,
-4252,1740,15740,-266,405,-210,0,17000,279000,1145798,
-4264,1664,15612,-232,410,-148,0,17000,279000,1145800,
-4300,1612,15692,-242,383,-109,0,17000,279000,1145803,
-3928,1728,15636,-249,330,-52,0,17000,279000,1145815,
-4068,1720,15556,-287,345,-72,0,17000,279000,1145818,
-4108,1784,15552,-260,363,-97,0,17000,279000,1145820,
-4012,1732,15520,-319,427,-32,0,17000,280000,1145833,
-3908,1784,15628,-281,425,-76,0,17000,280000,1145835,
-3900,1776,15688,-288,404,-13,0,17000,280000,1145837,
-3920,1772,15664,-339,414,-52,0,17000,280000,1145840,
-4072,1796,15488,-342,367,-53,0,17000,280000,1145852,
-3984,1632,15608,-356,396,-35,0,17000,280000,1145855,
-4040,1760,15688,-324,394,-50,0,17000,280000,1145857,
-4072,1808,15816,-385,362,-72,0,17000,280000,1145870,
-4076,1696,15552,-369,387,-84,0,17000,280000,1145872,
-4040,1716,15824,-382,362,-70,0,17000,280000,1145874,
-3880,1732,15544,-407,370,-73,0,17000,280000,1145877,
-3996,1872,15632,-410,370,-101,0,17000,280000,1145889,
-3964,1880,15660,-459,370,-125,0,17000,280000,1145892,
-3940,1800,15496,-434,428,-140,0,17000,280000,1145894,
-3916,1892,15616,-460,474,-158,0,17000,280000,1145907,
-3964,1744,15744,-461,489,-173,0,17000,280000,1145909,
-4084,1844,15636,-417,467,-172,0,17000,280000,1145912,
-4024,1852,15584,-452,490,-143,0,17000,280000,1145914,
-4224,1804,15596,-457,517,-160,0,17000,280000,1145930,
-4204,1812,15652,-413,491,-137,0,17000,280000,1145933,
-4336,1836,15412,-464,455,-149,0,17000,280000,1145935,
-4260,1824,15564,-422,453,-150,0,17000,280000,1145948,
-4216,1812,15588,-480,405,-157,0,17000,280000,1145950,
-4344,1884,15472,-504,420,-164,0,17000,280000,1145952,
-4288,1884,15692,-473,447,-177,0,17000,280000,1145955,
-4264,1904,15472,-515,505,-140,0,17000,280000,1145967,
-4340,1828,15624,-522,506,-145,0,17000,280000,1145970,
-4328,1884,15592,-516,502,-102,0,17000,280000,1145972,
-4312,1804,15492,-529,662,-116,0,17000,280000,1145985,
-4364,1768,15512,-560,651,-73,0,17000,280000,1145987,
-4404,1772,15504,-581,704,-94,0,17000,280000,1145989,
-4340,1816,15524,-527,703,-84,0,17000,280000,1145992,
-4732,1848,15536,-588,693,-54,0,17000,280000,1146004,
-4624,1880,15432,-541,636,-21,0,17000,280000,1146007,
-4708,1700,15568,-609,586,18,0,18000,280000,1146009,
-4964,1824,15732,-588,351,97,0,18000,280000,1146022,
-4868,1852,15700,-653,312,128,0,18000,280000,1146024,
-4876,1816,15568,-693,275,157,0,18000,280000,1146026,
-4632,1892,15652,-676,197,184,0,18000,280000,1146029,
-4572,1788,15800,-750,143,209,0,18000,280000,1146042,
-4600,1792,15716,-698,170,233,0,18000,280000,1146044,
-4564,1784,15760,-739,179,238,0,18000,280000,1146046,
-4492,1752,15772,-657,413,313,0,18000,280000,1146059,
-4428,1840,15824,-690,481,358,0,18000,280000,1146061,
-4336,1844,15944,-701,560,356,0,18000,280000,1146064,
-4364,1888,15628,-662,507,399,0,18000,280000,1146066,
-4428,1848,15876,-654,627,419,0,18000,280000,1146079,
-4592,1852,16020,-645,577,442,0,18000,280000,1146081,
-4708,1968,15976,-666,580,435,0,18000,280000,1146083,
-4880,1740,15868,-666,284,510,0,18000,280000,1146096,
-4916,1788,15780,-720,216,536,0,18000,280000,1146098,
-4772,1856,15860,-726,169,515,0,18000,280000,1146101,
-4812,1912,15808,-708,62,555,0,18000,280000,1146103,
-4704,1980,16004,-868,-264,557,0,18000,280000,1146116,
-4564,2104,15980,-858,-304,554,0,18000,280000,1146118,
-4640,2016,15920,-887,-324,544,0,18000,280000,1146120,
-4236,1872,16172,-817,-396,519,0,18000,280000,1146133,
-4092,1796,16104,-797,-363,495,0,18000,280000,1146135,
-4044,1800,16036,-774,-355,464,0,18000,280000,1146138,
-3892,1764,16056,-731,-361,483,0,18000,280000,1146140,
-3768,1868,16076,-589,-56,424,0,18000,280000,1146153,
-3592,1812,16092,-587,-17,409,0,17000,280000,1146155,
-3596,1900,16112,-598,41,393,0,17000,280000,1146158,
-3448,1952,16072,-544,418,210,0,17000,280000,1146170,
-3440,2008,16064,-538,490,160,0,17000,280000,1146173,
-3488,1996,16060,-470,585,127,0,17000,280000,1146175,
-3296,2064,16108,-453,600,109,0,18000,280000,1146177,
-4084,1984,16096,-223,388,-114,0,18000,280000,1146190,
-4168,1944,16120,-204,237,-141,0,18000,280000,1146192,
-4320,1996,16008,-202,67,-239,0,18000,280000,1146195,
-4380,2308,16260,-134,-1097,-566,0,17000,280000,1146207,
-4384,2276,16444,-130,-1315,-634,0,17000,280000,1146210,
-4324,2212,16424,-68,-1480,-678,0,17000,280000,1146212,
-4216,1888,16984,121,-2001,-879,0,17000,280000,1146225,
-4284,1968,16972,239,-2046,-934,0,17000,280000,1146227,
-4300,1812,17044,257,-2067,-967,0,17000,280000,1146229,
-4864,2084,16944,604,-1674,-1038,0,17000,280000,1146242,
-4932,2100,16748,622,-1542,-984,0,17000,280000,1146244,
-5136,2136,16512,671,-1371,-938,0,17000,280000,1146247,
-6084,2616,15964,643,-716,-353,0,17000,280000,1146259,
-6628,2728,15768,640,-604,-229,0,17000,280000,1146262,
-6720,2732,15664,638,-528,-87,0,17000,280000,1146264,
-7164,2824,15504,544,-520,95,0,17000,280000,1146267,
-9124,2564,15412,282,-784,1038,0,17000,280000,1146279,
-9524,2548,15320,153,-904,1283,0,17000,280000,1146282,
-9860,2608,15488,82,-1052,1617,0,17000,280000,1146284,
-11824,2244,15596,-415,-2325,3559,0,17000,280000,1146297,
-12128,2096,15552,-516,-2623,3998,0,17000,281000,1146299,
-12440,1952,15600,-583,-3005,4387,0,17000,281000,1146301,
-13440,1028,16868,-1122,-4776,6625,0,16000,281000,1146314,
-13692,788,17060,-1191,-5054,7058,0,16000,281000,1146316,
-13720,580,16980,-1286,-5284,7563,0,16000,282000,1146319,
-13432,-224,17148,-1528,-5908,10407,0,16000,283000,1146331,
-13124,-280,17112,-1579,-5904,10978,0,16000,283000,1146334,
-12976,-304,17132,-1658,-5805,11612,0,16000,283000,1146336,
-11608,-500,16780,-1924,-4776,14447,0,15000,285000,1146349,
-11344,-348,16532,-1981,-4501,14932,0,15000,285000,1146351,
-11032,-420,16228,-1992,-4194,15385,0,15000,285000,1146354,
-10072,-452,15540,-2308,-2421,17927,0,15000,287000,1146367,
-9864,-456,15548,-2356,-2146,18302,0,15000,287000,1146369,
-9708,-400,15320,-2479,-1838,18752,1000,15000,288000,1146371,
-8916,-168,15452,-2842,-485,20626,1000,15000,290000,1146384,
-8912,-184,15236,-2928,-256,20934,1000,15000,290000,1146386,
-8948,-304,15288,-3045,-63,21267,1000,15000,290000,1146389,
-8876,-632,14940,-3455,175,22673,1000,15000,293000,1146402,
-8692,-748,15076,-3507,215,22938,1000,15000,293000,1146404,
-8468,-736,15056,-3592,141,23147,1000,15000,294000,1146406,
-7304,-1028,14724,-3911,1,24346,1000,15000,296000,1146419,
-7140,-964,14628,-3980,-25,24487,2000,15000,297000,1146421,
-6724,-760,14404,-4064,85,24735,2000,15000,297000,1146424,
-5484,-712,13972,-4406,324,25436,2000,15000,300000,1146436,
-5200,-740,13860,-4461,404,25639,2000,15000,300000,1146439,
-5008,-648,13920,-4487,412,25717,2000,15000,301000,1146441,
-3948,-768,13716,-4829,563,26103,2000,15000,303000,1146454,
-3880,-824,14008,-4825,547,26113,2000,15000,304000,1146456,
-2392,-696,14256,-5140,730,26302,2000,15000,306000,1146469,
-2308,-612,14296,-5149,751,26262,2000,15000,307000,1146471,
-1836,-592,14348,-5209,818,26224,2000,15000,307000,1146474,
-580,-504,14620,-5311,1579,26047,2000,15000,310000,1146486,
-228,-484,14880,-5353,1708,25976,2000,15000,310000,1146489,
-92,-560,14824,-5339,1885,25938,3000,15000,311000,1146491,
900,-432,15040,-5284,2745,25436,3000,15000,313000,1146504,
1072,-332,15068,-5267,2894,25361,3000,15000,314000,1146506,
1216,-252,15048,-5204,2975,25182,3000,15000,314000,1146508,
1724,-44,15876,-5145,3661,24269,3000,15000,317000,1146521,
1772,-4,15612,-5085,3613,24020,3000,15000,317000,1146523,
1980,-52,15736,-5107,3623,23831,3000,15000,318000,1146526,
3000,200,15972,-4988,3292,22586,3000,15000,320000,1146538,
3120,284,16028,-4966,3239,22440,3000,15000,320000,1146541,
3172,284,16136,-4936,3204,22230,3000,15000,321000,1146543,
3960,384,16484,-4820,2875,20699,3000,15000,323000,1146556,
4004,420,16300,-4816,2894,20456,3000,15000,323000,1146558,
4232,536,16176,-4748,2791,20113,3000,15000,324000,1146561,
4468,788,16640,-4579,2887,18525,3000,15000,326000,1146573,
4444,768,16732,-4481,2869,18154,3000,15000,326000,1146576,
4348,864,16948,-4500,2919,17861,3000,15000,326000,1146578,
3644,604,16744,-4300,2938,16213,3000,15000,328000,1146591,
3504,608,16760,-4273,2907,15939,3000,15000,328000,1146593,
3504,776,16852,-4262,2854,15671,3000,15000,328000,1146595,
3604,712,16884,-4141,2444,14112,3000,15000,330000,1146608,
3732,672,16928,-4107,2345,13758,3000,15000,330000,1146610,
3684,800,16932,-4108,2191,13404,3000,15000,330000,1146613,
4656,760,17220,-3846,1652,11533,3000,15000,332000,1146625,
4924,612,17104,-3852,1587,11209,3000,15000,332000,1146628,
5184,664,17052,-3805,1577,10894,3000,15000,332000,1146630,
6640,656,16888,-3474,1869,8774,3000,15000,333000,1146643,
6796,636,16952,-3393,2038,8342,3000,15000,333000,1146645,
7016,664,16832,-3269,2196,7894,3000,15000,333000,1146647,
7188,704,16788,-2774,3213,5475,3000,15000,334000,1146660,
7136,656,16808,-2655,3344,4994,3000,15000,334000,1146662,
7028,768,16740,-2587,3501,4477,3000,15000,334000,1146665,
6232,596,16956,-1965,3751,1927,3000,15000,334000,1146677,
6040,716,16900,-1878,3698,1454,2000,15000,334000,1146680,
5796,552,17068,-1756,3615,961,2000,15000,334000,1146682,
4480,440,17632,-1045,2446,-1614,2000,15000,334000,1146695,
4244,440,17704,-912,2175,-2113,2000,15000,334000,1146697,
4012,452,17844,-730,1800,-2529,2000,15000,334000,1146699,
3524,36,18360,4,-14,-4836,2000,15000,333000,1146712,
3528,108,18308,156,-333,-5176,2000,15000,333000,1146714,
3520,-16,18388,302,-627,-5567,2000,15000,333000,1146717,
3996,-124,18520,1165,-1970,-7805,2000,14000,332000,1146729,
3976,-100,18616,1294,-2079,-8210,2000,14000,332000,1146732,
4028,-204,18616,1458,-2211,-8652,2000,14000,332000,1146734,
4284,-316,18748,2269,-2467,-10728,2000,14000,331000,1146747,
4268,-412,18596,2459,-2473,-11081,2000,14000,331000,1146749,
4232,-296,18668,2590,-2412,-11372,2000,14000,331000,1146751,
4332,-312,18196,3379,-2119,-13175,2000,13000,329000,1146764,
4396,-368,18244,3468,-2037,-13491,2000,13000,329000,1146766,
4352,-192,18068,3590,-1878,-13845,2000,13000,329000,1146769,
4488,-64,17804,4188,-1333,-15535,2000,13000,327000,1146781,
4384,-32,17856,4307,-1229,-15852,2000,13000,327000,1146784,
4380,-108,17784,4466,-1117,-16253,2000,13000,327000,1146786,
3544,-116,17676,4946,-803,-17818,2000,13000,325000,1146799,
3324,16,17620,5089,-752,-18103,2000,13000,324000,1146801,
3232,-116,17564,5114,-737,-18240,2000,13000,324000,1146804,
2440,44,17988,5565,-777,-19489,2000,13000,322000,1146816,
2200,88,17996,5573,-829,-19666,2000,13000,322000,1146819,
2028,-80,17848,5711,-800,-19969,2000,13000,321000,1146821,
1016,-104,17732,6102,-1277,-21138,2000,12000,319000,1146833,
844,-244,17664,6206,-1398,-21433,2000,12000,319000,1146836,
584,-116,17568,6275,-1596,-21538,2000,12000,319000,1146838,
140,-28,16816,6485,-2610,-22620,2000,12000,316000,1146851,
128,-60,16596,6516,-2889,-22752,2000,12000,316000,1146853,
40,-8,16264,6469,-3084,-22978,2000,12000,315000,1146856,
-204,296,15332,6203,-4297,-24094,2000,12000,312000,1146872,
-256,248,15448,6185,-4437,-24205,2000,12000,312000,1146874,
-156,336,15528,6041,-4504,-24196,2000,11000,311000,1146877,
-436,632,15148,5562,-4654,-24587,2000,11000,309000,1146889,
-380,516,15108,5407,-4622,-24637,2000,11000,309000,1146892,
-272,540,15220,5311,-4555,-24759,2000,11000,308000,1146894,
-188,292,15380,4764,-3927,-24607,2000,11000,306000,1146907,
-28,224,15484,4703,-3720,-24682,2000,11000,305000,1146909,
116,68,15648,4626,-3537,-24557,2000,10000,305000,1146912,
-92,-128,15964,4306,-2091,-24326,2000,10000,302000,1146924,
-176,-100,15976,4277,-1810,-24185,2000,10000,302000,1146927,
-348,-264,16008,4207,-1458,-24109,2000,10000,301000,1146929,
-1256,-264,15940,4072,192,-23667,2000,10000,299000,1146942,
-1588,-252,15888,4006,409,-23540,2000,10000,299000,1146944,
-1652,-208,15924,4016,638,-23523,2000,10000,298000,1146946,
-2944,92,15644,3757,1251,-22793,2000,11000,296000,1146959,
-3032,164,15944,3703,1343,-22709,2000,11000,296000,1146961,
-3372,88,15872,3659,1336,-22526,2000,11000,295000,1146964,
-4380,208,15800,3349,1291,-21967,2000,11000,293000,1146977,
-4640,208,15960,3278,1194,-21736,2000,11000,293000,1146979,
-4764,128,15932,3202,1149,-21632,2000,11000,292000,1146981,
-5344,344,15768,2869,519,-20901,2000,11000,290000,1146994,
-5280,288,15928,2789,383,-20810,2000,11000,290000,1146996,
-5428,236,15968,2756,260,-20712,2000,11000,289000,1146999,
-6052,-160,16476,2495,-358,-20039,2000,11000,287000,1147011,
-6076,-192,16320,2516,-494,-19912,2000,11000,287000,1147014,
-6328,-376,16476,2470,-634,-19696,2000,11000,287000,1147016,
-7260,-524,16068,2364,-1210,-18845,1000,11000,285000,1147029,
-7392,-440,16056,2232,-1308,-18567,1000,11000,284000,1147031,
-7576,-236,15956,2203,-1377,-18358,1000,11000,284000,1147033,
-8040,68,16020,1792,-1855,-17004,1000,11000,282000,1147046,
-8124,40,15956,1701,-1880,-16817,1000,11000,282000,1147048,
-8160,4,16080,1646,-1913,-16629,1000,11000,282000,1147051,
-8108,-16,15764,1206,-1989,-15239,1000,11000,280000,1147063,
-8184,-36,15560,1165,-1927,-14974,1000,11000,280000,1147066,
-8184,-92,15544,1060,-1872,-14636,1000,11000,280000,1147068,
-8232,284,15396,619,-1273,-13041,1000,11000,278000,1147081,
-8092,336,15248,515,-1145,-12694,1000,11000,278000,1147083,
-8256,232,15356,449,-1022,-12315,0,11000,278000,1147086,
-8832,192,15808,110,-557,-10944,0,11000,277000,1147098,
-9048,208,15848,31,-466,-10670,0,11000,277000,1147100,
-9116,140,15756,16,-409,-10379,0,11000,276000,1147103,
-9308,76,15868,-38,-399,-10015,0,11000,276000,1147105,
-9536,244,15604,-380,-532,-8327,0,12000,275000,1147118,
-9668,312,15672,-494,-585,-7987,0,12000,275000,1147120,
-9532,388,15760,-541,-636,-7711,0,12000,275000,1147123,
-9496,304,15720,-806,-1048,-6212,0,12000,274000,1147135,
-9588,444,15876,-855,-1142,-6001,0,12000,274000,1147138,
-9520,252,15792,-856,-1218,-5699,0,12000,274000,1147140,
-9176,496,15504,-1154,-1593,-4393,0,12000,274000,1147153,
-9024,476,15716,-1135,-1663,-4095,0,12000,274000,1147155,
-8948,372,15788,-1229,-1697,-3823,0,12000,274000,1147157,
-8156,492,15612,-1258,-1801,-2729,0,11000,273000,1147170,
-8096,404,15556,-1326,-1788,-2546,0,11000,273000,1147172,
-7912,504,15632,-1295,-1752,-2391,0,11000,273000,1147175,
-7120,800,15292,-1359,-1390,-1510,0,11000,273000,1147187,
-6992,940,15312,-1381,-1273,-1386,0,11000,273000,1147190,
-6720,908,15384,-1349,-1209,-1257,0,11000,273000,1147192,
-6304,1132,15360,-1392,-740,-701,0,11000,273000,1147205,
-6196,1096,15448,-1396,-704,-617,0,11000,273000,1147207,
-6072,1188,15232,-1412,-648,-519,0,11000,273000,1147209,
-5892,1160,15376,-1374,-518,-141,0,11000,273000,1147222,
-6008,1084,15516,-1377,-514,-90,0,11000,273000,1147224,
-5892,1104,15436,-1349,-499,-47,0,11000,273000,1147227,
-5704,1252,15320,-1314,-748,232,0,11000,273000,1147239,
-5464,1348,15224,-1277,-769,263,-1000,11000,273000,1147242,
-5500,1444,15288,-1312,-841,346,-1000,11000,273000,1147244,
-4844,1728,15228,-1368,-1010,467,-1000,11000,273000,1147257,
-4644,1884,15280,-1400,-1082,491,-1000,11000,273000,1147259,
-4476,1756,15272,-1429,-1060,524,-1000,11000,273000,1147261,
-3860,1556,15440,-1415,-898,517,-1000,11000,273000,1147274,
-3712,1560,15488,-1403,-844,504,-1000,11000,273000,1147276,
-3668,1564,15432,-1358,-784,504,-1000,11000,273000,1147279,
-3304,1588,15780,-1304,-313,485,-1000,11000,273000,1147292,
-3440,1472,15964,-1246,-232,475,-1000,11000,273000,1147294,
-3416,1408,15920,-1239,-129,464,-1000,11000,273000,1147296,
-3760,1044,16132,-1063,429,392,-1000,11000,273000,1147309,
-3668,1096,16224,-1045,483,370,-1000,11000,273000,1147311,
-3828,980,16028,-973,586,359,-1000,11000,273000,1147314,
-3688,1176,16068,-887,786,455,-1000,11000,273000,1147327,
-3788,1192,16080,-870,845,467,-1000,11000,273000,1147329,
-3692,1276,16056,-808,835,462,-1000,11000,273000,1147331,
-3476,1312,16224,-758,983,361,-1000,11000,274000,1147344,
-3628,1228,16132,-725,946,361,-1000,11000,274000,1147346,
-3608,1192,16144,-730,991,350,-1000,11000,274000,1147349,
-3460,1184,16212,-620,1025,459,-1000,12000,274000,1147361,
-3452,1152,16208,-641,1029,497,-1000,12000,274000,1147364,
-3244,1296,16244,-582,1188,554,-1000,12000,274000,1147376,
-3128,1332,16320,-593,1224,529,-1000,12000,274000,1147379,
-3116,1388,16364,-559,1301,488,-1000,12000,274000,1147381,
-3056,1232,16412,-552,1502,515,-1000,12000,274000,1147394,
-3196,1320,16308,-515,1535,525,-1000,12000,274000,1147396,
-3148,1328,16532,-506,1493,545,-1000,12000,274000,1147399,
-3404,1296,16472,-435,1480,533,-1000,12000,274000,1147411,
-3360,1292,16600,-480,1380,554,-1000,12000,274000,1147414,
-3408,1180,16460,-455,1362,570,-1000,12000,274000,1147416,
-3596,1340,16320,-438,1031,625,-1000,12000,274000,1147429,
-3492,1340,16260,-487,947,624,-1000,12000,274000,1147431,
-3396,1444,16220,-435,904,618,-1000,12000,274000,1147433,
-3196,1528,16064,-566,571,700,-1000,12000,274000,1147446,
-3096,1452,16040,-559,534,725,-1000,12000,274000,1147448,
-3048,1528,16116,-610,475,733,-1000,12000,274000,1147451,
-2776,1348,16068,-628,513,734,-1000,12000,274000,1147463,
-2768,1344,16308,-654,528,740,-1000,12000,274000,1147466,
-2648,1276,16344,-654,599,735,-1000,12000,274000,1147468,
-2724,1212,16364,-673,784,768,-1000,12000,274000,1147481,
-2752,1252,16404,-645,850,781,-1000,12000,274000,1147483,
-2748,1204,16504,-616,881,780,-1000,12000,274000,1147485,
-3128,1228,16516,-626,1018,764,-1000,12000,274000,1147498,
-3168,1316,16496,-585,946,796,-1000,13000,274000,1147500,
-3312,1204,16632,-630,925,799,-1000,13000,274000,1147503,
-3512,1080,16480,-615,628,882,-1000,13000,274000,1147515,
-3440,1124,16388,-647,535,893,-1000,13000,274000,1147518,
-3544,1148,16428,-648,529,917,-1000,13000,275000,1147520,
-3484,1136,16568,-676,199,991,-1000,13000,275000,1147533,
-3468,1152,16652,-666,218,956,-1000,13000,275000,1147535,
-3404,1152,16636,-637,143,998,-1000,13000,275000,1147537,
-3500,844,16620,-504,110,989,-1000,13000,275000,1147550,
-3400,828,16524,-523,99,1025,-1000,13000,275000,1147552,
-3496,760,16772,-513,119,1042,-1000,13000,275000,1147555,
-3204,1040,16428,-436,128,1092,-1000,13000,275000,1147567,
-3188,1156,16420,-447,183,1068,-1000,13000,275000,1147570,
-3096,1104,16300,-424,198,1049,-1000,13000,275000,1147572,
-3004,1100,16144,-408,435,917,-1000,13000,275000,1147585,
-3092,1152,16120,-368,494,891,-1000,13000,275000,1147587,
-2988,1216,16172,-391,530,902,-1000,13000,275000,1147590,
-3056,1356,16060,-360,663,898,-1000,13000,275000,1147602,
-3088,1388,16068,-410,667,934,-1000,13000,275000,1147605,
-3016,1336,15824,-424,743,907,-1000,13000,275000,1147607,
-3120,1388,15884,-477,790,854,-1000,13000,275000,1147620,
-3016,1436,15816,-482,859,817,-1000,13000,275000,1147622,
-3020,1408,15864,-458,845,796,-1000,13000,275000,1147624,
-3124,1564,15884,-502,844,762,-1000,13000,275000,1147637,
-3216,1480,16092,-531,772,769,-1000,13000,275000,1147639,
-3352,1416,15900,-536,767,757,-1000,13000,275000,1147642,
-3708,1532,15680,-621,333,699,-1000,13000,276000,1147655,
-3620,1556,15644,-655,235,703,-1000,13000,276000,1147657,
-3536,1560,15564,-682,207,676,-1000,13000,276000,1147659,
-3012,1720,15468,-865,-42,653,-1000,13000,276000,1147672,
-2836,1704,15516,-840,-49,625,-1000,13000,276000,1147674,
-2784,1696,15668,-841,-36,627,-1000,13000,276000,1147677,
-2584,1684,15468,-874,413,465,-1000,13000,276000,1147689,
-2720,1540,15544,-895,507,469,-1000,13000,276000,1147692,
-2756,1508,15572,-919,593,471,-1000,13000,276000,1147694,
-2728,1668,15740,-1008,790,440,-1000,13000,276000,1147707,
-2728,1740,15724,-1013,820,417,-1000,13000,276000,1147709,
-2944,1624,15688,-1009,820,395,-1000,13000,276000,1147712,
-3212,1416,15972,-1106,836,249,-1000,13000,276000,1147724,
-3264,1356,15948,-1062,777,249,-1000,13000,276000,1147726,
-3164,1292,15924,-1086,747,237,-1000,13000,276000,1147729,
-3448,1316,16248,-1078,566,230,-1000,13000,276000,1147741,
-3444,1292,16036,-1116,542,242,-1000,13000,276000,1147744,
-3420,1316,16300,-1087,545,247,-1000,13000,276000,1147746,
-3416,1260,15884,-1067,406,200,-1000,13000,276000,1147759,
-3404,1252,15904,-1044,406,162,-1000,13000,276000,1147761,
-3328,1324,15972,-1038,365,186,-1000,13000,276000,1147764,
-3032,1224,15960,-1057,551,213,-1000,13000,276000,1147776,
-3084,1264,16068,-1070,551,218,-1000,13000,276000,1147779,
-3016,1284,16216,-1067,629,208,-1000,13000,276000,1147781,
-3000,1204,16152,-1022,795,154,-1000,13000,276000,1147794,
-2972,1192,16272,-997,844,140,-1000,13000,276000,1147796,
-3100,1236,16236,-995,902,116,-1000,13000,276000,1147798,
-3244,1140,16208,-921,940,86,-2000,13000,276000,1147811,
-3396,1160,16292,-908,963,79,-2000,13000,276000,1147813,
-3384,1208,16316,-944,861,96,-2000,14000,276000,1147826,
-3292,1232,16240,-868,823,69,-2000,14000,276000,1147828,
-3292,1220,16424,-888,767,81,-2000,14000,276000,1147831,
-3228,1296,16460,-895,658,-29,-2000,14000,276000,1147843,
-3300,1244,16272,-904,618,-19,-2000,14000,276000,1147846,
-3160,1116,16240,-896,681,-20,-2000,14000,276000,1147848,
-3220,1120,16520,-803,712,-30,-2000,14000,276000,1147861,
-3288,1256,16436,-807,759,-36,-2000,14000,276000,1147863,
-3312,1136,16504,-743,793,-26,-2000,14000,276000,1147866,
-3292,1276,16364,-700,939,-78,-2000,14000,276000,1147878,
-3256,1248,16312,-638,920,-75,-2000,14000,276000,1147880,
-3232,1140,16228,-689,966,-75,-2000,14000,276000,1147883,
-3428,1148,16272,-606,992,-47,-2000,14000,276000,1147895,
-3564,1212,16200,-648,1001,-51,-2000,14000,276000,1147898,
-3632,1232,16216,-612,1015,-92,-2000,14000,276000,1147900,
-3724,1236,16124,-664,819,1,-2000,14000,276000,1147913,
-3728,1236,16208,-610,785,-27,-2000,14000,276000,1147915,
-3792,1200,16148,-659,704,4,-2000,14000,276000,1147917,
-3592,1436,16200,-663,495,13,-2000,14000,276000,1147930,
-3672,1356,16168,-660,492,38,-2000,14000,276000,1147932,
-3536,1212,16092,-674,517,22,-2000,14000,276000,1147935,
-3260,1108,16308,-619,575,64,-2000,14000,276000,1147947,
-3292,1260,16272,-658,598,39,-2000,14000,276000,1147950,
-3216,1296,16340,-560,615,49,-2000,14000,276000,1147952,
-3236,1228,16140,-600,710,11,-2000,14000,276000,1147965,
-3228,1176,16064,-569,701,39,-2000,14000,276000,1147967,
-3192,1324,16200,-583,677,17,-2000,14000,276000,1147969,
-3448,1276,16264,-495,725,5,-2000,14000,276000,1147982,
-3320,1216,16192,-514,723,21,-2000,14000,276000,1147985,
-3388,1304,16164,-491,721,25,-2000,14000,276000,1147987,
-3588,1208,16244,-441,481,-30,-2000,14000,276000,1148000,
