Ax,Ay,Az,Gx,Gy,Gz,Roll,Pitch,Yaw,Timestamp,Target
-1196,828,19764,-7603,-4128,-834,-2000,6000,277000,1093177,
-876,820,19920,-7494,-4159,-806,-2000,6000,277000,1093180,
-872,740,19940,-7468,-4254,-835,-2000,6000,277000,1093182,
-804,120,20232,-7037,-4657,-945,-3000,5000,277000,1093194,
-752,108,20356,-7022,-4810,-1025,-3000,5000,277000,1093197,
-668,168,20212,-6883,-4818,-1005,-3000,5000,277000,1093199,
-160,-116,19844,-6409,-4992,-1228,-4000,4000,277000,1093211,
-60,-160,19744,-6230,-4905,-1184,-4000,4000,277000,1093214,
-136,-148,19684,-6179,-4931,-1249,-4000,4000,277000,1093216,
76,220,19276,-5623,-4619,-961,-5000,4000,276000,1093228,
332,248,19104,-5680,-4618,-977,-5000,4000,276000,1093231,
480,272,19148,-5559,-4489,-833,-5000,4000,276000,1093233,
940,220,18744,-5351,-3866,-999,-5000,3000,276000,1093245,
860,200,18956,-5180,-3663,-1021,-5000,3000,276000,1093248,
876,124,18900,-5219,-3565,-1152,-5000,3000,276000,1093250,
1024,-256,18796,-4771,-2621,-1468,-60003589,-1018,36000,-1000,
1024,11400,12172,-15,727,-194,36000,-1000,283000,1095314,
1220,11188,11996,144,896,-123,36000,-1000,284000,1095327,
1276,11308,12048,73,861,-164,36000,-1000,284000,1095329,
964,-288,18496,-4391,-1254,-1310,-6000,2000,276000,1093285,
1124,-144,18368,-4145,-614,-1283,-7000,2000,276000,1093297,
1104,-292,18396,-4121,-538,-1277,-7000,2000,276000,1093299,
1184,-308,18272,-4015,-391,-1349,-7000,2000,276000,1093302,
732,-576,17904,-3787,54,-1484,-7000,2000,276000,1093314,
664,-636,17676,-3707,88,-1569,-7000,2000,276000,1093317,
704,-888,17376,-3677,-93,-1563,-7000,2000,276000,1093319,
188,-596,16720,-3682,-316,-1775,-8000,2000,276000,1093331,
732,-536,17060,-3607,153,-1692,-8000,2000,276000,1093334,
1040,-632,17056,-3536,544,-1771,-8000,2000,275000,1093336,
1572,-1100,19288,-2273,1740,-2237,-8000,2000,275000,1093348,
1220,-1144,19460,-2177,2048,-2308,-8000,2000,275000,1093351,
852,-1204,19604,-1959,2503,-2235,-8000,2000,275000,1093353,
-916,-1664,20436,-1271,2862,-1545,-8000,2000,275000,1093366,
-972,-1588,20360,-1135,2790,-1363,-8000,2000,275000,1093368,
-1256,-1700,20268,-1188,2624,-1274,-8000,3000,275000,1093370,
-1556,-1584,18880,-1079,1928,-744,-8000,3000,275000,1093383,
-1352,-1444,18652,-1181,1761,-762,-8000,3000,275000,1093385,
-1340,-1468,18504,-1001,1732,-694,-8000,3000,275000,1093388,
-712,-1244,17356,-982,1495,-838,-8000,3000,275000,1093400,
-628,-1220,17128,-838,1598,-862,-8000,3000,275000,1093402,
-552,-1200,16812,-912,1565,-889,-8000,3000,275000,1093405,
-1092,-1416,15888,-809,2006,-680,-9000,3000,275000,1093417,
-1428,-1476,15584,-797,2090,-531,-9000,3000,275000,1093420,
-1472,-1444,15388,-795,2107,-463,-9000,3000,275000,1093422,
-1480,-1224,14772,-1107,1874,6,-9000,3000,274000,1093434,
-1380,-1232,14508,-1231,1678,-52,-9000,3000,274000,1093437,
-1184,-1136,14276,-1262,1572,-70,-9000,3000,274000,1093439,
-540,-800,13744,-1722,803,-702,-9000,4000,274000,1093452,
-444,-632,13800,-1732,712,-801,-9000,4000,274000,1093454,
-128,-556,13736,-1849,511,-963,-9000,4000,274000,1093456,
432,-552,13852,-2050,-9,-1440,-9000,3000,274000,1093469,
348,-656,14028,-2182,-109,-1535,-9000,3000,274000,1093471,
316,-480,14104,-2158,-99,-1520,-9000,3000,274000,1093473,
144,-956,14884,-2253,-377,-1517,-9000,3000,274000,1093486,
264,-1084,14928,-2085,-230,-1472,-9000,3000,274000,1093488,
200,-1112,15340,-2186,-248,-1475,-9000,3000,274000,1093490,
744,-1348,17392,-1464,553,-1570,-9000,3000,274000,1093503,
700,-1324,17832,-1410,758,-1594,-9000,3000,274000,1093505,
1044,-1308,19116,-1020,1147,-1634,-9000,3000,274000,1093507,
1172,-2080,25240,700,4017,-1732,-9000,4000,274000,1093520,
1156,-2220,25976,1260,4883,-1748,-9000,4000,274000,1093522,
944,-2472,26340,1464,5742,-1777,-9000,4000,273000,1093525,
700,-2200,22996,2862,10317,-1451,-9000,5000,273000,1093537,
892,-1752,21396,2898,10828,-1393,-9000,5000,273000,1093539,
900,-1356,20404,3161,11194,-1303,-9000,5000,273000,1093542,
200,1176,15076,3067,11599,-239,-9000,6000,273000,1093554,
-176,1632,14512,2918,11502,5,-9000,6000,273000,1093557,
-120,1784,14260,2776,11422,173,-8000,6000,273000,1093559,
-1552,1532,15276,1912,10729,118,-8000,7000,273000,1093571,
-2400,1244,15916,1935,10149,136,-8000,8000,273000,1093574,
-2300,1092,16272,1788,9443,-63,-8000,8000,273000,1093576,
-3720,-232,16232,1416,7568,-553,-8000,9000,272000,1093588,
-3908,-152,16360,1097,7307,-618,-8000,9000,272000,1093591,
-3748,-324,17244,1319,7181,-591,-8000,9000,272000,1093593,
-3388,-220,16260,960,5186,-427,-8000,9000,272000,1093606,
-3388,-172,16084,1046,5055,-349,-8000,9000,272000,1093608,
-3140,-124,15988,868,4841,-345,-8000,10000,272000,1093610,
-2724,36,16112,773,4298,-504,-8000,10000,272000,1093623,
-2796,8,16344,649,4205,-515,-8000,10000,272000,1093625,
-3024,-4,16312,675,4169,-587,-8000,10000,272000,1093627,
-3568,-212,16352,349,3702,-13,-8000,10000,272000,1093640,
-3476,-168,16516,328,3598,-48,-8000,10000,272000,1093642,
-3636,-152,16536,211,3420,7,-8000,11000,272000,1093644,
-4004,-244,16216,-68,2493,224,-8000,11000,272000,1093657,
-3992,-228,16100,-118,2346,307,-7000,11000,272000,1093659,
-3812,-236,16028,-146,2147,216,-7000,11000,272000,1093661,
-3680,-268,16028,-410,974,55,-7000,11000,272000,1093674,
-3352,-336,16088,-514,750,3,-7000,11000,272000,1093676,
-3476,-356,16232,-468,657,5,-7000,11000,272000,1093679,
-3032,-676,16208,-621,262,-95,-8000,11000,272000,1093691,
-2612,-668,16348,-550,310,5,-8000,11000,272000,1093693,
-2768,-624,16272,-627,258,23,-8000,11000,272000,1093696,
-1888,-440,16452,-430,423,108,-8000,11000,272000,1093708,
-1948,-444,16484,-548,398,20,-8000,11000,272000,1093710,
-1868,-364,16336,-440,517,33,-8000,11000,272000,1093713,
-2140,-160,16356,-529,889,-221,-8000,11000,272000,1093725,
-2312,-136,16376,-378,1049,-215,-8000,11000,272000,1093728,
-2304,-92,16408,-515,979,-272,-8000,11000,272000,1093730,
-2828,0,16364,-459,1102,27,-8000,11000,272000,1093742,
-2912,0,16300,-585,1083,14,-8000,11000,272000,1093745,
-2836,28,16232,-468,1135,34,-8000,11000,272000,1093747,
-3560,-252,16152,-677,771,52,-8000,11000,272000,1093760,
-3612,-212,16080,-562,732,72,-8000,11000,272000,1093762,
-3528,-272,16008,-719,567,72,-8000,11000,272000,1093764,
-3656,-152,15964,-705,-216,-86,-8000,11000,272000,1093777,
-3704,-136,16072,-844,-423,-88,-8000,11000,272000,1093779,
-3780,-196,15860,-745,-555,-96,-8000,11000,272000,1093781,
-3560,20,16396,-1040,-1459,124,-8000,11000,272000,1093794,
-3420,120,16360,-1098,-1645,122,-8000,11000,272000,1093796,
-3368,216,16380,-1156,-1748,156,-8000,11000,272000,1093798,
-2940,564,16720,-1554,-2577,231,-8000,11000,272000,1093811,
-2988,516,16824,-1590,-2699,280,-8000,11000,272000,1093813,
-2836,712,16872,-1755,-2905,224,-8000,11000,272000,1093815,
-2756,868,17120,-2179,-3802,183,-8000,10000,272000,1093828,
-2600,908,17296,-2386,-4080,118,-8000,10000,272000,1093830,
-2820,768,17104,-2417,-4215,130,-8000,10000,272000,1093832,
-2936,848,17808,-3213,-5626,148,-8000,10000,272000,1093845,
-2880,952,18044,-3212,-5868,239,-8000,10000,272000,1093847,
-3140,908,18172,-3456,-6232,283,-8000,10000,272000,1093850,
-4260,1124,19092,-4135,-8939,854,-9000,9000,273000,1093862,
-4336,1260,19192,-4443,-9716,923,-9000,9000,273000,1093865,
-4420,1316,19500,-4420,-10426,1045,-9000,8000,273000,1093867,
-5532,1624,21076,-5500,-16704,1567,-9000,7000,273000,1093880,
-5748,1640,21296,-5580,-17931,1626,-9000,7000,273000,1093882,
-5772,1756,21304,-5859,-18958,1696,-9000,6000,273000,1093884,
-3192,324,23784,-6339,-18510,1164,-10000,4000,274000,1093897,
-2172,-304,25408,-5968,-17245,792,-10000,4000,274000,1093899,
-844,-1240,26940,-5401,-16213,244,-10000,4000,274000,1093901,
-676,-2404,28584,-3663,-13056,-1792,-10000,3000,274000,1093914,
-1220,-1964,28140,-3372,-12307,-1489,-10000,2000,274000,1093916,
-1460,-1800,28180,-3198,-11546,-874,-10000,2000,274000,1093919,
-264,-640,26628,-2654,-9532,2907,-10000,1000,275000,1093931,
-92,-844,26272,-2187,-9184,3440,-10000,1000,275000,1093933,
928,-1804,24132,454,-8122,4129,-10000,0,275000,1093946,
1076,-1768,23232,915,-7911,3977,-10000,0,275000,1093948,
968,-1704,22548,1080,-7976,3752,-10000,0,275000,1093951,
48,-428,20452,1974,-8379,2263,-10000,0,276000,1093963,
-812,-408,20388,1951,-8511,2084,-10000,0,276000,1093965,
-1152,-340,20284,2213,-8458,2044,-10000,0,276000,1093968,
-2256,-1628,22932,3373,-9123,1779,-10000,-1000,276000,1093980,
-2700,-2268,23528,3904,-9555,1762,-10000,-1000,276000,1093983,
-3152,-2748,24036,4277,-10185,1788,-9000,-1000,276000,1093985,
-5256,-4004,24728,6489,-13746,2705,-9000,-2000,277000,1093998,
-5052,-3872,24872,6691,-14432,2950,-9000,-2000,277000,1094000,
-4616,-3828,25012,7109,-14797,3144,-9000,-3000,277000,1094002,
1072,-2312,25812,8797,-14240,2328,-8000,-4000,277000,1094015,
1652,-2124,25944,9231,-13652,2014,-8000,-4000,277000,1094017,
3120,-1876,26256,9539,-13113,1830,-7000,-4000,277000,1094019,
7416,-1844,26184,10936,-5062,-48,-6000,-5000,278000,1094032,
6808,-2232,27004,11373,-4404,-109,-6000,-5000,278000,1094034,
5720,-2680,26160,13339,1866,1177,-5000,-5000,278000,1094047,
5248,-2832,25784,13736,2921,1578,-5000,-5000,278000,1094049,
4956,-2764,25352,13933,4016,1887,-4000,-5000,278000,1094051,
2332,-2548,24444,15251,7804,3319,-3000,-4000,278000,1094064,
1904,-2388,24032,15321,8014,3434,-3000,-4000,278000,1094066,
1172,-2328,23948,15619,8185,3665,-2000,-4000,278000,1094069,
-884,-1644,22704,15774,8477,4235,-1000,-3000,278000,1094081,
-688,-1348,22408,16225,7440,4079,-1000,-3000,279000,1094083,
-556,-1112,21584,15998,6863,3877,0,-3000,279000,1094086,
-1128,-648,21012,16210,4627,3521,0,-2000,279000,1094098,
-1004,-584,20508,16026,4096,3479,0,-2000,279000,1094100,
-812,-632,20516,16181,3684,3393,1000,-2000,279000,1094103,
-376,-616,19592,16099,1107,3262,2000,-2000,279000,1094115,
-316,-656,19528,16279,786,3242,2000,-2000,279000,1094118,
-232,-664,19260,16124,415,3252,3000,-2000,279000,1094120,
512,-76,18160,16339,-1263,3160,4000,-2000,280000,1094132,
588,20,17884,16250,-1502,3127,5000,-2000,280000,1094135,
592,56,17676,16318,-1695,3076,5000,-2000,280000,1094137,
1016,920,16840,16034,-2346,2500,6000,-2000,280000,1094149,
1132,1140,16756,15947,-2423,2392,7000,-2000,280000,1094152,
1424,1292,16464,15913,-2419,2300,7000,-2000,280000,1094154,
2148,1768,15816,15517,-2404,1553,8000,-3000,280000,1094167,
2152,1668,15692,15590,-2301,1481,9000,-3000,280000,1094169,
2060,1644,15624,15491,-2360,1358,9000,-3000,280000,1094171,
2220,1796,14884,15477,-2660,1225,10000,-3000,280000,1094184,
3040,1892,14024,15169,-2082,1052,11000,-3000,280000,1094186,
2712,1828,13852,15136,-1042,953,11000,-3000,280000,1094188,
2428,1680,13428,14785,-754,602,12000,-3000,280000,1094201,
2352,1536,13224,14908,-541,548,13000,-3000,280000,1094203,
2412,1680,13036,14730,-420,469,13000,-3000,280000,1094205,
2540,1828,11956,14691,145,91,14000,-3000,280000,1094218,
2500,1800,11612,14496,274,15,14000,-3000,280000,1094220,
2516,1848,11456,14605,397,-88,15000,-3000,280000,1094223,
2660,2564,10276,14117,1031,-336,16000,-3000,280000,1094235,
2880,2796,10392,14194,1172,-405,16000,-3000,280000,1094237,
2992,2992,10416,13992,1210,-447,16000,-3000,280000,1094240,
2744,4016,9736,13612,1720,-657,18000,-3000,280000,1094252,
2772,4280,9792,13400,1834,-650,18000,-3000,280000,1094255,
2892,4392,9832,13416,1893,-672,18000,-3000,280000,1094257,
2568,4748,9796,12651,2017,-841,20000,-3000,280000,1094269,
2488,4888,9652,12605,2026,-965,20000,-3000,280000,1094272,
2352,4836,9704,12437,2049,-949,20000,-3000,280000,1094274,
2296,4788,9308,11930,1945,-1277,21000,-3000,280000,1094286,
2280,4752,9120,11791,1945,-1316,21000,-3000,280000,1094289,
2184,4588,9116,11777,1890,-1387,22000,-3000,280000,1094291,
2024,4600,8300,11278,2090,-1421,23000,-2000,280000,1094304,
2148,4588,8020,11165,2076,-1536,23000,-2000,280000,1094306,
2424,4696,8004,11074,2079,-1458,23000,-2000,280000,1094308,
2628,5728,8252,10683,1946,-1380,24000,-2000,280000,1094321,
2656,5804,8248,10632,2036,-1263,24000,-2000,280000,1094323,
2676,6020,8280,10502,2082,-1225,25000,-2000,280000,1094325,
2804,6292,7692,9802,3397,-848,26000,-2000,280000,1094338,
2956,6260,7428,9577,3625,-925,26000,-2000,280000,1094340,
2964,6308,7332,9541,3920,-916,26000,-2000,280000,1094343,
2332,6224,7076,9071,4811,-996,27000,-1000,280000,1094355,
2252,6232,7048,9136,4995,-927,27000,-1000,280000,1094358,
2036,6312,7096,8890,5042,-889,27000,-1000,281000,1094360,
1432,6688,7392,8457,5003,-210,28000,-1000,281000,1094372,
1588,6828,7560,8203,4938,-125,28000,-1000,281000,1094375,
1464,6912,7500,8206,5026,-5,29000,-1000,281000,1094377,
2304,7364,7212,7365,4876,168,29000,0,281000,1094389,
2324,7320,6912,7416,4953,152,30000,0,281000,1094392,
2416,7364,6988,7107,4924,142,30000,0,281000,1094394,
2508,7336,7240,7187,4991,98,30000,0,281000,1094396,
1780,7432,7396,6635,4626,312,31000,0,281000,1094409,
1616,7440,7480,6636,4572,392,31000,0,281000,1094411,
1588,7608,7492,6420,4440,525,31000,0,282000,1094414,
1652,8312,8136,5993,3554,1080,31000,0,282000,1094426,
1816,8540,8196,5815,3287,1210,32000,0,282000,1094428,
1548,8408,8180,5789,3096,1280,32000,0,282000,1094431,
1368,8500,8216,5561,2942,1381,32000,0,282000,1094433,
1616,8968,8200,4902,2394,1713,32000,0,282000,1094446,
1768,9036,8152,4767,2230,1753,32000,0,282000,1094448,
1676,9032,8144,4742,2025,1687,33000,0,282000,1094450,
2032,9076,7852,4288,1234,1453,33000,0,282000,1094463,
1840,8968,8048,4089,985,1363,33000,0,282000,1094465,
1928,9044,8164,4072,785,1412,33000,0,283000,1094467,
1736,9068,8220,3904,552,1333,33000,0,283000,1094470,
1896,9004,8028,3565,-228,1475,34000,0,283000,1094482,
1880,9036,8148,3325,-431,1503,34000,0,283000,1094485,
2184,9108,8048,3339,-441,1531,34000,0,283000,1094487,
2864,9184,7884,2897,-553,1620,34000,0,283000,1094499,
2920,9200,7844,2960,-373,1704,34000,0,283000,1094502,
2796,9240,7916,2777,-277,1630,34000,0,283000,1094504,
3032,9260,7956,2871,-103,1721,34000,0,283000,1094506,
2740,9620,8288,2516,588,1619,35000,0,283000,1094519,
2720,9732,8428,2632,698,1678,35000,0,283000,1094521,
2548,9872,8584,2478,645,1671,35000,0,283000,1094523,
2300,10792,9060,2275,498,1922,35000,0,283000,1094536,
2184,11040,9176,2045,434,1979,35000,0,283000,1094538,
2040,11056,9132,2083,446,2064,35000,0,283000,1094541,
1876,11160,9128,1825,397,2100,35000,0,283000,1094543,
1440,11008,9324,1455,-108,2251,36000,-1000,284000,1094555,
1388,11020,9172,1277,-298,2246,36000,-1000,284000,1094558,
1412,10832,9280,1320,-413,2186,36000,-1000,284000,1094560,
1268,9900,9168,755,-1181,2096,36000,-1000,284000,1094572,
1320,9760,9212,748,-1334,2059,36000,-1000,284000,1094575,
1520,9752,9272,704,-1433,2113,36000,-1000,284000,1094577,
1720,10152,9264,746,-1900,2268,36000,-1000,284000,1094590,
1852,10304,9264,789,-1852,2319,36000,-1000,284000,1094592,
1944,10452,9164,675,-1891,2325,36000,-1000,284000,1094594,
2624,10944,8984,442,-1739,2137,36000,-2000,284000,1094607,
2880,10964,9148,332,-1783,2052,36000,-2000,284000,1094609,
3060,11024,9328,385,-1702,2009,36000,-2000,284000,1094611,
3128,11520,9688,269,-1095,1569,36000,-2000,284000,1094624,
3076,11552,9696,370,-868,1543,36000,-2000,284000,1094626,
3128,11632,9748,170,-761,1461,36000,-2000,284000,1094628,
2964,11936,9912,157,-347,1214,36000,-2000,284000,1094641,
2968,11936,9948,-4,-372,1121,36000,-2000,284000,1094643,
2752,11972,9924,65,-225,1105,37000,-2000,284000,1094646,
2300,11852,10164,-391,0,781,37000,-2000,284000,1094658,
2440,11652,10388,-267,54,752,37000,-2000,284000,1094660,
2272,11500,10468,-455,-71,651,37000,-2000,284000,1094663,
1832,11080,10536,-462,-532,358,37000,-3000,284000,1094675,
1636,11044,10600,-574,-684,307,37000,-3000,284000,1094678,
1748,11112,10456,-468,-702,286,37000,-3000,284000,1094680,
2244,11108,10716,-679,-783,122,37000,-3000,284000,1094692,
2096,11068,10716,-614,-763,91,37000,-3000,284000,1094695,
1148,10944,12708,-606,-3250,-950,36000,-1000,283000,1095412,
1156,10912,12576,-647,-3220,-1011,36000,-2000,283000,1095415,
1320,10816,12532,-490,-3083,-959,36000,-2000,282000,1095417,
1488,10720,11976,-222,-2350,-1012,36000,-2000,282000,1095429,
1400,10696,11964,-55,-2124,-981,36000,-2000,282000,1095432,
1484,10724,11844,-105,-1981,-987,36000,-2000,282000,1095434,
1376,10636,11612,261,-877,-949,36000,-2000,282000,1095447,
1492,10644,11680,127,-734,-987,36000,-2000,282000,1095449,
1480,10564,11600,303,-455,-967,36000,-2000,282000,1095451,
1484,10404,11608,489,456,-933,36000,-2000,282000,1095464,
1500,10500,11600,669,635,-912,37000,-2000,282000,1095466,
1584,10536,11520,578,726,-861,37000,-2000,282000,1095468,
1188,10552,11012,789,1366,-581,37000,-2000,282000,1095481,
928,10404,11040,695,1351,-464,37000,-2000,282000,1095483,
860,10328,11024,805,1441,-440,37000,-2000,282000,1095485,
900,10452,10676,622,1361,-93,37000,-1000,282000,1095498,
892,10536,10696,750,1337,-39,37000,-1000,282000,1095500,
928,10528,10624,585,1253,-13,37000,-1000,282000,1095503,
916,10728,10448,523,1026,160,37000,-1000,282000,1095515,
920,10668,10536,454,954,243,37000,-1000,282000,1095517,
1164,10832,10264,495,914,258,37000,-1000,282000,1095520,
1400,11004,10232,350,798,503,37000,-1000,282000,1095532,
1204,11112,10408,287,797,526,37000,-1000,282000,1095535,
1156,11296,10384,308,871,602,37000,-1000,282000,1095537,
1260,11716,10132,81,827,678,37000,-1000,282000,1095549,
1376,11848,10304,149,859,713,37000,-1000,282000,1095552,
1372,11868,10156,28,776,666,37000,-1000,282000,1095554,
1004,11840,10064,-214,439,671,37000,-1000,283000,1095566,
1012,11900,9928,-386,265,587,37000,-1000,283000,1095569,
1140,11804,10260,-324,225,620,37000,-1000,283000,1095571,
1360,11776,10572,-605,-277,523,37000,-1000,283000,1095584,
1360,11788,10628,-483,-272,508,37000,-1000,283000,1095586,
1248,11896,10728,-659,-382,488,37000,-1000,283000,1095588,
1320,11820,10840,-601,-332,479,37000,-1000,283000,1095601,
1456,11872,10872,-765,-402,450,37000,-1000,283000,1095603,
1436,11872,10848,-616,-345,415,37000,-2000,283000,1095605,
1848,11748,10816,-785,-282,163,37000,-2000,283000,1095618,
1940,11700,10888,-641,-166,133,37000,-2000,283000,1095620,
1944,11684,10828,-772,-153,90,37000,-2000,283000,1095622,
2112,11672,10856,-633,458,-194,37000,-2000,283000,1095635,
2092,11700,10932,-643,546,-211,37000,-2000,283000,1095637,
2148,11768,11004,-548,693,-289,37000,-2000,283000,1095640,
2136,11800,11132,-523,1323,-617,37000,-1000,283000,1095652,
2068,11768,11028,-528,1350,-746,37000,-1000,283000,1095655,
2048,11616,11160,-542,1462,-769,37000,-1000,283000,1095657,
1496,11392,10700,-485,1451,-1166,37000,-1000,283000,1095669,
1524,11448,10952,-464,1500,-1163,37000,-1000,283000,1095672,
1488,11348,10744,-478,1455,-1232,37000,-1000,283000,1095674,
1660,11300,10552,-543,1435,-1370,37000,-1000,283000,1095687,
1588,11328,10548,-569,1425,-1457,37000,-1000,283000,1095689,
1652,11292,10484,-560,1429,-1429,37000,-1000,283000,1095691,
1556,11360,10200,-686,1424,-1615,37000,-1000,283000,1095704,
1512,11316,10072,-650,1480,-1574,37000,-1000,283000,1095706,
1440,11172,10008,-734,1410,-1652,37000,-1000,283000,1095708,
1524,11048,9552,-804,1302,-1710,37000,-1000,283000,1095721,
1536,10920,9664,-999,1199,-1762,37000,-1000,282000,1095723,
1672,10812,9612,-916,1256,-1688,37000,-1000,282000,1095726,
1604,10284,9228,-1234,1182,-1782,37000,0,282000,1095738,
1484,10220,9128,-1129,1279,-1800,37000,0,282000,1095740,
1616,10188,9236,-1298,1225,-1776,37000,0,282000,1095743,
1688,9736,8380,-1362,1457,-1688,37000,0,282000,1095755,
1640,9600,8204,-1536,1471,-1677,37000,0,282000,1095758,
1588,9472,7880,-1440,1574,-1623,37000,0,282000,1095760,
1436,9068,7068,-1864,1792,-1370,37000,0,282000,1095773,
1460,8968,6808,-1863,1796,-1363,37000,0,282000,1095775,
1312,8820,6660,-2021,1819,-1256,37000,0,282000,1095777,
1672,8696,5572,-2593,2018,-955,37000,0,282000,1095790,
1780,8704,5636,-2684,2029,-839,37000,0,282000,1095792,
1708,8692,5656,-2814,1916,-784,37000,0,282000,1095794,
1788,9064,5828,-3531,1529,37,37000,0,282000,1095807,
1640,9236,5980,-3750,1350,121,37000,0,283000,1095809,
1640,9312,5820,-3799,1319,294,36000,0,283000,1095811,
1700,9408,5800,-4031,1176,410,36000,0,283000,1095814,
1900,9824,6032,-4755,528,1014,36000,0,283000,1095826,
1728,9812,6004,-5029,321,1044,36000,0,283000,1095829,
1868,9700,5868,-5038,197,1157,36000,0,283000,1095831,
1556,8964,5448,-5976,-257,1518,36000,0,283000,1095843,
1656,8864,5460,-6011,-195,1594,35000,0,283000,1095846,
1424,8576,5416,-6253,-231,1681,35000,0,283000,1095848,
1512,8480,5184,-6287,-99,1770,35000,0,283000,1095850,
1716,7624,4732,-6935,514,2391,35000,0,283000,1095863,
1624,7464,4732,-6916,708,2491,35000,0,283000,1095865,
1660,7352,4736,-7090,833,2600,35000,0,283000,1095868,
1816,7072,5260,-7154,1462,3004,34000,0,283000,1095880,
1840,7088,5168,-7208,1537,3045,34000,0,284000,1095882,
2160,7164,5020,-7177,1716,3120,34000,0,284000,1095885,
1956,7244,5168,-7331,1851,3118,34000,0,284000,1095887,
2680,7660,5044,-7670,2771,3101,33000,0,284000,1095900,
2912,7880,5032,-7823,2915,3019,33000,0,284000,1095902,
2864,7864,4976,-7846,3149,2964,33000,0,284000,1095904,
2944,7816,5164,-8541,3983,2383,32000,0,285000,1095917,
2724,7888,5348,-8667,4109,2226,32000,0,285000,1095919,
2656,7776,5352,-8784,4210,2108,32000,0,285000,1095921,
2308,7760,5692,-9728,4511,1494,31000,0,285000,1095934,
2248,7824,5940,-9803,4491,1462,31000,0,285000,1095936,
2084,7712,6200,-10074,4377,1339,31000,0,285000,1095939,
1180,7268,7048,-10919,3678,1077,30000,0,285000,1095951,
1188,7256,7132,-11275,3465,956,30000,0,286000,1095954,
1220,7200,7220,-11383,3341,923,29000,0,286000,1095956,
764,5660,8048,-12481,2340,319,28000,0,286000,1095968,
748,5396,8004,-12487,2220,286,28000,0,286000,1095971,
660,4868,8060,-12764,2026,239,28000,0,286000,1095973,
692,4632,7796,-12765,1982,202,28000,0,286000,1095975,
732,3444,7816,-13568,1874,156,26000,0,286000,1095988,
760,3252,7972,-13540,1948,99,26000,0,286000,1095990,
928,3180,8244,-13535,1716,58,26000,0,286000,1095992,
1064,4056,8544,-13681,2662,-164,24000,0,286000,1096005,
992,4368,8668,-13789,2757,-121,24000,0,286000,1096007,
876,4592,8776,-13890,2836,-187,24000,0,286000,1096009,
656,5524,9108,-15128,3110,-296,23000,0,286000,1096022,
812,5584,9388,-15428,3094,-385,22000,0,286000,1096024,
832,5644,9652,-15648,3000,-448,22000,0,286000,1096027,
572,4340,12384,-16360,1665,-1315,20000,1000,286000,1096039,
484,4004,12508,-16424,1555,-1469,20000,1000,286000,1096041,
320,3728,12796,-16643,1425,-1672,20000,1000,286000,1096044,
148,2356,13944,-17024,1357,-2154,18000,1000,286000,1096056,
204,2356,14168,-16940,1288,-2194,18000,1000,286000,1096059,
80,2048,13772,-17004,1321,-2181,18000,1000,286000,1096061,
-56,2336,13480,-17006,1721,-2144,16000,1000,286000,1096073,
124,2424,13484,-16779,1912,-2127,16000,1000,286000,1096076,
-4,2652,13280,-16912,2019,-2209,15000,1000,286000,1096078,
204,3264,13052,-17132,2508,-2790,14000,1000,285000,1096091,
72,3388,13188,-17208,2491,-2955,13000,2000,285000,1096093,
140,3516,13416,-17114,2549,-3141,13000,2000,285000,1096095,
-500,3628,15500,-17583,2095,-4506,11000,2000,285000,1096108,
-712,3580,15016,-17554,1727,-4620,11000,2000,285000,1096110,
-512,3508,16492,-17537,1320,-4824,11000,2000,285000,1096112,
-628,3580,18608,-17743,826,-5706,9000,2000,284000,1096125,
-572,3608,19004,-17607,845,-5701,9000,2000,284000,1096127,
-600,3516,19172,-17666,1001,-5815,8000,2000,284000,1096130,
-884,3152,21756,-17243,1279,-6193,7000,2000,284000,1096142,
-784,3100,22052,-17209,1355,-6372,6000,2000,283000,1096145,
-772,3160,22540,-17173,1359,-6487,6000,2000,283000,1096147,
-940,3404,24688,-16425,1252,-7255,4000,3000,283000,1096159,
-736,3504,24824,-16248,1148,-7314,4000,3000,283000,1096162,
-932,3488,25292,-16087,1155,-7445,4000,3000,282000,1096164,
-1292,3276,25856,-15310,734,-7896,2000,3000,282000,1096176,
-1368,3268,25760,-15200,719,-8009,2000,3000,281000,1096179,
-1764,2980,26124,-14980,743,-8014,2000,3000,281000,1096181,
-1972,2100,26028,-14189,1661,-8433,0,3000,281000,1096194,
-1808,2012,26068,-13911,1824,-8446,0,3000,280000,1096196,
-1724,1708,26020,-13782,1862,-8625,0,3000,280000,1096198,
-2060,688,26400,-12429,2558,-8830,0,3000,279000,1096211,
-2224,440,26676,-12306,2736,-8873,-1000,3000,279000,1096213,
-2288,276,26824,-11947,2986,-8740,-1000,3000,279000,1096215,
-2060,8,28472,-10603,4668,-8161,-2000,4000,278000,1096228,
-2068,32,28632,-10151,5152,-7963,-2000,4000,278000,1096230,
-2136,64,29068,-9993,5463,-7945,-2000,4000,278000,1096233,
-2132,-296,30296,-7985,7038,-7569,-3000,5000,277000,1096245,
-2200,-460,30320,-7781,7220,-7520,-3000,5000,277000,1096247,
-2176,-424,30356,-7354,7501,-7503,-3000,5000,277000,1096250,
-2976,-1200,29768,-5826,7665,-7163,-4000,6000,276000,1096262,
-3336,-1140,29656,-5419,7588,-7043,-4000,6000,276000,1096265,
-3360,-984,29480,-5332,7363,-6920,-4000,6000,276000,1096267,
-4160,-704,28416,-4271,5740,-6222,-5000,6000,275000,1096280,
-4352,-644,28048,-4199,5359,-6071,-5000,6000,275000,1096282,
-4304,-512,27952,-4003,4983,-6052,-5000,7000,275000,1096284,
-3664,248,27620,-3403,2692,-5974,-5000,7000,274000,1096297,
-3352,328,27640,-3261,2297,-6030,-5000,7000,274000,1096299,
-3348,396,27556,-3166,1924,-5976,-5000,7000,274000,1096301,
-3204,184,27984,-2435,137,-6060,-6000,7000,274000,1096314,
-3260,144,28108,-2241,-132,-5958,-6000,7000,274000,1096316,
-3144,20,28016,-2093,-422,-5987,-6000,7000,273000,1096318,
-2480,-828,28348,-1167,-1653,-5829,-6000,6000,273000,1096331,
-2408,-776,28332,-1027,-1889,-5907,-6000,6000,273000,1096333,
-2256,-884,28352,-787,-2018,-5907,-6000,6000,273000,1096336,
-1168,-848,28668,362,-2372,-6202,-6000,6000,272000,1096348,
-996,-932,28740,758,-2238,-6213,-6000,6000,272000,1096351,
-920,-904,28700,868,-2275,-6288,-6000,6000,272000,1096353,
-544,-792,28452,2312,-1703,-6335,-6000,6000,271000,1096366,
-364,-704,28404,2347,-1619,-6313,-6000,6000,271000,1096368,
-396,-772,28456,2713,-1445,-6284,-6000,6000,271000,1096370,
-56,-1084,28148,3963,-828,-6289,-5000,5000,271000,1096383,
-216,-1176,27880,4311,-651,-6344,-5000,5000,270000,1096385,
-140,-1256,27808,4466,-519,-6293,-5000,5000,270000,1096387,
-744,-1140,27404,5840,385,-6037,-5000,5000,270000,1096400,
-960,-1144,27428,6081,572,-5945,-4000,5000,270000,1096402,
-1208,-1116,27288,6321,630,-5952,-4000,5000,270000,1096404,
-2224,-344,27072,7402,405,-5782,-4000,5000,269000,1096417,
-2204,-200,27020,7473,157,-5841,-4000,5000,269000,1096419,
-2196,20,26828,7675,-15,-5787,-3000,5000,269000,1096422,
-2388,104,27224,8347,-1498,-6308,-3000,5000,268000,1096434,
-2464,-96,27220,8681,-1698,-6389,-3000,5000,268000,1096437,
-2292,-204,27136,8671,-2036,-6527,-2000,5000,268000,1096439,
-2352,-1276,26224,9909,-2913,-6915,-1000,5000,267000,1096452,
-2480,-1528,25828,9966,-3031,-6942,-1000,5000,267000,1096454,
-2356,-1528,25668,10322,-3025,-6995,-1000,5000,267000,1096456,
-2028,-1716,24584,11370,-2813,-7151,0,4000,266000,1096469,
-1904,-1568,24272,11699,-2638,-7194,0,4000,266000,1096471,
-1840,-1396,23988,11779,-2519,-7148,0,4000,266000,1096473,
-1696,-804,23000,12710,-1303,-7055,0,4000,265000,1096486,
-1716,-660,22808,12825,-909,-6973,1000,4000,265000,1096488,
-1576,-580,22620,13011,-654,-7054,1000,4000,265000,1096491,
-2628,-1016,21436,13715,1198,-6746,2000,4000,265000,1096503,
-2972,-1204,21276,13792,1459,-6741,2000,4000,264000,1096506,
-2780,-1284,21336,13942,1734,-6597,3000,4000,264000,1096508,
-3648,-1416,21364,14623,2120,-6215,4000,5000,264000,1096520,
-3860,-1484,21088,14824,2234,-6073,4000,5000,264000,1096523,
-3996,-1416,21064,14903,2238,-6061,4000,5000,263000,1096525,
-4228,-1088,20052,15528,2393,-5495,6000,5000,263000,1096538,
-4300,-1088,19756,15513,2253,-5456,6000,5000,263000,1096540,
-4488,-1048,19672,15700,2286,-5361,6000,5000,263000,1096543,
-5120,-960,18764,15948,1656,-4958,8000,5000,262000,1096555,
-5068,-968,18732,16190,1599,-4817,8000,5000,262000,1096557,
-5048,-708,18604,16090,1448,-4806,8000,5000,262000,1096560,
-4932,-412,17436,16450,1194,-4492,10000,6000,262000,1096572,
-4904,-368,17508,16321,1184,-4438,10000,6000,262000,1096575,
-4824,-272,17308,16537,1241,-4447,10000,6000,262000,1096577,
-5232,-284,16376,16618,1663,-3960,12000,6000,261000,1096589,
-5180,-248,16304,16707,1775,-3935,12000,6000,261000,1096592,
-5328,-472,16012,16643,1940,-3746,12000,6000,261000,1096594,
-4972,-72,16220,17142,2690,-3419,14000,7000,261000,1096607,
-4528,152,16036,17270,2936,-3276,14000,7000,261000,1096609,
-4548,204,15876,17368,3118,-3254,14000,7000,261000,1096611,
-4320,740,14688,17719,4773,-2729,16000,7000,261000,1096624,
-4276,772,14688,17702,5022,-2646,16000,7000,261000,1096626,
-4232,1064,14568,17859,5383,-2540,17000,8000,261000,1096628,
-4708,2008,14552,18171,6185,-1973,18000,8000,261000,1096641,
-4380,2060,14824,18361,6552,-2020,19000,8000,261000,1096643,
-4820,2264,14612,18228,6740,-2013,19000,9000,261000,1096646,
-5476,2704,14140,18670,7092,-1575,21000,9000,261000,1096658,
-5564,2832,14084,18546,7040,-1551,21000,9000,261000,1096661,
-5784,2708,13916,18783,7133,-1572,21000,10000,261000,1096663,
-6432,2536,12644,18856,6634,-1544,23000,10000,261000,1096675,
-6748,2660,12452,19031,6598,-1571,23000,10000,261000,1096678,
-7484,2952,11116,18890,5193,-715,25000,11000,261000,1096690,
-7392,3208,10820,18944,4925,-587,26000,11000,261000,1096693,
-7512,3392,10508,18852,4702,-431,26000,11000,261000,1096695,
-6664,4392,8744,18213,3948,127,28000,12000,261000,1096708,
-6044,4560,8324,18190,3880,265,28000,12000,261000,1096710,
-6108,4696,8132,18002,3683,341,28000,12000,261000,1096712,
-5000,5436,6164,17321,2924,965,30000,12000,262000,1096725,
-5036,5468,5948,16942,2817,1120,30000,12000,262000,1096727,
-4800,5596,5988,16873,2732,1254,31000,12000,262000,1096729,
-4220,6044,4824,15850,1826,2115,32000,12000,262000,1096742,
-4040,6152,4308,15874,1767,2334,33000,13000,262000,1096744,
-3896,6104,4168,15490,1603,2472,33000,13000,262000,1096746,
-3748,6308,3524,14550,-283,3051,35000,12000,262000,1096759,
-3732,6352,3448,14234,-784,3126,35000,12000,262000,1096761,
-3712,6460,3468,14151,-1277,3146,35000,12000,262000,1096764,
-4120,6960,2860,12562,-4345,3429,37000,12000,262000,1096776,
-3988,7056,2820,12325,-4956,3445,37000,12000,262000,1096778,
-3948,6964,2908,12053,-5394,3495,37000,12000,262000,1096781,
-2284,7384,1948,10830,-7261,3408,38000,11000,262000,1096793,
-1912,7508,1968,10635,-7332,3377,39000,11000,262000,1096795,
-1820,7628,2124,10440,-7519,3298,39000,11000,262000,1096798,
-444,8328,1424,9554,-6971,2680,40000,10000,262000,1096810,
-728,8836,2312,9472,-7135,2727,40000,10000,262000,1096813,
-1192,8936,2504,9601,-7788,2742,40000,10000,262000,1096815,
-736,10120,1248,8435,-6813,3041,41000,9000,262000,1096827,
-800,10328,1264,8318,-6343,3168,41000,9000,262000,1096830,
-992,10328,1248,8021,-6473,3195,42000,9000,262000,1096832,
-916,10908,1720,7019,-6700,3332,43000,8000,262000,1096844,
-796,11088,1608,6658,-6747,3285,43000,8000,262000,1096847,
-924,11088,1588,6619,-6701,3277,43000,8000,262000,1096849,
-852,11388,1844,5569,-6957,3204,44000,7000,261000,1096861,
-672,11648,1840,5523,-6924,3241,44000,7000,261000,1096864,
-588,11564,1716,5192,-6905,3299,44000,7000,261000,1096866,
-384,11812,2376,4553,-6833,3634,44000,6000,261000,1096878,
-468,11748,2236,4319,-6843,3715,44000,6000,261000,1096881,
-416,11792,2360,4375,-6678,3800,45000,6000,261000,1096883,
-252,11968,2024,3756,-5661,4260,45000,5000,261000,1096895,
-24,12112,2352,3804,-5480,4288,45000,5000,261000,1096898,
-8,12088,2148,3615,-5327,4311,45000,5000,261000,1096900,
-20,12076,2348,3406,-4744,4215,46000,4000,261000,1096912,
-212,12088,2228,3258,-4695,4225,46000,4000,261000,1096915,
-56,12008,2072,3280,-4565,4187,46000,4000,261000,1096917,
16,12008,2296,2644,-3895,4202,47000,4000,261000,1096930,
196,12220,2472,2672,-3806,4137,47000,3000,261000,1096932,
396,12360,2360,2531,-3630,4070,47000,3000,261000,1096934,
1072,13016,2528,2112,-2509,3574,47000,3000,261000,1096947,
1248,13180,2792,2026,-2226,3523,47000,3000,261000,1096949,
1212,13268,2736,1942,-2024,3390,47000,3000,261000,1096951,
668,13312,3552,1450,-1025,2820,48000,2000,261000,1096964,
616,13268,3952,1303,-1063,2699,48000,2000,261000,1096966,
568,13284,4188,1288,-1032,2686,48000,2000,261000,1096968,
-320,13420,5276,775,-1645,2601,48000,2000,261000,1096981,
-448,13560,5072,773,-1573,2696,48000,2000,261000,1096983,
-248,13624,5420,577,-1741,2640,48000,2000,261000,1096985,
-440,13648,5768,160,-1659,2549,48000,2000,261000,1096998,
-324,13628,5772,-105,-1636,2437,48000,2000,261000,1097000,
-420,13412,5856,-77,-1442,2386,48000,2000,261000,1097003,
-344,13132,5672,-680,-690,1987,48000,1000,261000,1097015,
-440,12996,5632,-624,-458,1927,48000,1000,261000,1097018,
-240,13000,5716,-837,-333,1870,48000,1000,261000,1097020,
-164,13212,5700,-1159,0,1457,48000,1000,261000,1097032,
-132,13188,5836,-1296,-90,1432,48000,1000,262000,1097035,
-280,13312,5876,-1270,-70,1426,48000,1000,262000,1097037,
-568,13808,6776,-1796,-464,1475,48000,1000,262000,1097049,
-408,13860,7152,-1725,-587,1452,48000,1000,262000,1097052,
-516,13864,7248,-1913,-733,1455,48000,1000,262000,1097054,
-396,13488,7836,-2151,-1122,1167,48000,1000,262000,1097066,
-504,13344,7936,-2276,-959,1152,48000,1000,262000,1097069,
-416,13248,8108,-2202,-859,1140,48000,1000,262000,1097071,
-520,12656,8204,-2185,-828,1085,48000,1000,262000,1097084,
-372,12576,8372,-2105,-808,1022,48000,1000,262000,1097086,
-424,12580,8520,-2078,-690,1070,48000,1000,262000,1097088,
-200,13096,8320,-1804,-124,948,48000,0,262000,1097101,
-88,13160,8268,-1806,-14,914,47000,0,262000,1097103,
-72,13216,8344,-1772,61,830,47000,0,262000,1097105,
-100,13288,8588,-1837,64,821,47000,0,262000,1097107,
-268,13376,8880,-1890,53,700,47000,0,262000,1097120,
-276,13364,8956,-1961,23,701,47000,0,262000,1097122,
-152,13492,9200,-1898,2,675,47000,0,262000,1097124,
72,13372,9568,-2187,-147,682,47000,0,262000,1097137,
88,13212,9608,-2166,-217,610,47000,0,262000,1097139,
104,13168,9776,-2227,-226,643,47000,0,262000,1097141,
-44,13068,9644,-2153,-157,564,47000,0,262000,1097143,
368,12596,9824,-2219,338,403,47000,0,262000,1097156,
332,12592,9732,-2214,434,330,47000,0,262000,1097158,
364,12448,9680,-2214,563,329,47000,0,262000,1097161,
204,11868,9792,-2080,1226,212,47000,0,262000,1097173,
180,11932,9796,-1911,1417,269,47000,0,262000,1097175,
292,11988,9824,-1986,1410,239,47000,0,262000,1097178,
208,12120,9844,-1848,1560,311,46000,0,262000,1097180,
480,13100,9996,-1798,1733,359,46000,0,262000,1097192,
416,13332,9876,-1676,1849,413,46000,0,262000,1097195,
296,13536,9872,-1843,1873,403,46000,0,262000,1097197,
-184,13412,10064,-1892,1920,375,46000,1000,262000,1097210,
-452,13196,10180,-2076,1723,351,46000,1000,262000,1097212,
-628,13028,10464,-1931,1661,343,46000,1000,262000,1097214,
-644,12272,10276,-2278,641,277,46000,1000,263000,1097227,
-636,12176,10344,-2198,518,251,46000,1000,263000,1097229,
-616,12028,10364,-2309,337,264,46000,1000,263000,1097231,
-592,12044,10888,-1966,-213,332,46000,1000,263000,1097244,
-536,12072,10840,-1989,-279,417,46000,1000,263000,1097246,
-336,12132,10644,-1867,-276,386,46000,1000,263000,1097249,
220,12424,10740,-1881,-108,436,45000,1000,263000,1097261,
128,12400,10920,-1811,-18,406,45000,1000,263000,1097263,
200,12304,10576,-1846,-12,441,45000,1000,263000,1097266,
272,11968,10396,-1768,430,496,45000,1000,263000,1097278,
288,12008,10384,-1681,527,537,45000,1000,263000,1097280,
160,11916,10180,-1625,606,552,45000,1000,263000,1097283,
396,11872,10408,-1406,1153,605,45000,1000,263000,1097295,
552,12216,10532,-1452,1190,572,45000,1000,263000,1097298,
464,12276,10504,-1327,1374,615,45000,1000,263000,1097300,
440,12892,10840,-1342,2039,483,45000,1000,263000,1097312,
176,12868,10840,-1200,2184,482,45000,1000,263000,1097315,
184,13024,10672,-1309,2091,404,45000,1000,263000,1097317,
-488,12876,10924,-1210,2045,302,45000,1000,263000,1097330,
-460,13060,10824,-1317,1874,277,45000,1000,263000,1097332,
-568,12924,10972,-1163,1870,301,45000,1000,263000,1097334,
-960,12724,10600,-1512,1193,279,45000,1000,263000,1097347,
-784,12796,10688,-1413,1045,291,45000,1000,263000,1097349,
-772,12728,10476,-1560,875,273,45000,1000,263000,1097351,
-588,12196,10528,-1479,459,270,45000,1000,263000,1097364,
-484,12104,10440,-1468,416,341,45000,1000,263000,1097366,
-452,11956,10456,-1363,394,327,44000,1000,264000,1097368,
228,12212,10492,-1125,718,595,44000,1000,264000,1097381,
424,12344,10628,-1051,890,607,44000,1000,264000,1097383,
432,12400,10524,-1023,1034,711,44000,1000,264000,1097385,
260,12872,10304,-835,1785,863,44000,1000,264000,1097398,
256,12852,10472,-810,1926,875,44000,1000,264000,1097400,
308,12896,10384,-735,2015,873,44000,1000,264000,1097403,
92,12816,10400,-818,2180,975,44000,1000,264000,1097415,
-68,12612,10308,-869,2070,969,44000,1000,264000,1097417,
-212,12712,10608,-823,2043,978,44000,1000,264000,1097420,
-300,12604,10536,-934,1369,1018,44000,1000,264000,1097432,
-216,12732,10600,-835,1420,1043,44000,1000,264000,1097434,
-352,12524,10528,-918,1199,990,44000,1000,264000,1097437,
-276,12332,10744,-862,530,955,44000,1000,264000,1097449,
-128,12316,10884,-994,315,895,44000,1000,265000,1097452,
-184,12324,10920,-844,165,949,44000,1000,265000,1097454,
-60,12728,11040,-910,-566,1020,44000,1000,265000,1097467,
0,12780,10992,-782,-540,1035,44000,1000,265000,1097469,
104,12936,10820,-959,-602,1012,44000,1000,265000,1097471,
460,12632,10516,-923,-686,838,44000,1000,265000,1097484,
428,12432,10480,-1073,-688,819,44000,1000,265000,1097486,
304,12304,10380,-955,-631,798,44000,1000,265000,1097488,
252,11600,10516,-975,-799,791,44000,1000,265000,1097501,
372,11804,10704,-906,-850,757,44000,1000,265000,1097503,
460,11860,10872,-935,-864,784,44000,1000,265000,1097505,
820,12504,11028,-782,-618,691,44000,0,265000,1097518,
716,12608,11004,-785,-553,686,44000,0,265000,1097520,
744,12584,10880,-752,-528,621,44000,0,265000,1097523,
804,12756,10988,-818,-531,591,44000,0,265000,1097525,
1040,12496,11064,-667,-461,385,44000,0,265000,1097537,
788,12460,11164,-618,-394,375,44000,0,265000,1097540,
880,12540,11024,-629,-371,312,44000,0,265000,1097542,
840,12476,10604,-586,-43,184,44000,0,265000,1097554,
940,12600,10704,-627,-51,86,44000,0,265000,1097557,
912,12348,10628,-599,20,84,44000,0,265000,1097559,
836,12464,10560,-607,-10,-43,44000,0,265000,1097561,
748,12672,11276,-397,-22,-134,44000,0,265000,1097574,
856,12644,11288,-485,-101,-163,44000,0,265000,1097576,
