Ax,Ay,Az,Gx,Gy,Gz,Roll,Pitch,Yaw,Timestamp,Target
-2696,6452,14912,914,1047,7,21000,12000,108000,411917,
-2708,6760,14668,818,1103,-284,21000,12000,108000,411929,
-2632,6864,14548,767,1112,-358,21000,12000,108000,411931,
-2576,6884,14628,757,1098,-397,21000,12000,108000,411934,
-3000,7052,14452,580,959,-516,21000,12000,108000,411946,
-3132,7064,14300,545,937,-500,21000,12000,108000,411948,
-3152,7192,14388,487,891,-540,21000,12000,108000,411951,
-3204,7124,14104,232,503,-546,21000,12000,108000,411963,
-3288,7132,14076,152,411,-549,21000,12000,108000,411965,
-3224,7240,14056,115,351,-599,21000,12000,108000,411967,
-3296,7232,14104,-193,-17,-544,21000,12000,108000,411980,
-3300,7264,13900,-271,-73,-560,21000,12000,108000,411982,
-3240,7216,14088,-305,-93,-545,21000,12000,108000,411984,
-3024,7404,13920,-602,-286,-689,21000,12000,108000,411997,
-2932,7212,13932,-617,-308,-716,21000,12000,108000,411999,
-3004,7344,13952,-644,-305,-772,21000,12000,108000,412001,
-2288,9872,15096,1071,-706,757,30000,6000,113000,416012,
-2036,10048,15304,329,-1464,782,29000,6000,113000,415993,
-2016,10052,15236,389,-1332,752,29000,6000,113000,415995,
-2076,13788,-1063,234,-986,21000,12000,108000,412035,0,
-3728,7688,14172,-1245,80,-988,21000,12000,108000,412048,
-3832,7740,14120,-1245,94,-971,21000,12000,108000,412050,
-3768,7760,14216,-1278,114,-977,21000,12000,108000,412053,
-4004,7840,14340,-1348,247,-994,20000,12000,108000,412065,
-4020,7696,14328,-1405,285,-1001,20000,12000,108000,412067,
-4040,7664,14336,-1390,215,-972,20000,12000,108000,412070,
-4260,7356,14604,-1454,129,-1030,20000,12000,108000,412082,
-4368,7284,14660,-1436,131,-1027,20000,12000,108000,412084,
-4476,7272,14480,-1459,102,-1032,20000,12000,108000,412086,
-4564,7224,14724,-1461,110,-886,20000,12000,108000,412099,
-4472,7208,14852,-1485,145,-871,20000,12000,108000,412101,
-4596,7248,14952,-1458,108,-827,20000,12000,108000,412103,
-4536,7264,15240,-1305,309,-689,20000,12000,108000,412116,
-4504,7176,15232,-1254,341,-694,20000,12000,108000,412118,
-4604,7324,15340,-1236,410,-676,20000,12000,108000,412120,
-4772,7412,15816,-966,539,-585,20000,13000,108000,412132,
-4792,7384,15752,-926,595,-556,20000,13000,108000,412135,
-4880,7296,15868,-880,625,-510,20000,13000,108000,412137,
-5300,7084,15972,-687,1036,-287,20000,13000,108000,412149,
-5336,7116,15752,-661,1032,-221,20000,13000,108000,412151,
-5328,7028,15728,-601,1015,-193,20000,13000,108000,412154,
-5596,6684,15572,-629,623,167,20000,13000,108000,412166,
-5508,6756,15536,-645,560,242,20000,13000,108000,412168,
-5296,6768,15540,-637,451,288,20000,13000,108000,412171,
-4856,6788,15660,-601,270,669,20000,13000,108000,412183,
-4948,6820,15756,-583,272,717,20000,13000,108000,412185,
-4676,6904,15600,-571,288,779,20000,13000,108000,412188,
-4104,7124,15940,-346,433,896,20000,13000,108000,412200,
-3992,7172,15888,-302,468,880,20000,13000,108000,412202,
-3888,7260,15820,-296,516,878,20000,13000,108000,412205,
-3932,7360,15848,-53,870,778,20000,13000,108000,412217,
-3840,7328,15528,-44,869,774,20000,13000,108000,412219,
-3856,7400,15668,-21,880,778,20000,13000,108000,412221,
-4164,7072,15320,-69,708,811,20000,13000,108000,412234,
-4136,7092,15336,-90,653,821,20000,13000,108000,412236,
-4108,7076,15196,-81,605,852,20000,13000,108000,412238,
-3872,6952,14996,-244,270,967,20000,13000,108000,412251,
-3920,6944,15020,-272,182,994,20000,13000,108000,412253,
-3876,6832,14936,-299,126,1018,20000,13000,108000,412255,
-3508,7072,14956,-310,49,1008,20000,13000,108000,412268,
-3340,6952,15024,-298,107,1004,20000,13000,108000,412270,
-3260,7124,15220,-282,105,961,20000,13000,108000,412272,
-3220,7188,15000,-202,454,751,20000,13000,108000,412285,
-3184,7252,15040,-194,500,751,20000,13000,109000,412287,
-3256,7244,14900,-192,513,693,20000,13000,109000,412289,
-3416,7164,14672,-245,256,395,20000,13000,109000,412302,
-3620,7156,14636,-275,176,340,20000,13000,109000,412304,
-3640,7172,14756,-283,102,306,20000,13000,109000,412306,
-3964,7012,14684,-420,-301,324,20000,13000,109000,412319,
-4044,6912,14820,-396,-363,344,20000,13000,109000,412321,
-3948,6848,14864,-406,-393,339,20000,13000,109000,412323,
-3908,6752,14912,-391,-556,347,20000,13000,109000,412336,
-3812,6876,15012,-401,-619,365,20000,13000,109000,412338,
-3856,6832,14956,-362,-605,330,20000,13000,109000,412340,
-3512,6836,15116,-136,-306,300,20000,13000,109000,412353,
-3624,6904,15472,-87,-243,263,20000,13000,109000,412355,
-3588,6860,15396,-62,-181,274,20000,13000,109000,412357,
-3724,6840,15288,128,-29,172,20000,13000,109000,412370,
-3744,6868,15348,170,4,159,20000,13000,109000,412372,
-3800,6808,15268,176,-13,134,20000,13000,109000,412374,
-4072,6636,15076,249,16,99,20000,13000,109000,412387,
-4080,6592,15032,255,-26,94,20000,13000,109000,412389,
-4132,6588,15000,258,-37,110,20000,13000,109000,412391,
-4100,6484,14684,225,-87,168,20000,13000,109000,412404,
-3904,6468,14800,219,-100,155,20000,13000,109000,412406,
-3900,6376,14668,214,-79,210,20000,13000,109000,412408,
-3576,6516,14788,250,75,132,20000,13000,109000,412421,
-3600,6544,14764,263,87,115,20000,13000,109000,412423,
-3604,6548,14944,279,125,87,20000,13000,109000,412425,
-3636,6736,15328,326,-9,-61,20000,13000,109000,412438,
-3580,6752,15308,351,-34,-65,20000,13000,109000,412440,
-3640,6820,15456,357,-85,-84,20000,13000,109000,412442,
-3656,6816,15520,402,-116,-86,20000,13000,109000,412455,
-3588,6888,15596,376,-120,-87,20000,13000,109000,412457,
-3660,6888,15416,376,-110,-98,20000,13000,109000,412459,
-3708,6804,15328,394,-279,-155,20000,13000,109000,412472,
-3480,6844,15492,377,-346,-169,20000,13000,109000,412474,
-3572,6832,15256,346,-408,-174,20000,13000,109000,412476,
-3368,6796,15284,289,-485,-172,21000,13000,109000,412489,
-3408,6856,15208,302,-448,-174,21000,13000,109000,412491,
-3268,6816,15328,260,-431,-174,21000,13000,109000,412493,
-3152,6844,14980,197,-280,-313,21000,13000,109000,412506,
-3120,6912,14788,158,-235,-307,21000,13000,109000,412508,
-3228,6880,14872,129,-216,-325,21000,13000,109000,412510,
-3364,6844,14460,-168,-204,-463,21000,13000,109000,412523,
-3424,6996,14556,-210,-249,-492,21000,13000,109000,412525,
-3480,6972,14660,-289,-259,-532,21000,13000,109000,412527,
-3708,7028,14496,-620,-347,-505,21000,13000,109000,412540,
-3760,7008,14404,-677,-408,-483,21000,13000,109000,412542,
-3808,7040,14596,-761,-450,-447,21000,13000,109000,412544,
-3888,7064,14544,-1089,-563,-244,20000,12000,108000,412557,
-3756,7260,14704,-1120,-585,-233,20000,12000,108000,412559,
-3768,7276,14740,-1218,-582,-208,20000,12000,108000,412561,
-3748,7576,14264,-1670,-721,-137,20000,12000,108000,412574,
-3748,7668,14180,-1777,-760,-154,20000,12000,108000,412576,
-3688,7680,14204,-1903,-828,-158,20000,12000,108000,412578,
-3704,7704,14032,-2452,-1110,-164,20000,12000,108000,412591,
-3736,7736,13856,-2516,-1152,-155,20000,12000,108000,412593,
-3692,7812,13936,-2576,-1186,-163,20000,12000,108000,412595,
-3736,7616,14008,-2901,-1398,-25,20000,12000,108000,412608,
-3808,7416,14012,-2953,-1354,67,20000,12000,108000,412610,
-3772,7392,13948,-2991,-1316,82,20000,12000,108000,412612,
-3632,7316,14012,-3141,-904,354,19000,12000,108000,412625,
-3552,7316,13956,-3135,-856,401,19000,12000,108000,412627,
-3588,7336,13896,-3170,-819,431,19000,12000,108000,412629,
-3676,7600,14148,-3293,-632,535,19000,12000,108000,412642,
-3700,7416,14252,-3299,-581,537,19000,12000,108000,412644,
-3724,7536,14132,-3336,-546,521,19000,12000,108000,412646,
-3696,7556,14528,-3320,-389,510,19000,12000,108000,412659,
-3900,7580,14516,-3333,-318,474,19000,12000,108000,412661,
-3904,7536,14676,-3305,-354,475,19000,12000,108000,412663,
-4160,7180,14896,-3122,-406,455,18000,12000,108000,412676,
-4056,7100,14836,-3085,-398,495,18000,12000,109000,412678,
-4104,7084,14872,-3040,-405,515,18000,12000,109000,412680,
-4484,6684,15104,-2622,-214,767,18000,12000,109000,412693,
-4540,6560,15552,-2527,-190,768,18000,12000,109000,412695,
-4512,6540,15576,-2418,-197,837,18000,12000,109000,412697,
-4572,6368,15644,-1911,10,1032,18000,12000,109000,412710,
-4532,6380,15944,-1786,67,1074,18000,12000,109000,412712,
-4572,6340,15792,-1688,106,1124,18000,12000,109000,412714,
-4432,6264,15792,-1065,506,1181,18000,12000,109000,412727,
-4464,6132,15824,-962,599,1152,18000,12000,109000,412729,
-4464,6076,15836,-848,685,1134,18000,12000,109000,412731,
-4384,5812,15316,-460,873,1124,18000,12000,109000,412744,
-4444,5720,15256,-382,892,1128,18000,12000,109000,412746,
-4316,5796,15292,-349,869,1123,18000,12000,109000,412748,
-4056,5836,15300,-158,1090,1075,18000,12000,109000,412761,
-3932,5880,15444,-103,1162,1048,18000,12000,109000,412763,
-3932,5880,15472,-56,1233,1014,18000,12000,109000,412765,
-3800,6344,15640,201,1456,645,18000,12000,109000,412778,
-3744,6308,15772,237,1421,552,18000,12000,109000,412780,
-3844,6424,15904,241,1444,469,18000,12000,109000,412782,
-3980,6692,15624,367,1409,227,18000,12000,110000,412795,
-4080,6688,15860,350,1383,187,18000,12000,110000,412797,
-4172,6616,15728,373,1391,196,18000,12000,110000,412799,
-4232,6468,15392,436,1107,172,18000,12000,110000,412812,
-4168,6544,15364,432,1082,182,18000,12000,110000,412814,
-4260,6552,15440,445,1030,178,18000,12000,110000,412816,
-4028,6616,15336,343,899,87,18000,12000,110000,412829,
-3936,6616,15392,373,867,96,18000,13000,110000,412831,
-3884,6564,15312,382,856,43,18000,13000,110000,412833,
-3828,6820,15460,413,872,-119,18000,13000,110000,412846,
-3704,6848,15564,416,888,-119,18000,13000,110000,412848,
-3792,6916,15320,389,919,-104,18000,13000,110000,412850,
-3876,6952,15436,441,923,-134,18000,13000,110000,412863,
-3724,6900,15636,449,937,-125,18000,13000,110000,412865,
-3832,6924,15328,433,926,-119,18000,13000,110000,412867,
-4096,6988,15688,455,894,-26,18000,13000,110000,412880,
-4040,7032,15688,494,870,-28,18000,13000,110000,412882,
-4252,6936,15644,448,899,18,18000,13000,110000,412884,
-4412,6852,15740,427,730,306,19000,13000,110000,412897,
-4544,6824,15512,385,671,368,19000,13000,110000,412899,
-4468,6784,15604,381,595,407,19000,13000,110000,412901,
-4436,6600,15648,273,258,734,19000,13000,110000,412914,
-4524,6696,15632,249,186,743,19000,13000,110000,412916,
-4520,6672,15556,232,146,801,19000,13000,110000,412918,
-4176,6660,15768,145,-109,1000,19000,13000,110000,412931,
-4156,6524,15588,157,-127,1017,19000,13000,110000,412933,
-4092,6568,15604,162,-151,1028,19000,13000,110000,412935,
-3880,6692,15904,267,-144,1137,19000,13000,110000,412948,
-3740,6656,15984,294,-150,1181,19000,13000,110000,412950,
-3832,6716,16008,354,-152,1178,19000,13000,110000,412952,
-3556,6728,15960,542,86,1161,19000,13000,110000,412965,
-3644,6800,16060,619,105,1165,19000,13000,110000,412967,
-3676,6640,16096,671,146,1156,19000,13000,110000,412969,
-3696,6516,15852,828,26,1276,19000,13000,111000,412982,
-3680,6624,15752,826,20,1308,19000,13000,111000,412984,
-3604,6468,15740,846,-56,1336,19000,13000,111000,412986,
-3648,6480,15836,916,-230,1442,19000,13000,111000,412998,
-3704,6528,15812,938,-194,1511,19000,13000,111000,413001,
-3648,6540,15780,970,-212,1487,19000,13000,111000,413003,
-3528,6684,15848,1026,-76,1492,19000,13000,111000,413015,
-3508,6688,15772,1065,-60,1501,20000,13000,111000,413018,
-3604,6752,15760,1028,-113,1485,20000,13000,111000,413020,
-3808,6664,15312,969,-270,1479,20000,12000,111000,413032,
-3752,6548,15416,930,-309,1533,20000,12000,111000,413035,
-3668,6636,15412,906,-336,1511,20000,12000,111000,413037,
-3680,6296,15240,779,-525,1659,20000,12000,111000,413049,
-3724,6436,14992,719,-553,1662,20000,12000,111000,413052,
-3556,6320,15156,687,-578,1684,20000,12000,111000,413054,
-3400,6340,14968,518,-669,1704,20000,12000,111000,413066,
-3244,6380,15048,499,-654,1722,20000,12000,111000,413069,
-3244,6452,15084,465,-682,1706,20000,12000,111000,413071,
-2972,6612,15064,340,-594,1577,20000,12000,112000,413083,
-2968,6516,15176,381,-543,1490,20000,12000,112000,413086,
-2780,6664,14932,344,-547,1449,20000,12000,112000,413088,
-2912,6728,14972,304,-399,1235,20000,12000,112000,413100,
-3024,6836,15080,279,-403,1220,20000,12000,112000,413103,
-2992,6824,14896,244,-417,1193,20000,12000,112000,413105,
-3096,6752,14776,128,-553,1153,20000,12000,112000,413117,
-3176,6680,14564,110,-575,1133,20000,12000,112000,413120,
-3120,6724,14624,74,-624,1163,20000,12000,112000,413122,
-2960,6744,14336,-62,-708,1134,20000,12000,112000,413134,
-2932,6632,14460,-99,-727,1110,20000,12000,112000,413136,
-2912,6620,14432,-130,-684,1105,20000,12000,112000,413139,
-2824,6784,14400,-218,-660,1006,20000,11000,112000,413151,
-2892,6876,14304,-246,-657,999,20000,11000,112000,413153,
-2752,7012,14376,-282,-721,935,20000,11000,112000,413156,
-3040,7048,14816,-409,-903,733,20000,11000,112000,413168,
-3116,7156,14824,-420,-920,711,20000,11000,112000,413170,
-3164,7116,14892,-427,-985,697,20000,11000,112000,413172,
-3340,6944,15092,-484,-1240,741,20000,11000,112000,413185,
-3436,7080,15196,-478,-1292,761,20000,11000,112000,413187,
-3500,7052,15272,-476,-1337,797,20000,11000,112000,413189,
-3488,6948,15560,-391,-1470,924,20000,11000,112000,413202,
-3416,6964,15644,-403,-1536,947,20000,11000,112000,413204,
-3504,6928,15556,-383,-1532,982,20000,11000,112000,413206,
-3316,7112,15740,-262,-1443,1065,20000,11000,112000,413219,
-3304,7000,15548,-211,-1416,1054,20000,11000,112000,413221,
-3388,6992,15568,-173,-1390,1068,20000,11000,112000,413223,
-3240,6980,15016,-197,-1258,1006,20000,10000,112000,413236,
-3316,7032,14936,-210,-1245,978,20000,10000,112000,413238,
-3280,7060,14944,-230,-1269,977,20000,10000,112000,413240,
-3692,6960,15144,-128,-1604,938,20000,10000,112000,413253,
-3764,6944,15388,-142,-1612,957,20000,10000,112000,413255,
-3832,6960,15152,-143,-1641,994,20000,10000,112000,413257,
-3716,7004,15716,-61,-1512,1213,20000,10000,113000,413270,
-3732,7088,15768,-57,-1471,1255,20000,10000,113000,413272,
-3504,6992,15836,-7,-1427,1271,20000,10000,113000,413274,
-2912,7260,15992,168,-1025,1289,20000,10000,113000,413287,
-2756,7416,16116,220,-885,1247,20000,10000,113000,413289,
-2628,7364,15992,244,-748,1266,20000,10000,113000,413291,
-2292,7612,15716,556,76,1135,21000,10000,113000,413304,
-2252,7716,15888,653,157,1141,21000,10000,113000,413306,
-2356,7732,15748,747,243,1082,21000,10000,113000,413308,
-2936,7888,15720,1284,523,917,21000,10000,113000,413321,
-3156,7812,15804,1371,589,885,21000,10000,113000,413323,
-3416,7840,15924,1409,711,854,21000,10000,113000,413325,
-4616,7888,16308,1838,907,1062,21000,10000,113000,413338,
-4772,7780,16316,1921,900,1149,21000,10000,113000,413340,
-4856,7896,16376,1950,884,1295,21000,10000,113000,413342,
-4632,8028,16684,2245,678,2051,21000,10000,113000,413355,
-4468,8004,16652,2366,638,2174,22000,10000,113000,413357,
-4260,8096,16904,2450,686,2230,22000,10000,113000,413359,
-3316,8368,16992,3106,1009,2482,22000,10000,114000,413372,
-3236,8284,16732,3231,1107,2463,22000,10000,114000,413374,
-2900,8408,16772,3330,1214,2470,22000,10000,114000,413376,
-2528,8676,16040,3915,1532,2317,23000,10000,114000,413389,
-2428,8792,15940,4016,1594,2271,23000,10000,114000,413391,
-2476,8820,15556,4074,1588,2252,23000,10000,114000,413393,
-2756,8872,14892,4267,1434,2346,23000,10000,114000,413406,
-2728,8852,14832,4337,1291,2362,23000,10000,115000,413408,
-2856,8872,14520,4317,1220,2375,23000,10000,115000,413410,
-2984,8880,14172,4333,400,2555,24000,10000,115000,413423,
-2900,8792,14136,4352,261,2581,24000,10000,115000,413425,
-2956,8832,14120,4326,97,2579,24000,10000,115000,413427,
-2972,9024,13956,4240,-532,2521,25000,10000,115000,413440,
-3020,9016,13884,4232,-651,2504,25000,10000,115000,413442,
-2936,9132,14008,4181,-760,2519,25000,10000,115000,413444,
-2940,9360,13824,3915,-1340,2508,25000,9000,115000,413457,
-1100,10032,12776,1556,-529,375,33000,4000,114000,416201,
-1332,10256,12868,1422,-621,437,33000,4000,114000,416214,
-1376,10356,12880,1375,-625,473,33000,4000,114000,416216,
-1208,10312,13008,1385,-640,494,33000,4000,114000,416218,
-1240,10424,13148,1196,-753,646,33000,4000,114000,416231,
-1256,10428,13120,1166,-809,636,33000,4000,114000,416233,
-1088,10472,13036,1154,-808,654,33000,4000,114000,416235,
-1044,10896,13216,980,-885,750,33000,4000,114000,416248,
-1124,10888,13252,930,-884,791,33000,4000,114000,416250,
-1060,10932,13164,900,-909,824,33000,4000,114000,416253,
-1004,11316,12792,594,-1029,1035,34000,3000,114000,416265,
-872,11288,12756,523,-1062,1057,34000,3000,114000,416267,
-968,11328,12752,467,-1082,1062,34000,3000,114000,416270,
-796,11468,12820,231,-1230,1144,34000,3000,114000,416282,
-976,11436,12916,183,-1288,1200,34000,3000,114000,416284,
-872,11428,13116,148,-1294,1220,34000,3000,114000,416287,
-1000,11268,13344,131,-1295,1398,34000,3000,114000,416299,
-1004,11216,13492,123,-1260,1416,34000,3000,114000,416301,
-1044,11272,13412,139,-1250,1454,34000,3000,114000,416304,
-1148,11044,13520,116,-1318,1718,34000,3000,114000,416316,
-1064,11068,13584,129,-1354,1735,34000,3000,114000,416318,
-1104,11052,13692,125,-1405,1795,34000,3000,114000,416321,
-800,11188,13612,147,-1409,1848,34000,2000,114000,416333,
-692,11124,13648,178,-1376,1817,34000,2000,114000,416335,
-696,11192,13556,196,-1369,1829,34000,2000,114000,416338,
-676,11004,13296,260,-1256,1763,34000,2000,114000,416350,
-564,11072,13248,308,-1277,1765,34000,2000,114000,416352,
-692,11012,13128,334,-1262,1757,34000,2000,114000,416354,
-580,10760,13356,463,-1280,1651,34000,2000,114000,416367,
-728,10604,13232,508,-1273,1630,34000,2000,114000,416369,
-844,10532,13236,555,-1286,1615,34000,2000,114000,416371,
-1012,10308,13360,758,-1305,1699,34000,2000,114000,416384,
-1112,10420,13372,818,-1322,1681,34000,2000,114000,416386,
-1096,10396,13188,864,-1312,1693,34000,2000,114000,416389,
-1052,10484,13300,1079,-1227,1622,34000,1000,115000,416401,
-1092,10456,13108,1100,-1207,1634,34000,1000,115000,416403,
-1076,10452,13240,1108,-1194,1554,34000,1000,115000,416406,
-760,10604,12908,1209,-1143,1308,35000,1000,115000,416418,
-696,10564,13084,1234,-1119,1257,35000,1000,115000,416420,
-716,10448,12748,1204,-1075,1178,35000,1000,115000,416423,
-648,10244,12564,1279,-1129,862,35000,1000,115000,416435,
-648,10232,12456,1272,-1102,814,35000,1000,115000,416437,
-604,10156,12552,1309,-1091,801,35000,1000,115000,416440,
-768,10188,12508,1469,-876,778,35000,1000,115000,416452,
-852,10208,12564,1526,-745,770,35000,1000,115000,416454,
-808,10284,12724,1542,-684,781,35000,1000,115000,416456,
-960,10416,12584,1787,-287,783,35000,1000,115000,416469,
-908,10448,12636,1806,-279,777,35000,1000,115000,416471,
-828,10456,12556,1858,-253,792,35000,1000,115000,416473,
-748,10340,12528,1964,-170,663,36000,1000,115000,416486,
-760,10272,12356,1931,-115,662,36000,1000,115000,416488,
-672,10352,12308,1978,-54,660,36000,1000,115000,416490,
-548,10516,11948,1792,70,480,36000,1000,115000,416503,
-600,10540,11856,1706,21,438,36000,1000,115000,416505,
-436,10544,11768,1681,-26,423,36000,1000,115000,416507,
-268,10780,11476,1422,-292,229,36000,1000,115000,416520,
-256,10720,11648,1362,-312,205,36000,1000,115000,416522,
-236,10856,11456,1321,-254,184,36000,1000,115000,416524,
-188,10924,11512,1220,27,251,36000,1000,115000,416537,
-276,10992,11624,1235,98,292,36000,1000,115000,416539,
-224,10904,11500,1201,100,305,36000,1000,115000,416541,
-244,11028,11316,1027,326,373,36000,1000,115000,416554,
-160,11000,11460,952,363,384,37000,1000,115000,416556,
-176,10968,11232,931,400,382,37000,1000,115000,416558,
-156,11172,11164,591,478,406,37000,1000,115000,416571,
-124,11092,11184,498,485,385,37000,1000,115000,416573,
52,11184,11024,394,466,369,37000,1000,115000,416575,
52,11160,10952,327,461,329,37000,1000,115000,416578,
336,11152,10864,-189,292,120,37000,1000,115000,416590,
328,11200,10844,-277,261,80,37000,1000,115000,416592,
368,11212,10796,-352,189,53,37000,1000,115000,416594,
480,11184,10600,-800,227,-141,37000,1000,115000,416607,
376,11240,10672,-869,233,-176,37000,1000,115000,416609,
388,11232,10568,-919,264,-179,37000,1000,115000,416611,
292,11412,10408,-1321,410,-257,37000,1000,115000,416624,
384,11320,10352,-1395,444,-266,37000,1000,115000,416626,
476,11420,10424,-1478,512,-251,37000,1000,115000,416628,
624,11720,10156,-1970,787,-251,36000,1000,115000,416641,
584,11752,10236,-2085,831,-262,36000,1000,115000,416643,
692,11636,10168,-2151,866,-241,36000,1000,115000,416645,
1076,11916,10184,-2628,1030,-517,36000,1000,115000,416658,
1096,11964,10108,-2736,1090,-533,36000,1000,115000,416660,
1152,11856,10020,-2798,1112,-578,36000,1000,115000,416662,
1516,11760,9748,-3374,1237,-872,36000,1000,115000,416675,
1464,11848,9764,-3488,1287,-917,36000,1000,115000,416677,
1468,11756,9508,-3588,1287,-976,36000,1000,115000,416679,
1652,11564,9016,-4236,1432,-1217,36000,1000,115000,416692,
1756,11648,8908,-4363,1444,-1320,36000,1000,115000,416694,
1772,11628,8860,-4468,1490,-1358,35000,1000,115000,416696,
1760,11436,8876,-5179,1621,-1840,35000,1000,115000,416709,
1760,11456,8908,-5292,1620,-1891,35000,1000,115000,416711,
1776,11488,8928,-5421,1653,-1957,35000,1000,115000,416713,
1148,11120,8352,-6172,1912,-2413,34000,2000,115000,416726,
1052,11024,8308,-6339,1923,-2480,34000,2000,115000,416728,
1032,10992,8156,-6501,1974,-2528,34000,2000,115000,416730,
504,10560,7668,-7579,1655,-2819,34000,2000,115000,416743,
412,10500,7720,-7825,1480,-2830,34000,2000,115000,416745,
572,10452,7536,-8070,1335,-2895,33000,2000,115000,416747,
1268,9916,7404,-9421,695,-3288,33000,2000,115000,416760,
1420,9856,7472,-9648,718,-3375,32000,2000,114000,416762,
1524,9872,7452,-9855,721,-3477,32000,2000,114000,416764,
2676,9372,7460,-10989,1017,-4088,31000,3000,114000,416777,
2836,9448,7532,-11163,1067,-4188,31000,3000,114000,416779,
2956,9404,7624,-11376,1171,-4319,31000,3000,114000,416781,
3376,9036,7912,-12316,1753,-5255,30000,3000,114000,416794,
3356,8872,7768,-12505,1859,-5434,30000,3000,114000,416796,
3276,8852,7764,-12673,2013,-5592,30000,3000,114000,416798,
2604,8064,7416,-13664,2789,-6427,28000,3000,113000,416811,
2448,8044,7372,-13828,2865,-6575,28000,4000,113000,416813,
2340,7948,7308,-14043,2953,-6698,28000,4000,113000,416815,
1824,7040,6964,-15253,3345,-7268,26000,4000,113000,416828,
1824,6892,6820,-15500,3384,-7364,26000,4000,113000,416830,
1676,6788,6872,-15723,3420,-7426,26000,4000,112000,416832,
1368,5948,9224,-16573,3101,-7812,24000,5000,112000,416845,
1196,5564,9780,-16642,3015,-7900,24000,5000,112000,416847,
1084,5672,10232,-16647,3008,-8004,24000,5000,112000,416849,
-208,4088,11212,-16807,4203,-8622,22000,6000,111000,416861,
-380,3896,10988,-16896,4475,-8720,22000,6000,111000,416864,
-528,3548,10956,-16953,4666,-8831,21000,6000,111000,416866,
-1720,2368,9884,-17775,4214,-9301,20000,7000,110000,416879,
-1716,2172,9644,-18008,3929,-9392,19000,7000,110000,416881,
-1604,1996,9536,-18239,3661,-9472,19000,7000,110000,416883,
-612,1436,8572,-19565,2972,-10020,17000,7000,109000,416896,
-308,1272,8416,-19722,3027,-10114,17000,8000,109000,416898,
-80,1080,8180,-19910,3070,-10234,16000,8000,109000,416900,
1816,896,7608,-20775,3416,-11057,14000,8000,108000,416913,
2032,844,7472,-20933,3556,-11299,14000,8000,108000,416915,
2280,764,7804,-21062,3687,-11539,13000,8000,107000,416917,
1544,-188,12008,-20821,4314,-12551,11000,9000,106000,416930,
1072,-144,12644,-20605,4587,-12682,10000,9000,106000,416932,
512,-136,13364,-20547,4994,-12912,10000,9000,106000,416934,
-3892,-840,15972,-20423,6846,-13070,8000,10000,105000,416947,
-4368,-1372,16216,-19985,7330,-12955,7000,10000,105000,416949,
-5028,-1956,16344,-19517,7901,-12860,7000,10000,104000,416951,
-5972,-4780,14092,-18601,9679,-12795,5000,11000,103000,416964,
-6132,-4976,13580,-18732,9577,-12829,5000,12000,103000,416966,
-5888,-5376,12792,-18955,9270,-12818,4000,12000,103000,416968,
-4388,-5868,11064,-20097,5468,-12925,2000,12000,101000,416981,
-3612,-5532,10796,-20239,4778,-12956,1000,13000,101000,416983,
-1752,-3612,11092,-21353,3886,-13332,0,13000,100000,416996,
-1636,-3180,11472,-21428,4137,-13419,-1000,13000,100000,416998,
-1532,-2648,12196,-21468,4530,-13492,-1000,13000,99000,417000,
-2640,-1272,14480,-20795,8474,-13648,-3000,14000,98000,417013,
-3000,-1208,14836,-20681,9213,-13674,-4000,14000,98000,417015,
-3300,-1348,15236,-20535,9905,-13658,-4000,14000,97000,417017,
-5424,-2704,14888,-20039,11597,-14099,-7000,15000,96000,417030,
-5760,-3284,14372,-20007,11516,-14210,-7000,15000,96000,417032,
-6704,-5268,13108,-20553,10382,-14737,-10000,16000,94000,417045,
-6636,-5500,12856,-20790,10092,-14781,-10000,16000,94000,417047,
-6612,-5708,12576,-21033,9756,-14756,-10000,16000,93000,417049,
-4920,-6400,12068,-22119,7972,-14772,-13000,17000,92000,417062,
-4460,-6456,11916,-22207,7659,-14876,-14000,17000,92000,417064,
-3696,-6292,12216,-23050,6024,-15899,-16000,17000,90000,417076,
-3852,-6272,12648,-23151,5686,-15988,-17000,17000,89000,417079,
-4072,-6372,12872,-23243,5374,-16069,-17000,17000,89000,417081,
-6868,-7332,13404,-23439,5443,-15697,-20000,17000,87000,417093,
-7112,-7600,13332,-23440,5734,-15495,-21000,17000,87000,417096,
-7860,-8136,13160,-23325,6004,-15258,-21000,17000,87000,417098,
-8296,-8388,12192,-22327,9006,-11790,-24000,17000,85000,417111,
-7880,-8372,12048,-22603,9349,-11833,-24000,18000,85000,417113,
-6440,-9588,11864,-24133,6944,-13285,-27000,18000,84000,417125,
-6160,-9596,11516,-24224,6458,-13798,-28000,18000,83000,417128,
-6212,-9668,11136,-24481,6025,-14302,-28000,18000,83000,417130,
-6404,-11472,11056,-25687,4993,-15986,-31000,17000,81000,417142,
-6292,-12004,10992,-25687,5086,-16092,-32000,17000,81000,417145,
-6136,-12240,10884,-25755,5239,-16217,-33000,17000,81000,417147,
-5964,-13684,10024,-27149,4705,-16352,-36000,17000,79000,417159,
-5956,-13896,10120,-27381,4352,-16267,-36000,17000,79000,417162,
-5632,-14940,10924,-27936,3343,-15940,-39000,16000,77000,417174,
-5472,-15128,10760,-27978,3531,-15964,-40000,16000,77000,417176,
-5452,-15424,10736,-28057,3757,-15997,-41000,16000,77000,417179,
-5668,-17396,10244,-28281,4652,-16595,-44000,15000,75000,417191,
-5792,-17864,10320,-28368,4524,-16761,-44000,15000,75000,417193,
-6232,-19828,10716,-28793,2652,-17544,-48000,14000,74000,417206,
-6296,-20144,10640,-28908,2367,-17681,-48000,13000,73000,417208,
-6340,-20644,11012,-28996,2142,-17808,-49000,13000,73000,417210,
-6644,-21976,11868,-29304,1306,-18129,-52000,12000,72000,417223,
-6848,-22168,11996,-29295,1095,-18141,-52000,12000,72000,417225,
-7272,-23028,12804,-29194,-568,-17635,-55000,10000,71000,417237,
-7260,-23256,13000,-29079,-846,-17509,-56000,10000,71000,417240,
-7248,-23408,13224,-28960,-1063,-17385,-57000,10000,70000,417242,
-6900,-24060,13168,-28168,-1553,-16687,-59000,8000,70000,417254,
-6828,-24200,13088,-27972,-1495,-16600,-60000,8000,70000,417257,
-5824,-23984,13416,-26109,-2442,-16238,-62000,7000,69000,417269,
-5952,-24136,13092,-25736,-2363,-16094,-63000,6000,69000,417272,
-6216,-24244,13212,-25418,-2224,-15885,-63000,6000,69000,417274,
-5852,-24496,10392,-24733,-1975,-14561,-66000,5000,68000,417286,
-5832,-24324,9908,-24785,-2138,-14351,-66000,5000,68000,417289,
-4992,-24220,9124,-24572,-4263,-13583,-69000,3000,68000,417301,
-4848,-24224,8908,-24503,-4637,-13501,-69000,3000,68000,417303,
-4876,-24228,9040,-24439,-5022,-13440,-69000,3000,68000,417306,
-5320,-24152,9844,-23924,-7354,-13088,-72000,2000,68000,417318,
-5464,-24080,10024,-23789,-7682,-12939,-72000,1000,69000,417320,
-5432,-24064,10060,-23653,-8038,-12708,-73000,1000,69000,417323,
-5656,-23592,10360,-22977,-9213,-10953,-75000,0,69000,417335,
-5540,-23424,10584,-22863,-9466,-10495,-75000,0,69000,417337,
-3356,-22164,9644,-22115,-9733,-8423,-77000,0,70000,417350,
-3120,-21824,9904,-21994,-9569,-8194,-77000,0,70000,417352,
-2684,-21604,10096,-21813,-9573,-7938,-78000,-1000,70000,417355,
-636,-19792,8572,-20769,-9823,-6956,-80000,-1000,71000,417367,
-348,-19516,8272,-20569,-9868,-6797,-80000,-2000,71000,417369,
-72,-19368,8384,-20384,-9925,-6623,-80000,-2000,71000,417371,
-108,-18604,10812,-19035,-12524,-5946,-82000,-2000,72000,417384,
612,-18284,8760,-18859,-12233,-5940,-83000,-3000,73000,417386,
1052,-18372,7864,-18688,-11364,-5989,-83000,-3000,73000,417389,
24,-18764,8164,-17228,-8907,-6066,-84000,-3000,74000,417401,
-164,-19064,7952,-16911,-8962,-5974,-85000,-3000,74000,417403,
-544,-19760,6508,-15939,-7608,-4723,-86000,-4000,74000,417416,
-476,-19924,6548,-15773,-7280,-4333,-86000,-4000,75000,417418,
-484,-19980,6592,-15564,-6999,-3963,-87000,-4000,75000,417420,
788,-19924,6272,-14077,-5099,-2360,-88000,-4000,75000,417433,
1004,-19896,6496,-13818,-4865,-2226,-88000,-4000,75000,417435,
1280,-19948,6560,-13546,-4635,-2120,-89000,-4000,75000,417438,
2404,-19712,6900,-12361,-3531,-2297,-90000,-5000,76000,417450,
2216,-19752,7924,-12077,-3396,-2408,-90000,-5000,76000,417452,
1732,-19648,7620,-10188,-922,-2693,-91000,-5000,76000,417465,
1464,-19540,7496,-9781,-406,-2672,-91000,-5000,76000,417467,
1180,-19436,7316,-9473,18,-2641,-91000,-5000,76000,417469,
-532,-19208,6560,-8359,957,-2565,-92000,-5000,76000,417482,
-948,-19284,6660,-8179,1089,-2537,-92000,-5000,76000,417484,
-1188,-19296,6632,-8052,1203,-2514,-92000,-5000,76000,417486,
-2344,-19580,6856,-6766,1969,-1517,-92000,-5000,75000,417499,
-2368,-19520,6392,-6616,2207,-1257,-92000,-5000,75000,417501,
-2340,-19500,6224,-6498,2448,-991,-92000,-5000,75000,417503,
-1236,-18968,5560,-6341,2525,309,-93000,-5000,75000,417516,
-584,-18852,5388,-6358,2327,390,-93000,-5000,75000,417518,
-224,-18664,5276,-6383,2101,407,-93000,-5000,75000,417520,
1040,-17856,6108,-6156,1582,-476,-94000,-5000,75000,417533,
1216,-17744,6836,-5940,1773,-695,-94000,-5000,75000,417535,
1228,-17792,7132,-5585,2060,-906,-94000,-5000,75000,417537,
-20,-17700,7564,-3198,4581,-1334,-94000,-5000,74000,417550,
-264,-17560,7332,-2774,5187,-1305,-94000,-6000,74000,417552,
-644,-17568,7024,-2450,5607,-1243,-94000,-6000,74000,417554,
-2832,-16784,4848,-1602,5669,-723,-94000,-6000,74000,417567,
-3192,-16716,4420,-1622,5344,-621,-94000,-6000,74000,417569,
-4040,-15892,4204,-2343,2547,-31,-94000,-5000,73000,417582,
-4064,-15744,4252,-2550,2121,49,-94000,-5000,73000,417584,
-4048,-15708,4192,-2695,1679,147,-94000,-5000,73000,417586,
-3032,-15760,4976,-3174,-491,894,-94000,-5000,73000,417599,
-2520,-15884,5032,-3162,-731,994,-94000,-5000,73000,417601,
-2320,-16020,5200,-3117,-897,1115,-94000,-5000,73000,417603,
72,-16540,5540,-2487,-833,1400,-94000,-5000,73000,417616,
332,-16600,5420,-2320,-599,1349,-94000,-5000,73000,417618,
664,-16592,5492,-2105,-400,1314,-94000,-5000,73000,417620,
1560,-16736,5320,-840,1057,534,-94000,-5000,73000,417633,
1464,-16612,5008,-643,1381,331,-94000,-5000,73000,417635,
1428,-16496,4908,-459,1813,95,-94000,-5000,73000,417637,
-92,-15992,3604,174,2888,-455,-94000,-5000,73000,417650,
-572,-15732,3284,186,2705,-436,-94000,-5000,73000,417652,
-764,-15728,3556,183,2349,-375,-94000,-5000,73000,417654,
-1372,-15636,3852,-116,907,-225,-94000,-5000,73000,417667,
-1336,-15752,3956,-115,689,-241,-94000,-5000,73000,417669,
-1460,-15712,4184,-67,479,-257,-94000,-5000,73000,417671,
-1992,-16068,4524,521,362,34,-94000,-5000,73000,417684,
-2068,-16168,4348,644,437,163,-94000,-5000,73000,417686,
-2000,-16300,4136,763,518,310,-94000,-5000,73000,417688,
-1452,-16316,2664,779,383,1269,-93000,-5000,73000,417701,
-1244,-16324,2432,700,71,1336,-93000,-5000,72000,417703,
-952,-16288,2348,616,-247,1404,-93000,-5000,72000,417705,
628,-16448,2604,346,-1715,940,-93000,-4000,73000,417718,
700,-16332,2716,356,-1805,770,-93000,-4000,73000,417720,
732,-16408,3008,387,-1862,575,-93000,-4000,73000,417722,
396,-16472,2820,927,-1237,-87,-93000,-4000,73000,417735,
188,-16520,2860,977,-1122,-169,-93000,-4000,73000,417737,
52,-16588,2480,1026,-1076,-180,-93000,-4000,73000,417739,
-992,-16740,1648,1037,-1626,34,-93000,-4000,73000,417752,
-1132,-16788,1280,975,-1845,76,-93000,-4000,73000,417754,
-1072,-16800,1408,900,-1982,161,-93000,-4000,73000,417756,
-788,-16868,824,497,-2655,583,-93000,-4000,73000,417769,
-616,-16736,900,457,-2798,658,-93000,-4000,73000,417771,
-508,-16656,772,380,-2879,748,-93000,-4000,73000,417773,
888,-16712,1836,283,-3655,909,-93000,-4000,74000,417786,
1008,-16724,1904,391,-3750,832,-93000,-4000,74000,417788,
1148,-16680,2152,489,-3755,771,-93000,-4000,74000,417790,
1392,-16800,2348,1504,-2093,197,-92000,-4000,74000,417803,
1256,-16752,2340,1698,-1743,118,-92000,-4000,74000,417805,
1056,-16784,2076,1846,-1403,72,-92000,-4000,74000,417807,
-140,-16956,548,2144,-855,223,-92000,-4000,74000,417820,
-372,-16988,456,2079,-940,258,-92000,-4000,74000,417822,
-412,-17108,520,2059,-1109,375,-92000,-4000,74000,417824,
-240,-17080,-376,1512,-1516,977,-92000,-4000,74000,417837,
-24,-17144,-424,1384,-1497,1074,-92000,-4000,74000,417839,
152,-17140,-180,1285,-1531,1166,-92000,-4000,74000,417841,
2144,-16988,1056,1140,-2351,1069,-92000,-4000,75000,417854,
2360,-17080,1384,1109,-2442,938,-92000,-4000,75000,417856,
2608,-17056,1436,1121,-2418,733,-92000,-4000,75000,417858,
2520,-17116,2880,2090,-485,-416,-91000,-4000,75000,417871,
2344,-17120,2928,2403,7,-588,-91000,-4000,75000,417873,
2064,-17280,2924,2669,550,-725,-91000,-4000,75000,417875,
-256,-17508,1152,3590,1973,-664,-91000,-4000,75000,417887,
-580,-17340,964,3580,1992,-546,-91000,-4000,75000,417890,
-872,-17380,484,3491,1861,-427,-91000,-4000,75000,417892,
-1612,-16840,-584,2526,290,506,-91000,-4000,74000,417904,
-1632,-16792,-468,2289,-199,618,-91000,-4000,74000,417907,
-1492,-16696,-320,2109,-815,742,-90000,-4000,74000,417909,
96,-16788,1452,1430,-3031,949,-90000,-3000,75000,417921,
492,-16792,1904,1425,-3083,872,-90000,-3000,75000,417924,
684,-16728,2008,1505,-3094,765,-90000,-3000,75000,417926,
1224,-17188,2356,2277,-1863,98,-90000,-3000,75000,417938,
1124,-17336,2136,2404,-1631,16,-90000,-3000,75000,417941,
980,-17364,2128,2542,-1435,-18,-90000,-3000,75000,417943,
500,-17452,1092,2564,-1109,169,-90000,-3000,75000,417955,
528,-17448,876,2489,-1139,241,-90000,-3000,75000,417958,
552,-17420,796,2416,-1106,305,-90000,-3000,75000,417960,
1076,-17040,824,1810,-1206,443,-89000,-3000,75000,417972,
1224,-16536,784,1494,-1266,450,-89000,-3000,75000,417975,
1432,-16656,1004,1394,-1343,507,-89000,-3000,75000,417977,
3060,-17128,2484,1394,-1404,-183,-89000,-3000,76000,417989,
3252,-17268,2876,1514,-1132,-464,-89000,-3000,76000,417992,
3460,-17260,3332,1697,-825,-757,-89000,-3000,76000,417994,
2556,-17480,4264,3297,1720,-1967,-89000,-4000,75000,418006,
2148,-17660,4392,3652,2227,-2035,-89000,-4000,75000,418009,
1760,-17684,4288,3959,2718,-2034,-88000,-4000,75000,418011,
-428,-17528,3688,5157,4536,-1092,-88000,-4000,75000,418023,
-704,-17520,3644,5325,4740,-831,-88000,-4000,75000,418026,
-1020,-17588,3552,5440,4914,-592,-88000,-4000,75000,418028,
-1200,-17000,2732,5522,4977,682,-87000,-4000,74000,418040,
-1104,-16912,2592,5438,4849,837,-87000,-4000,74000,418043,
-1036,-16800,2420,5372,4682,940,-87000,-3000,74000,418045,
592,-16448,2572,4717,2855,704,-86000,-3000,74000,418057,
748,-16424,2872,4563,2503,526,-86000,-3000,74000,418060,
1056,-16344,3172,4425,2189,294,-86000,-3000,74000,418062,
1256,-16540,4212,4058,1583,-1184,-86000,-3000,74000,418075,
1128,-16604,4488,4107,1778,-1362,-86000,-4000,74000,418077,
896,-16772,4600,4249,1999,-1485,-86000,-4000,73000,418079,
-980,-17716,5276,5597,3430,-1311,-85000,-4000,73000,418091,
-1256,-17876,5088,5804,3655,-1084,-85000,-4000,73000,418094,
-1368,-17984,4948,5979,3853,-854,-85000,-4000,73000,418096,
-1580,-17868,5384,6394,4292,720,-84000,-3000,73000,418108,
-1408,-17728,5440,6431,4218,927,-84000,-3000,73000,418111,
-1188,-17532,5404,6442,4116,1136,-84000,-3000,72000,418113,
500,-17028,6344,6829,3768,1351,-83000,-3000,72000,418125,
808,-17012,6360,6972,3811,1246,-83000,-3000,72000,418128,
1012,-16940,6280,7082,4026,1123,-83000,-3000,72000,418130,
1220,-16788,6360,7913,5469,545,-82000,-3000,71000,418142,
1004,-16940,6452,8061,5599,545,-82000,-3000,71000,418145,
956,-17004,6720,8179,5677,556,-81000,-3000,71000,418147,
-148,-17536,7388,9001,6404,1035,-80000,-3000,71000,418159,
-524,-17596,7440,9141,6552,1183,-80000,-3000,71000,418162,
-752,-17836,7660,9323,6783,1332,-80000,-3000,70000,418164,
-1788,-18168,8356,10245,7596,2052,-79000,-2000,70000,418176,
-1776,-18308,8636,10406,7669,2172,-79000,-2000,70000,418179,
-1760,-18300,8552,10571,7657,2248,-79000,-2000,69000,418181,
-2220,-18036,9184,11238,7437,2646,-77000,-2000,69000,418193,
-2496,-18108,9160,11326,7406,2726,-77000,-2000,69000,418196,
-2480,-18036,9380,11441,7373,2751,-77000,-2000,69000,418198,
-3804,-17840,9692,12124,7823,3342,-76000,-1000,68000,418210,
-4096,-17864,9732,12334,7946,3583,-75000,-1000,68000,418213,
-4412,-17824,9788,12534,8027,3880,-75000,-1000,68000,418215,
-5328,-18200,9768,13622,8137,6325,-74000,0,67000,418227,
-5432,-18236,9928,13767,8192,6821,-74000,0,67000,418230,
-5368,-18420,9992,13906,8135,7431,-73000,0,67000,418232,
-4024,-19388,11964,15224,7978,9803,-72000,1000,66000,418244,
-3652,-19688,12736,15762,8216,10096,-71000,1000,66000,418247,
-3364,-19828,12768,16207,8501,10312,-71000,1000,66000,418249,
-1984,-19524,11344,16915,9188,10371,-70000,2000,66000,418262,
-1984,-19564,11340,16915,8999,10270,-69000,3000,66000,418264,
-2032,-19464,11676,17011,8761,10186,-69000,3000,66000,418266,
-4284,-19396,13508,18197,7237,10016,-67000,4000,65000,418279,
-4524,-19452,13692,18565,7262,10153,-67000,4000,65000,418281,
-6264,-19956,13616,20707,8339,11458,-65000,6000,65000,418293,
-6388,-19980,13424,20971,8436,11777,-64000,6000,65000,418296,
-6524,-20168,13152,21189,8429,12060,-64000,6000,65000,418298,
-5888,-20612,11844,21735,7289,13096,-62000,8000,65000,418310,
-5844,-20680,11812,21787,6866,13188,-62000,8000,65000,418313,
-5660,-20708,11852,21825,6480,13257,-61000,8000,65000,418315,
-5608,-20224,11480,22093,4811,13321,-59000,9000,65000,418327,
-5740,-20208,11720,22198,4620,13329,-59000,10000,65000,418330,
-5872,-20072,11624,22265,4478,13367,-58000,10000,65000,418332,
-6952,-19276,12860,22948,3629,13985,-56000,11000,66000,418345,
-7020,-19076,13064,23081,3492,14162,-55000,12000,66000,418347,
-7412,-19316,14712,23896,2433,15422,-53000,13000,66000,418359,
-7288,-19400,14580,24127,2276,15621,-53000,13000,67000,418362,
-7192,-19512,14808,24316,2117,15776,-52000,13000,67000,418364,
-7324,-20160,15212,25217,1637,16059,-49000,15000,68000,418376,
-7528,-20428,15200,25379,1509,16096,-49000,15000,68000,418379,
-7624,-20432,15104,25502,1365,16110,-49000,15000,68000,418381,
-8136,-20668,13908,26191,462,16421,-46000,16000,69000,418393,
-8244,-20588,13432,26217,291,16490,-45000,17000,69000,418395,
-9228,-18828,11288,24833,-1504,16923,-43000,18000,70000,418408,
-9512,-18408,11648,24652,-1970,17010,-42000,18000,71000,418410,
-9536,-18116,12000,24569,-2479,17151,-42000,18000,71000,418412,
-9256,-18276,13624,25786,-2973,17797,-39000,19000,72000,418425,
-9044,-18416,13728,26207,-2747,17882,-38000,19000,73000,418427,
-8980,-18700,13800,26511,-2405,18024,-38000,19000,73000,418430,
-9064,-17912,12068,26251,-2843,19482,-35000,20000,75000,418442,
-9036,-17744,11964,25936,-3471,19797,-34000,20000,75000,418444,
-8048,-16240,13100,24943,-6844,20073,-31000,21000,77000,418457,
-7660,-15940,13484,25013,-6944,19816,-30000,21000,78000,418459,
-7424,-15772,13344,25142,-6870,19518,-30000,21000,78000,418461,
-6948,-14844,12968,25523,-6150,17920,-27000,21000,80000,418474,
-6940,-14576,12872,25531,-6193,17766,-26000,21000,80000,418476,
-7108,-14520,12804,25498,-6369,17647,-26000,21000,80000,418478,
-6488,-13688,13092,25113,-6882,17574,-23000,21000,82000,418491,
-6160,-13484,13200,25039,-6942,17589,-22000,21000,83000,418493,
-5460,-12292,13944,25342,-6043,17095,-19000,22000,85000,418506,
-5440,-12116,14000,25415,-5685,16925,-19000,22000,85000,418508,
-5532,-11856,13772,25503,-5330,16703,-18000,22000,85000,418510,
-6492,-10636,12856,25524,-4060,15997,-15000,22000,87000,418523,
-6664,-10452,12804,25459,-4178,16037,-15000,22000,87000,418525,
-7036,-10228,12768,25332,-4398,16097,-14000,22000,87000,418527,
-7812,-8868,13424,24688,-5859,16640,-11000,21000,89000,418540,
-7904,-8628,13776,24586,-6112,16725,-11000,21000,90000,418542,
-7832,-7564,14892,24452,-6540,17090,-8000,21000,91000,418555,
-7752,-7464,15172,24484,-6468,17107,-7000,21000,92000,418557,
-7620,-7240,15520,24514,-6354,17113,-7000,21000,92000,418559,
-6880,-6756,15592,24603,-5966,17256,-4000,21000,94000,418572,
-6600,-6548,15116,24620,-5941,17269,-3000,20000,94000,418574,
-6372,-6380,14776,24562,-5908,17299,-3000,20000,94000,418576,
-5384,-5692,14808,24180,-5909,17231,0,20000,96000,418589,
-5088,-5392,15144,24254,-5945,17201,0,20000,96000,418591,
-5128,-5200,15028,24216,-5905,17159,0,20000,97000,418593,
-5200,-3996,14356,24217,-5190,16780,3000,19000,98000,418606,
-5392,-3676,14164,24264,-5137,16674,3000,19000,99000,418608,
-5620,-3528,14312,24255,-5122,16561,4000,19000,99000,418610,
-7164,-1948,13856,24114,-5511,16394,7000,18000,101000,418623,
-7332,-1648,13700,24064,-5510,16419,7000,18000,101000,418625,
-7620,-1520,13904,24051,-5442,16522,8000,18000,101000,418628,
-8508,-164,13144,23667,-5638,17364,10000,17000,103000,418640,
-8452,12,13052,23544,-5731,17570,11000,17000,103000,418642,
-8288,208,12788,23371,-5842,17800,11000,17000,103000,418645,
-5828,1032,11328,22010,-6798,18667,14000,16000,105000,418657,
-5284,1076,11200,21786,-7015,18735,14000,16000,105000,418659,
-1588,2016,12356,20849,-7884,18217,17000,15000,107000,418672,
-1148,2068,12700,20822,-7844,17987,17000,14000,107000,418674,
-692,2156,12648,20926,-7719,17747,18000,14000,107000,418676,
-420,2680,14080,21980,-6254,16251,20000,13000,109000,418689,
-580,2764,14180,22467,-5790,16075,20000,13000,109000,418691,
-812,2968,14032,22805,-5245,15925,21000,13000,109000,418693,
-3064,5052,11796,23371,-2528,14975,23000,12000,110000,418706,
-3660,5564,11332,23302,-2428,15014,24000,12000,111000,418708,
-4108,5780,10916,23162,-2470,15094,24000,12000,111000,418710,
-4980,7004,8900,21296,-4832,16590,27000,10000,112000,418723,
-4748,7016,8612,20821,-5528,16895,27000,10000,112000,418725,
-4328,7040,8632,20396,-6141,17165,27000,10000,113000,418727,
-964,6980,8640,18657,-8290,17291,29000,9000,114000,418740,
12,6684,8836,18485,-8388,17042,30000,8000,114000,418742,
380,6564,9124,18355,-8385,16812,30000,8000,114000,418744,
2672,6960,9680,17771,-7961,14443,32000,6000,115000,418757,
2788,7140,9756,17655,-7820,13948,32000,6000,115000,418759,
2800,7316,9672,17587,-7673,13426,33000,6000,115000,418761,
1640,8168,10580,17506,-6646,11627,34000,5000,116000,418774,
1036,8344,10748,17554,-6390,11509,35000,5000,116000,418776,
608,8400,11064,17653,-6131,11486,35000,4000,116000,418778,
-1116,8540,10456,18132,-4220,12222,37000,3000,116000,418791,
-1264,8488,9984,18125,-3922,12506,37000,3000,117000,418793,
-1384,8328,9624,18116,-3743,12738,38000,3000,117000,418795,
-1152,8112,7668,17268,-4278,13787,39000,2000,118000,418808,
-968,8116,7432,16955,-4598,13893,40000,2000,118000,418810,
428,8356,6196,15374,-6100,13816,41000,0,118000,418823,
920,8536,6076,15003,-6293,13716,41000,0,118000,418825,
1284,8780,5844,14751,-6412,13614,42000,0,118000,418827,
2388,9728,5556,13065,-6851,12939,43000,-1000,119000,418840,
2620,10000,5940,12978,-6713,12944,43000,-1000,119000,418842,
2908,10088,5940,12904,-6510,12963,44000,-1000,119000,418844,
4804,10200,6160,12292,-4183,12379,45000,-2000,120000,418857,
5184,10224,6428,12160,-3791,12126,45000,-3000,120000,418859,
5304,10228,6620,12020,-3571,11877,45000,-3000,120000,418861,
5544,9836,6712,11389,-2678,10335,46000,-4000,120000,418874,
5332,9972,6688,11295,-2543,10069,46000,-4000,120000,418876,
5176,9944,6820,11169,-2362,9811,47000,-4000,121000,418878,
3236,9752,6220,10611,-1136,9004,48000,-5000,121000,418891,
2888,9760,5944,10474,-902,8974,48000,-5000,121000,418893,
2596,9776,5808,10298,-749,8965,48000,-5000,121000,418895,
984,10060,4724,8974,-1093,9394,49000,-6000,122000,418908,
848,10464,4364,8689,-1364,9501,49000,-6000,122000,418910,
792,10488,4356,8353,-1731,9588,49000,-6000,122000,418912,
1252,10724,3760,6370,-3899,9730,50000,-7000,122000,418925,
1668,10760,3824,5973,-4186,9678,50000,-7000,122000,418927,
1944,10904,3740,5621,-4480,9603,50000,-8000,122000,418929,
3436,10952,3864,3789,-5669,8908,51000,-9000,122000,418941,
3952,10880,4140,3507,-5740,8751,51000,-9000,122000,418944,
4152,10904,4068,3207,-5830,8601,51000,-9000,122000,418946,
5524,10884,4252,1900,-5477,7615,51000,-10000,122000,418958,
5772,11008,4436,1733,-5291,7427,51000,-10000,122000,418961,
5808,11032,4392,1589,-5089,7260,51000,-10000,122000,418963,
6196,11020,4652,781,-3504,6241,51000,-11000,123000,418976,
6120,10988,4592,647,-3199,6056,51000,-11000,123000,418978,
6192,10984,4776,551,-2905,5933,51000,-11000,123000,418980,
5596,10868,4780,-134,-1748,5398,51000,-12000,123000,418993,
5532,10656,4824,-306,-1596,5283,51000,-12000,123000,418995,
5508,10748,4888,-442,-1426,5217,51000,-12000,123000,418997,
5044,10436,5324,-1257,-1069,4759,51000,-13000,123000,419010,
4896,10440,5404,-1386,-1075,4702,51000,-13000,123000,419012,
5036,10424,5524,-1546,-1083,4656,51000,-13000,123000,419014,
5032,10540,5784,-2448,-1066,4266,51000,-13000,123000,419027,
5072,10612,6024,-2595,-1068,4212,51000,-13000,123000,419029,
5096,10604,6052,-2711,-1135,4135,51000,-13000,123000,419031,
5360,10712,6300,-3420,-1037,3638,51000,-14000,123000,419044,
5356,10836,6552,-3523,-981,3510,51000,-14000,123000,419046,
5308,10904,6676,-3642,-897,3406,51000,-14000,123000,419048,
5288,11052,7408,-3962,-584,2684,50000,-14000,124000,419061,
5112,10948,7372,-3971,-556,2547,50000,-14000,124000,419063,
4976,10996,7540,-4011,-544,2420,50000,-14000,124000,419065,
4452,10960,8280,-4203,-515,1904,50000,-15000,124000,419078,
4336,10880,8360,-4250,-595,1866,50000,-15000,124000,419080,
4404,10952,8512,-4261,-665,1839,49000,-15000,124000,419082,
4408,10744,8932,-4418,-956,1829,49000,-15000,124000,419095,
4488,10800,8940,-4479,-958,1799,49000,-15000,124000,419097,
4668,10784,8888,-4457,-968,1753,49000,-15000,124000,419099,
5380,11016,9448,-4249,-819,1107,48000,-15000,124000,419112,
5276,11032,9524,-4168,-821,955,48000,-15000,124000,419114,
5484,11080,9404,-4132,-720,836,48000,-15000,124000,419116,
5572,11248,9384,-3913,-500,325,48000,-15000,124000,419129,
5548,11384,9472,-3848,-394,278,48000,-15000,124000,419131,
5604,11228,9476,-3816,-356,209,48000,-15000,124000,419133,
5576,11568,9524,-3457,40,-242,47000,-15000,124000,419146,
5528,11572,9684,-3422,112,-351,47000,-15000,124000,419148,
5524,11576,9516,-3377,243,-474,47000,-15000,124000,419150,
5048,11796,9680,-3154,392,-837,47000,-15000,124000,419163,
5128,11764,9852,-3135,335,-882,47000,-15000,124000,419165,
4872,11764,9972,-3076,285,-928,47000,-15000,124000,419167,
4832,11792,10212,-2830,184,-1127,47000,-15000,124000,419180,
4768,11736,10160,-2796,206,-1165,47000,-15000,124000,419182,
4740,11708,10300,-2685,233,-1227,47000,-15000,124000,419184,
4828,11832,10244,-2397,246,-1448,46000,-15000,124000,419197,
4596,11852,10244,-2343,230,-1473,46000,-15000,124000,419199,
4524,12064,10236,-2192,331,-1546,46000,-15000,123000,419211,
4532,12216,10528,-2197,386,-1559,46000,-15000,123000,419214,
4528,12232,10324,-2197,409,-1591,46000,-15000,123000,419216,
4636,12608,10156,-2217,387,-1641,46000,-15000,123000,419228,
4676,12580,10096,-2210,377,-1648,46000,-15000,123000,419231,
4636,12584,10040,-2262,390,-1624,46000,-15000,123000,419233,
5224,12516,10016,-2241,505,-1881,46000,-14000,123000,419245,
5140,12492,10060,-2248,499,-1953,46000,-14000,123000,419248,
5388,12536,10004,-2248,485,-2006,46000,-14000,123000,419250,
5104,12436,9824,-2211,508,-2337,46000,-14000,123000,419262,
5060,12436,9892,-2162,538,-2336,46000,-14000,123000,419265,
5028,12448,9988,-2158,583,-2376,46000,-14000,123000,419267,
4612,12540,9936,-2067,933,-2355,45000,-14000,123000,419280,
4476,12484,9992,-2069,992,-2342,45000,-14000,123000,419282,
4404,12664,9952,-2091,1074,-2337,45000,-14000,123000,419284,
3980,12760,9852,-2188,1196,-2143,45000,-14000,123000,419297,
3856,12840,9996,-2193,1187,-2104,45000,-14000,123000,419299,
3856,12724,9868,-2249,1168,-2089,45000,-14000,123000,419301,
4132,12656,9956,-2585,1060,-1996,45000,-13000,123000,419314,
4204,12696,9900,-2643,1073,-2003,45000,-13000,123000,419316,
4552,12488,9668,-2958,1039,-2287,45000,-13000,123000,419328,
4492,12408,9568,-2999,1049,-2354,45000,-13000,123000,419331,
4532,12304,9612,-3023,1083,-2378,45000,-13000,122000,419333,
4052,12144,9532,-3200,1266,-2664,44000,-13000,122000,419345,
3880,12044,9568,-3271,1287,-2655,44000,-13000,122000,419348,
3828,12036,9556,-3325,1283,-2617,44000,-13000,122000,419350,
3324,12068,9704,-3652,1305,-2226,44000,-12000,122000,419362,
3196,12056,9524,-3717,1274,-2130,44000,-12000,122000,419365,
3316,11972,9552,-3797,1237,-2044,44000,-12000,122000,419367,
3616,11980,9868,-4096,1211,-1827,44000,-12000,122000,419380,
3636,12052,10040,-4151,1206,-1817,43000,-12000,122000,419382,
3744,11996,10200,-4196,1248,-1822,43000,-12000,122000,419384,
4120,11704,10400,-4431,1368,-1972,43000,-12000,122000,419397,
4164,11680,10460,-4479,1440,-2033,43000,-12000,122000,419399,
4244,11644,10296,-4518,1487,-2092,43000,-12000,122000,419401,
4376,11332,10556,-4537,1947,-2437,43000,-11000,122000,419414,
4212,11392,10544,-4559,1993,-2494,42000,-11000,122000,419416,
3560,11528,10720,-4637,2374,-2622,42000,-11000,122000,419428,
3712,11556,10724,-4649,2394,-2607,42000,-11000,122000,419431,
3548,11568,10800,-4682,2411,-2589,42000,-11000,122000,419433,
3196,11912,11008,-4842,2210,-2382,41000,-11000,122000,419445,
3180,12096,11220,-4887,2183,-2343,41000,-11000,122000,419448,
3232,12068,10972,-4934,2188,-2307,41000,-11000,122000,419450,
3184,12044,11604,-4969,2046,-2471,41000,-10000,122000,419462,
3252,11944,11528,-4925,1944,-2504,41000,-10000,122000,419465,
3240,11912,11512,-4947,1855,-2576,41000,-10000,122000,419467,
3004,11732,12068,-4868,1504,-2709,40000,-10000,122000,419479,
2880,11756,12060,-4863,1433,-2667,40000,-10000,122000,419482,
3012,11852,12568,-4742,1358,-2434,40000,-10000,122000,419494,
2960,11920,12456,-4711,1344,-2399,40000,-9000,122000,419496,
3144,11952,12668,-4677,1356,-2317,40000,-9000,122000,419499,
3708,12356,13096,-4468,1393,-2198,39000,-9000,122000,419511,
3780,12416,13024,-4455,1489,-2194,39000,-9000,122000,419514,
3884,12464,13004,-4401,1567,-2241,39000,-9000,122000,419516,
4164,12452,13040,-4033,2105,-2593,39000,-9000,121000,419528,
4032,12424,13176,-3923,2101,-2706,39000,-9000,121000,419531,
4028,12476,13064,-3844,2092,-2797,39000,-9000,121000,419533,
2852,12064,13024,-3406,2211,-3260,38000,-8000,121000,419545,
2680,11972,13080,-3308,2228,-3283,38000,-8000,121000,419548,
2444,11860,12928,-3253,2261,-3300,38000,-8000,121000,419550,
1232,11576,12876,-3080,2098,-3113,38000,-8000,121000,419562,
992,11748,12828,-3080,2042,-2987,38000,-8000,121000,419565,
932,11584,12876,-3086,1940,-2928,38000,-8000,121000,419567,
1048,11560,13328,-3154,1290,-2428,38000,-7000,121000,419579,
1096,11628,13368,-3188,1190,-2395,38000,-7000,121000,419582,
1924,12104,13332,-3124,908,-2131,37000,-7000,121000,419594,
2064,12148,13324,-3061,899,-2109,37000,-7000,121000,419596,
2140,12124,13492,-3033,912,-2143,37000,-7000,121000,419599,
2412,12360,13472,-2734,1167,-2304,37000,-7000,121000,419611,
2536,12396,13284,-2692,1244,-2311,37000,-7000,121000,419613,
2452,12416,13260,-2619,1305,-2337,37000,-7000,121000,419616,
1888,12064,13208,-2345,1475,-2262,37000,-7000,121000,419628,
1684,12048,13144,-2304,1534,-2230,37000,-7000,121000,419631,
1668,12028,13248,-2266,1543,-2211,37000,-6000,121000,419633,
1308,11540,13320,-2162,1389,-1898,36000,-6000,120000,419645,
1204,11648,13192,-2156,1284,-1828,36000,-6000,120000,419648,
1312,11568,13140,-2189,1222,-1754,36000,-6000,120000,419650,
1688,11760,13408,-2209,852,-1510,36000,-6000,120000,419662,
1708,11860,13552,-2197,854,-1500,36000,-6000,120000,419665,
1792,11916,13668,-2174,810,-1534,36000,-6000,120000,419667,
2016,12056,13624,-1972,850,-1717,36000,-6000,120000,419679,
1992,12032,13736,-1939,892,-1769,36000,-6000,120000,419681,
2004,12016,13736,-1870,896,-1776,36000,-6000,120000,419684,
1648,11828,13440,-1672,971,-1742,36000,-6000,120000,419696,
1500,11804,13340,-1662,917,-1709,36000,-6000,120000,419698,
1428,11548,13436,-1649,853,-1639,36000,-6000,120000,419701,
964,11272,13344,-1560,558,-1287,36000,-5000,120000,419713,
1116,11220,13368,-1503,491,-1218,36000,-5000,120000,419716,
1024,11192,13316,-1521,466,-1151,36000,-5000,120000,419718,
1104,11272,13388,-1536,143,-838,36000,-5000,120000,419730,
1264,11248,13312,-1568,84,-804,36000,-5000,120000,419733,
1312,11272,13532,-1587,28,-761,36000,-5000,120000,419735,
1932,11392,13484,-1586,-94,-756,35000,-5000,120000,419747,
2028,11400,13676,-1552,-91,-763,35000,-5000,120000,419750,
2048,11428,13580,-1525,-67,-764,35000,-5000,120000,419752,
2468,11348,13484,-1357,245,-928,35000,-5000,120000,419764,
2492,11364,13392,-1323,321,-961,35000,-5000,120000,419767,
2508,11272,13248,-1264,385,-974,35000,-5000,120000,419769,
2224,10948,13084,-1179,701,-1049,35000,-5000,120000,419781,
2296,10952,13092,-1155,739,-1023,35000,-5000,120000,419784,
2284,10916,13080,-1148,743,-1012,35000,-5000,120000,419786,
1936,10548,12840,-1162,746,-978,35000,-5000,120000,419798,
1984,10620,12608,-1194,728,-984,35000,-5000,120000,419801,
1760,10512,12660,-1187,708,-976,35000,-5000,120000,419803,
1472,10424,12508,-1341,561,-960,35000,-5000,120000,419815,
1488,10488,12440,-1389,532,-945,35000,-5000,120000,419818,
1440,10444,12472,-1401,460,-897,35000,-5000,120000,419820,
1380,10504,12360,-1612,109,-714,35000,-5000,120000,419832,
1340,10608,12424,-1713,31,-668,35000,-5000,120000,419835,
1376,10608,12464,-1732,-62,-626,35000,-5000,120000,419837,
1864,10732,12744,-1976,-299,-457,35000,-5000,119000,419849,
1956,10748,12692,-2014,-329,-453,35000,-5000,119000,419852,
2048,10668,12648,-2043,-307,-483,34000,-5000,119000,419854,
2608,10572,12988,-2021,-92,-750,34000,-5000,119000,419866,
2524,10552,12824,-2028,-10,-833,34000,-5000,119000,419869,
2504,10528,12768,-2001,12,-890,34000,-5000,119000,419871,
2284,10196,12612,-2013,285,-1180,34000,-5000,119000,419883,
2416,10200,12716,-2024,296,-1181,34000,-5000,119000,419886,
2196,10096,12844,-2034,381,-1170,34000,-5000,119000,419888,
1820,10092,12556,-2031,674,-1134,34000,-4000,119000,419900,
1880,10176,12660,-2050,735,-1089,34000,-4000,119000,419903,
1792,10196,12500,-2059,776,-1080,34000,-4000,119000,419905,
1632,10464,12544,-2222,707,-951,34000,-4000,119000,419917,
1552,10380,12620,-2260,683,-942,34000,-4000,119000,419919,
1676,10452,12468,-2289,620,-935,34000,-4000,119000,419922,
1764,10492,12640,-2500,491,-925,33000,-4000,119000,419934,
1876,10420,12664,-2548,505,-924,33000,-4000,119000,419936,
1872,10520,12492,-2550,504,-923,33000,-4000,119000,419939,
1964,10260,12700,-2623,694,-1113,33000,-4000,119000,419951,
2004,10316,12792,-2652,751,-1154,33000,-4000,119000,419953,
2060,10304,12708,-2658,796,-1216,33000,-4000,119000,419956,
1892,10124,12800,-2669,846,-1478,33000,-4000,119000,419968,
1956,10124,12736,-2688,843,-1498,33000,-4000,119000,419970,
1556,10240,12796,-2778,816,-1565,33000,-4000,119000,419983,
1528,10148,13120,-2813,773,-1570,32000,-4000,119000,419985,
1408,10236,12928,-2801,763,-1542,32000,-4000,119000,419987,
996,10184,13200,-2855,624,-1455,32000,-4000,119000,420000,
1044,10244,13288,-2866,594,-1452,32000,-4000,119000,420002,
960,10204,13108,-2868,563,-1413,32000,-3000,119000,420004,
1068,10124,13600,-2924,426,-1315,32000,-3000,119000,420017,
1008,10172,13520,-2929,412,-1309,32000,-3000,119000,420019,
1088,10012,13648,-2928,418,-1278,32000,-3000,119000,420021,
1392,10084,13708,-2973,394,-1291,32000,-3000,118000,420034,
1328,10084,13904,-2976,389,-1279,31000,-3000,118000,420036,
1428,10092,13816,-2937,433,-1300,31000,-3000,118000,420039,
1440,10132,13916,-2715,659,-1286,31000,-3000,118000,420051,
1364,10068,13868,-2706,704,-1267,31000,-3000,118000,420053,
1264,10080,13920,-2718,792,-1240,31000,-3000,118000,420055,
1116,9984,14076,-2360,1377,-1329,31000,-3000,118000,420068,
1228,9896,14076,-2268,1519,-1380,31000,-3000,118000,420070,
1280,10012,14008,-2254,1629,-1476,31000,-3000,118000,420073,
488,10100,13440,-2670,934,-1779,31000,-3000,118000,420085,
444,10136,13452,-2729,745,-1783,31000,-3000,118000,420087,
344,10020,13652,-2807,563,-1806,31000,-3000,118000,420090,
52,9820,13964,-2814,443,-1645,30000,-2000,118000,420102,
196,9772,14088,-2783,528,-1625,30000,-2000,118000,420104,
36,9648,14228,-2735,585,-1571,30000,-2000,118000,420107,
300,9652,14220,-2595,680,-1404,30000,-2000,118000,420119,
408,9528,14316,-2574,699,-1382,30000,-2000,118000,420121,
452,9528,14164,-2566,695,-1374,30000,-2000,118000,420124,
724,9736,14332,-2515,747,-1330,30000,-2000,118000,420136,
960,9752,14244,-2464,789,-1341,30000,-2000,118000,420138,
860,9736,14356,-2453,841,-1375,30000,-2000,118000,420141,
664,10092,14344,-2213,1017,-1433,29000,-2000,118000,420153,
684,10120,14488,-2145,1004,-1464,29000,-2000,118000,420155,
656,10168,14676,-2137,1012,-1442,29000,-2000,118000,420158,
288,10020,14868,-1912,1052,-1469,29000,-2000,118000,420170,
260,10096,14884,-1887,1098,-1462,29000,-2000,118000,420173,
140,10084,14824,-1855,1019,-1463,29000,-2000,118000,420175,
128,9884,14860,-1682,944,-1295,29000,-1000,118000,420187,
216,9836,14944,-1678,942,-1286,29000,-1000,117000,420189,
148,9984,15008,-1668,906,-1233,29000,-1000,117000,420192,
368,10072,14948,-1477,899,-1130,29000,-1000,117000,420204,
300,10092,14964,-1467,874,-1084,29000,-1000,117000,420206,
372,10136,15056,-1448,880,-1084,29000,-1000,117000,420209,
444,10216,14884,-1331,878,-1013,29000,-1000,117000,420221,
396,10164,14912,-1278,838,-1011,29000,-1000,117000,420223,
292,10288,14936,-1284,812,-1003,29000,-1000,117000,420226,
-76,9980,14848,-1249,559,-966,29000,-1000,117000,420238,
-16,10032,14924,-1221,559,-913,29000,-1000,117000,420240,
-100,10068,15016,-1233,516,-893,29000,-1000,117000,420243,
-132,9800,15072,-1193,429,-663,29000,-1000,117000,420255,
-16,9776,15072,-1155,392,-638,29000,-1000,117000,420257,
92,9804,15176,-1146,394,-631,29000,-1000,117000,420260,
280,9808,14948,-1180,314,-576,28000,-1000,117000,420272,
332,9800,14960,-1210,306,-599,28000,-1000,117000,420274,
376,9732,14940,-1180,314,-582,28000,-1000,117000,420277,
264,9832,14860,-1108,318,-632,28000,-1000,117000,420289,
332,9864,14984,-1105,339,-634,28000,-1000,117000,420291,
320,9844,15048,-1034,351,-606,28000,-1000,117000,420293,
88,9796,15088,-950,516,-554,28000,-1000,117000,420306,
-124,9892,15060,-908,525,-554,28000,-1000,117000,420308,
-28,9864,15108,-927,541,-542,28000,-1000,117000,420310,
-368,9764,14980,-828,427,-366,28000,0,117000,420323,
-376,9788,15000,-838,329,-341,28000,0,117000,420325,
-484,9700,15036,-832,286,-298,28000,0,117000,420327,
-480,9736,15020,-870,221,-249,28000,0,117000,420330,
-508,9776,15100,-892,-104,16,28000,0,117000,420342,
-580,9604,14900,-891,-121,47,28000,0,117000,420344,
-424,9716,14980,-892,-177,88,28000,0,117000,420347,
-232,9556,15016,-837,-292,223,28000,0,117000,420359,
-36,9460,15012,-809,-329,239,28000,0,117000,420361,
80,9624,15020,-793,-319,218,28000,0,117000,420364,
84,9468,15084,-785,-334,243,28000,0,117000,420366,
284,9436,14996,-654,-171,205,28000,-1000,117000,420378,
236,9392,14932,-624,-148,204,28000,-1000,117000,420381,
388,9456,14980,-589,-111,200,28000,-1000,117000,420383,
340,9496,14868,-428,110,193,28000,-1000,117000,420395,
196,9436,14904,-396,154,220,28000,-1000,117000,420398,
56,9436,14828,-383,160,188,28000,-1000,117000,420400,
-40,9412,14820,-318,169,242,28000,-1000,117000,420412,
36,9416,14756,-282,162,270,28000,-1000,117000,420415,
-32,9408,14760,-293,175,290,28000,-1000,117000,420417,
-100,9368,14656,-259,84,373,28000,-1000,117000,420429,
-68,9380,14560,-241,70,398,28000,-1000,117000,420432,
-60,9476,14492,-247,9,406,28000,-1000,117000,420434,
-152,9288,14700,-238,13,417,28000,-1000,117000,420436,
204,9352,14812,-199,-118,497,28000,-1000,117000,420449,
236,9212,14772,-205,-87,511,28000,-1000,117000,420451,
216,9168,14644,-189,-75,504,28000,-1000,117000,420453,
532,9220,14604,-51,6,506,28000,-1000,117000,420466,
516,9240,14712,-39,43,484,28000,-1000,117000,420468,
568,9180,14700,-12,79,480,28000,-1000,117000,420470,
688,9336,14716,68,223,363,28000,-1000,117000,420482,
652,9344,14556,47,266,355,28000,-1000,117000,420485,
628,9348,14432,95,270,339,28000,-1000,117000,420487,
688,9284,14512,117,263,300,28000,-1000,117000,420489,
284,9516,14544,145,224,243,28000,-1000,117000,420502,
260,9468,14408,155,197,233,28000,-1000,117000,420504,
196,9440,14532,139,129,243,28000,-1000,117000,420506,
16,9352,14596,119,-32,427,28000,-1000,117000,420519,
80,9484,14540,122,-33,429,28000,-1000,117000,420521,
108,9456,14620,103,-71,513,28000,-1000,117000,420523,
