Ax,Ay,Az,Gx,Gy,Gz,Roll,Pitch,Yaw,Timestamp,Target
-1820,-3488,16084,233,8,-74,-10000,7000,254000,693524,
-1972,-3548,16024,252,172,-136,-10000,7000,254000,693536,
-2040,-3628,16088,239,220,-141,-10000,7000,254000,693539,
-2084,-3568,16096,268,200,-112,-10000,7000,254000,693541,
-2196,-3304,16180,244,184,-177,-10000,7000,254000,693553,
-2344,-3348,16144,235,205,-176,-10000,7000,254000,693556,
-2120,-3384,16120,247,166,-159,-10000,7000,254000,693558,
-2376,-3264,16152,197,95,-51,-10000,7000,254000,693570,
-2324,-3288,16084,186,44,-12,-10000,7000,254000,693573,
-2360,-3304,16152,177,62,2,-10000,7000,254000,693575,
-2380,-3424,16240,148,-48,137,-10000,7000,254000,693587,
-2464,-3344,15884,156,-97,169,-10000,7000,254000,693590,
-2388,-3468,16008,154,-107,160,-10000,7000,254000,693592,
-2428,-3628,16088,154,-244,114,-10000,7000,254000,693604,
-2452,-3620,16104,134,-293,135,-10000,7000,254000,693607,
-2364,-3616,16132,166,-299,98,-10000,7000,254000,693609,
0,0,0,0,0,0,-10000,7000,254000,693609,
-2016,-3476,16140,168,-232,11,-10000,7000,254000,693624,
-2024,-3460,15948,168,-213,-20,-10000,7000,254000,693626,
-1944,-3368,16048,167,76,-13,-10000,7000,254000,693639,
-1856,-3296,16060,175,103,7,-10000,7000,254000,693641,
-1888,-3396,16032,151,162,2,-10000,7000,254000,693644,
-2224,-3468,16152,129,278,55,-10000,7000,254000,693656,
-2288,-3432,16112,121,313,30,-10000,7000,254000,693658,
-2244,-3432,16184,114,268,21,-10000,7000,254000,693661,
-2508,-3444,16328,106,48,-16,-10000,7000,254000,693673,
-2508,-3472,16232,109,-7,6,-10000,7000,254000,693676,
-2448,-3472,16516,79,-37,-22,-10000,7000,254000,693678,
-2168,-3440,16500,126,-61,85,-10000,7000,254000,693691,
-2172,-3412,16308,127,-17,78,-10000,7000,254000,693693,
-2112,-3380,16312,153,9,91,-10000,7000,254000,693695,
-1996,-3300,16272,224,266,144,-10000,7000,254000,693708,
-2040,-3436,16328,237,287,171,-10000,7000,254000,693710,
-1980,-3360,16332,263,331,182,-10000,7000,254000,693712,
-2232,-3460,16268,257,319,187,-10000,7000,254000,693725,
-2184,-3528,16340,250,291,178,-10000,7000,254000,693727,
-2224,-3520,16380,263,321,163,-10000,7000,254000,693730,
-2392,-3472,16188,247,180,61,-10000,7000,254000,693742,
-2340,-3424,16312,273,165,73,-10000,7000,254000,693745,
-2452,-3516,16388,248,205,88,-10000,7000,254000,693747,
-2168,-3512,16212,208,271,141,-10000,7000,254000,693759,
-1996,-3416,16180,209,327,129,-10000,7000,254000,693762,
-2088,-3532,16000,213,332,138,-10000,7000,254000,693764,
-2440,-3260,16356,236,396,241,-10000,7000,254000,693777,
-2428,-3280,16188,248,355,246,-10000,7000,254000,693779,
-2324,-3384,16388,225,337,225,-10000,7000,254000,693781,
-2600,-3516,16340,179,53,92,-10000,7000,254000,693794,
-2628,-3464,16324,170,35,84,-10000,7000,254000,693796,
-2576,-3528,16336,173,-15,83,-10000,7000,254000,693798,
-2228,-3352,16100,187,-185,-31,-10000,7000,254000,693811,
-2372,-3368,16228,169,-179,-60,-10000,7000,254000,693813,
-2208,-3420,16216,192,-169,-46,-10000,7000,254000,693816,
-2056,-3308,16224,161,-95,21,-10000,7000,254000,693828,
-2048,-3316,16228,198,-54,41,-10000,7000,254000,693831,
-1988,-3344,16164,168,-24,42,-10000,7000,254000,693833,
-2120,-3336,16028,172,110,78,-10000,7000,254000,693845,
-2072,-3412,16116,172,142,66,-10000,7000,254000,693848,
-2308,-3372,16252,170,118,54,-10000,7000,254000,693850,
-2360,-3440,16148,106,-72,43,-10000,7000,254000,693863,
-2456,-3492,16140,80,-123,57,-10000,7000,254000,693865,
-2332,-3524,16064,88,-150,20,-10000,7000,254000,693867,
-2248,-3480,16028,64,-230,-71,-10000,7000,254000,693880,
-2156,-3560,16188,92,-208,-96,-10000,7000,254000,693882,
-2040,-3520,16240,109,-193,-107,-10000,7000,254000,693884,
-1872,-3276,16088,74,45,-105,-10000,7000,254000,693897,
-2016,-3224,16096,95,111,-90,-10000,7000,254000,693899,
-2016,-3320,16064,96,148,-82,-10000,7000,254000,693902,
-2152,-3420,16216,103,281,-43,-10000,7000,254000,693914,
-2220,-3524,16300,100,288,-38,-10000,7000,254000,693916,
-2260,-3388,16220,110,260,-44,-10000,7000,254000,693919,
-2564,-3424,16188,91,98,-3,-10000,7000,254000,693931,
-2384,-3392,16104,124,64,-37,-10000,7000,254000,693934,
-2368,-3400,16224,99,36,-33,-10000,7000,254000,693936,
-2332,-3280,16220,127,30,-50,-10000,7000,254000,693938,
-2196,-3320,16020,107,-8,-8,-10000,7000,254000,693951,
-2176,-3244,16392,124,-12,-23,-10000,7000,254000,693953,
-2124,-3164,16060,136,-37,17,-10000,7000,254000,693956,
-2352,-3248,16376,106,-167,9,-10000,7000,254000,693968,
-2420,-3168,16120,79,-231,-28,-10000,7000,254000,693971,
-2444,-3192,16100,75,-289,-23,-10000,7000,254000,693973,
-2320,-3296,16160,40,-597,-85,-10000,7000,254000,693986,
-2264,-3348,16200,20,-652,-96,-10000,7000,254000,693988,
-2232,-3372,16216,34,-617,-108,-10000,7000,254000,693990,
-1932,-3396,16256,17,-278,-146,-10000,7000,254000,694003,
-1884,-3372,16172,4,-149,-90,-10000,7000,254000,694005,
-1824,-3444,16336,-14,-80,-59,-10000,7000,254000,694007,
-2048,-3468,16080,8,288,98,-10000,7000,254000,694020,
-2124,-3444,16192,36,301,126,-10000,7000,254000,694022,
-2060,-3576,16044,42,269,136,-10000,7000,254000,694024,
-2560,-3488,16308,126,99,135,-10000,7000,254000,694037,
-2492,-3496,16176,155,70,133,-10000,7000,254000,694039,
-2516,-3508,16372,168,15,151,-10000,7000,254000,694042,
-2260,-3416,16228,140,-88,77,-10000,7000,254000,694054,
-2360,-3476,16072,118,-85,76,-10000,7000,254000,694057,
-2356,-3464,16132,110,-81,63,-10000,7000,254000,694059,
-2268,-3456,16272,79,-157,90,-10000,7000,254000,694071,
-2292,-3416,16328,73,-165,111,-10000,7000,254000,694074,
-2312,-3404,16160,48,-205,100,-10000,7000,254000,694076,
-2212,-3464,16336,41,-205,76,-10000,7000,254000,694088,
-2028,-3328,16340,34,-209,55,-10000,7000,254000,694091,
-2024,-3344,16296,41,-157,58,-10000,7000,254000,694093,
-2008,-3288,16216,73,-65,110,-10000,7000,254000,694106,
-1988,-3420,16736,114,-25,87,-10000,7000,254000,694108,
-1988,-3376,16372,99,6,76,-10000,7000,254000,694110,
-2068,-3432,16452,158,159,62,-10000,7000,254000,694123,
-2144,-3364,16304,141,178,87,-10000,7000,254000,694125,
-2164,-3524,16528,171,118,53,-10000,7000,254000,694127,
-2388,-3508,16376,175,25,65,-10000,7000,254000,694140,
-2412,-3444,16480,175,-1,45,-10000,7000,254000,694142,
-2388,-3436,16200,174,-59,55,-10000,7000,254000,694145,
-2316,-3412,16404,162,-92,61,-10000,7000,254000,694147,
-2156,-3356,16204,167,-104,56,-10000,7000,254000,694159,
-2116,-3476,16324,178,-98,67,-10000,7000,254000,694162,
-2104,-3500,16228,172,-79,59,-10000,7000,254000,694164,
-2144,-3348,16236,189,-34,75,-10000,7000,254000,694177,
-2068,-3284,16320,148,-29,58,-10000,7000,254000,694179,
-2152,-3392,16212,156,-25,95,-10000,7000,254000,694181,
-2208,-3392,16312,99,-220,99,-10000,7000,254000,694194,
-2268,-3348,16404,95,-205,74,-10000,7000,254000,694196,
-2292,-3444,16188,77,-249,78,-10000,7000,254000,694198,
-2160,-3616,16092,106,-261,81,-10000,7000,254000,694211,
-2072,-3592,16200,95,-244,78,-10000,7000,254000,694213,
-2192,-3528,16340,113,-202,103,-10000,7000,254000,694216,
-2080,-3496,16304,182,-38,105,-10000,7000,254000,694228,
-2028,-3452,16476,194,-9,105,-10000,7000,254000,694230,
-2096,-3456,16112,202,-17,108,-10000,7000,254000,694233,
-2108,-3516,16232,278,86,11,-10000,7000,254000,694245,
-2100,-3532,16076,266,82,4,-10000,7000,254000,694248,
-2116,-3492,16268,287,108,-29,-10000,7000,254000,694250,
-2136,-3372,15960,242,65,-66,-10000,7000,254000,694263,
-2184,-3368,16064,220,83,-44,-10000,7000,254000,694265,
-2204,-3356,16048,191,94,-49,-10000,7000,254000,694267,
-2300,-3452,16012,117,45,-16,-10000,7000,254000,694280,
-2268,-3352,16132,114,47,-3,-10000,7000,254000,694282,
-2388,-3364,16016,109,44,-2,-10000,7000,254000,694284,
-2232,-3320,15880,34,-58,41,-10000,7000,254000,694297,
-2216,-3268,16056,37,-49,44,-10000,7000,254000,694299,
-2248,-3392,16020,31,-58,75,-10000,7000,254000,694302,
-2220,-3384,15924,36,-58,101,-10000,7000,254000,694304,
-2196,-3384,16088,47,-53,149,-10000,7000,254000,694316,
-2232,-3360,15996,51,-45,127,-10000,7000,254000,694319,
-2136,-3404,16088,35,-55,122,-10000,7000,254000,694321,
-2124,-3352,16076,33,-97,21,-10000,7000,254000,694334,
-2172,-3304,15980,29,-101,12,-10000,7000,254000,694336,
-2096,-3264,15988,22,-98,12,-10000,7000,254000,694338,
-2124,-3228,16116,-10,-211,-1,-10000,7000,254000,694351,
-2192,-3228,16120,-6,-205,-2,-10000,7000,254000,694353,
-2132,-3224,16092,-42,-223,-11,-10000,7000,254000,694355,
-1956,-3220,16084,-62,-224,1,-10000,7000,254000,694368,
-1956,-3292,16132,-36,-154,-3,-10000,7000,254000,694370,
-1920,-3324,16148,-44,-130,-11,-10000,7000,254000,694373,
-1764,-3460,16152,-27,149,33,-10000,7000,254000,694385,
-1856,-3448,16000,-39,190,37,-10000,7000,254000,694388,
-1764,-3372,16036,-36,214,29,-10000,7000,254000,694390,
-2184,-3436,16148,-34,219,30,-10000,7000,254000,694402,
-2208,-3568,16096,-38,184,8,-10000,7000,254000,694405,
-2292,-3380,16064,-50,131,11,-10000,7000,254000,694407,
-2336,-3308,16172,-67,-146,-47,-10000,7000,254000,694420,
-2324,-3352,16028,-88,-133,-65,-10000,7000,254000,694422,
-2184,-3408,16120,-95,-172,-42,-10000,7000,254000,694424,
-2072,-3272,16252,-185,-185,-87,-10000,7000,254000,694437,
-2056,-3392,16152,-205,-176,-83,-10000,7000,254000,694439,
-1992,-3264,16136,-198,-138,-74,-10000,7000,254000,694442,
-1968,-3312,16128,-195,-34,-35,-10000,7000,254000,694454,
-1932,-3316,16136,-164,-22,-57,-10000,7000,254000,694456,
-1940,-3304,16296,-164,4,-61,-10000,7000,254000,694459,
-2024,-3424,16344,-135,11,-105,-10000,7000,254000,694471,
-2112,-3396,16456,-130,-12,-106,-10000,7000,254000,694474,
-2172,-3428,16384,-131,-38,-102,-10000,7000,254000,694476,
-2252,-3524,16516,-93,-95,-85,-10000,7000,254000,694489,
-2220,-3492,16480,-67,-87,-70,-10000,7000,254000,694491,
-2220,-3468,16548,-68,-88,-88,-10000,7000,254000,694493,
-2252,-3404,16336,-85,2,-12,-10000,7000,254000,694506,
-2120,-3436,16320,-69,19,-13,-10000,7000,254000,694508,
-2212,-3428,16508,-58,68,7,-10000,7000,254000,694510,
-2004,-3344,16452,-46,82,28,-10000,7000,254000,694513,
-2076,-3380,16344,-31,109,84,-10000,7000,254000,694525,
-2128,-3444,16524,-31,82,96,-10000,7000,254000,694528,
-2156,-3424,16660,-17,73,91,-10000,7000,254000,694530,
-2208,-3532,16592,38,-18,-18,-10000,7000,254000,694542,
-2228,-3536,16524,48,-59,-31,-10000,7000,254000,694545,
-2244,-3472,16568,34,-39,-24,-10000,7000,254000,694547,
-2048,-3508,16504,57,-39,-127,-10000,7000,254000,694560,
-2028,-3536,16516,71,-36,-133,-10000,7000,254000,694562,
-2032,-3476,16548,78,-21,-144,-10000,7000,254000,694564,
-2228,-3364,16560,82,17,-108,-10000,7000,254000,694577,
-2208,-3308,16676,110,11,-100,-10000,7000,254000,694579,
-2168,-3344,16492,95,67,-115,-10000,7000,254000,694582,
-2140,-3516,16596,150,74,-91,-10000,7000,254000,694594,
-2180,-3432,16580,183,84,-96,-10000,7000,254000,694596,
-2104,-3464,16520,180,98,-84,-10000,7000,254000,694599,
-2224,-3476,16276,206,144,37,-10000,7000,254000,694611,
-2172,-3516,16188,226,135,52,-10000,7000,254000,694614,
-2268,-3504,16288,208,123,62,-10000,7000,254000,694616,
-2428,-3456,16484,217,-15,29,-10000,7000,254000,694628,
-2400,-3504,16444,220,-56,-10,-10000,7000,254000,694631,
-2596,-3536,16364,185,-140,0,-10000,7000,254000,694633,
-2252,-3548,16320,120,-318,-41,-10000,7000,254000,694646,
-2212,-3496,16328,123,-310,-61,-10000,7000,254000,694648,
-2256,-3408,16284,136,-286,-62,-10000,7000,254000,694650,
-2164,-3488,16272,134,-192,-84,-10000,7000,254000,694663,
-1992,-3556,16280,152,-135,-75,-10000,7000,254000,694665,
-2028,-3540,16460,155,-90,-63,-10000,7000,254000,694668,
-2028,-3512,16416,225,157,47,-10000,7000,254000,694680,
-2108,-3504,16348,258,173,45,-10000,7000,254000,694682,
-2100,-3468,16372,245,215,82,-10000,7000,254000,694685,
-2300,-3488,16304,307,279,127,-10000,7000,254000,694697,
-2240,-3456,16048,281,254,148,-10000,7000,254000,694700,
-2252,-3428,16076,301,233,133,-10000,7000,254000,694702,
-2396,-3392,16304,275,-31,33,-10000,7000,254000,694715,
-2440,-3388,16312,246,-87,40,-10000,7000,254000,694717,
-2348,-3368,16332,227,-137,25,-10000,7000,254000,694719,
-2284,-3428,16168,147,-294,36,-10000,7000,254000,694732,
-2232,-3432,15988,160,-329,18,-10000,7000,254000,694734,
-2060,-3412,16068,134,-299,19,-10000,7000,254000,694736,
-1892,-3424,16024,142,-91,33,-10000,7000,254000,694749,
-1848,-3348,15928,114,-44,24,-10000,7000,254000,694751,
-1832,-3436,15924,146,13,57,-10000,7000,254000,694754,
-1996,-3280,15988,152,224,97,-10000,7000,254000,694766,
-2012,-3356,16036,173,235,108,-10000,7000,254000,694768,
-2060,-3236,16288,168,243,91,-10000,7000,254000,694771,
-2236,-3344,16056,145,170,51,-10000,7000,254000,694783,
-2316,-3312,15900,141,148,56,-10000,7000,254000,694786,
-2176,-3352,15860,129,128,56,-10000,7000,254000,694788,
-2080,-3468,15988,142,-28,-31,-10000,7000,254000,694801,
-2080,-3376,15948,116,-17,-54,-10000,7000,254000,694803,
-2144,-3304,15940,113,-7,-44,-10000,7000,254000,694805,
-2156,-3440,16068,65,44,-31,-10000,7000,254000,694818,
-2148,-3308,15948,82,68,-34,-10000,7000,254000,694820,
-2132,-3328,15996,27,91,-39,-10000,7000,254000,694822,
-2156,-3264,16040,26,85,-58,-10000,7000,254000,694825,
-2148,-3252,16024,-21,92,-34,-10000,7000,254000,694837,
-2220,-3220,16036,-21,91,-37,-10000,7000,254000,694840,
-2100,-3268,16076,-15,95,-22,-10000,7000,254000,694842,
-2144,-3220,16256,-20,147,30,-10000,7000,254000,694854,
-2216,-3332,16256,-11,157,34,-10000,7000,254000,694857,
-2240,-3344,16200,17,143,14,-10000,7000,254000,694859,
-2312,-3312,16120,17,106,31,-10000,7000,254000,694872,
-2264,-3444,16028,11,92,44,-10000,7000,254000,694874,
-2256,-3416,16184,10,67,56,-10000,7000,254000,694876,
-2324,-3336,16172,11,54,67,-10000,7000,254000,694879,
-2232,-3476,16344,-16,-80,78,-10000,7000,254000,694891,
-2364,-3484,16088,-32,-66,78,-10000,7000,254000,694893,
-2288,-3488,16132,-38,-60,99,-10000,7000,254000,694896,
-2176,-3440,16124,-21,0,41,-10000,7000,254000,694908,
-1996,-3468,16384,-36,36,11,-10000,7000,254000,694911,
-2144,-3512,16020,-37,34,-7,-10000,7000,254000,694913,
-2240,-3392,15996,-42,135,43,-10000,7000,254000,694926,
-2116,-3500,16312,-22,122,47,-10000,7000,254000,694928,
-2304,-3504,16136,-42,126,70,-10000,7000,254000,694930,
-2160,-3492,16092,-39,246,86,-10000,7000,254000,694943,
-2116,-3480,16264,-30,268,73,-10000,7000,254000,694945,
-2076,-3316,16244,-25,258,89,-10000,7000,254000,694947,
-2344,-3380,16072,-46,229,121,-10000,7000,254000,694960,
-2360,-3396,16212,-66,247,137,-10000,7000,254000,694962,
-2296,-3464,16060,-91,211,176,-10000,7000,254000,694965,
-2200,-3476,16160,-111,-4,148,-10000,7000,254000,694977,
-2360,-3488,16288,-97,-25,147,-10000,7000,254000,694980,
-2168,-3512,16348,-96,-75,132,-10000,7000,254000,694982,
-2260,-3444,16524,-84,-214,72,-10000,7000,254000,694994,
-2316,-3488,16412,-92,-231,57,-10000,7000,254000,694997,
-2232,-3392,16408,-85,-206,65,-10000,7000,254000,694999,
-1996,-3512,16304,-30,-20,30,-10000,7000,254000,695012,
-1980,-3516,16460,-12,-6,64,-10000,7000,254000,695014,
-1900,-3520,16516,-6,58,86,-10000,7000,254000,695016,
-1900,-3504,16328,22,85,84,-10000,7000,254000,695019,
-2052,-3548,16224,45,224,99,-10000,7000,254000,695031,
-2200,-3548,16620,36,212,118,-10000,7000,254000,695033,
-2160,-3532,16588,64,171,76,-10000,7000,254000,695036,
-2364,-3356,16700,48,-46,42,-10000,7000,254000,695048,
-2404,-3448,16664,43,-83,37,-10000,7000,254000,695051,
-2508,-3436,16596,66,-168,32,-10000,7000,254000,695053,
-2096,-3636,16548,53,-320,70,-10000,7000,254000,695066,
-2076,-3596,16636,45,-289,78,-10000,7000,254000,695068,
-1952,-3700,16500,68,-285,66,-10000,7000,254000,695070,
-1688,-3716,16400,139,-11,81,-10000,7000,254000,695083,
-1740,-3608,16428,161,33,79,-10000,7000,254000,695085,
-1780,-3484,16464,138,100,85,-10000,7000,254000,695087,
-1888,-3420,16396,194,163,13,-10000,7000,254000,695100,
-1968,-3496,16460,283,33,-66,-10000,7000,254000,695156,
-1900,-3520,16300,289,-7,-131,-10000,7000,254000,695169,
-2076,-3608,16316,287,-28,-164,-10000,7000,254000,695171,
-2084,-3644,16444,287,-64,-184,-10000,7000,254000,695174,
-2176,-3452,16388,237,-276,-314,-10000,7000,254000,695186,
-2084,-3468,16520,188,-264,-320,-10000,7000,254000,695188,
-1980,-3464,16320,200,-308,-330,-10000,7000,254000,695191,
-1888,-3376,16500,138,-236,-307,-10000,7000,254000,695203,
-1892,-3348,16516,150,-199,-308,-10000,7000,254000,695206,
-1916,-3420,16540,169,-164,-286,-10000,7000,254000,695208,
-2080,-3464,16436,255,-70,-201,-10000,7000,254000,695220,
-2060,-3596,16320,265,-56,-216,-10000,7000,254000,695223,
-1888,-3460,16388,283,-99,-192,-10000,7000,254000,695225,
-2280,-3472,16560,376,-165,-235,-10000,7000,254000,695238,
-2192,-3636,16448,382,-190,-247,-10000,7000,254000,695240,
-2232,-3572,16464,412,-199,-237,-10000,7000,254000,695242,
-2044,-3500,16332,437,-188,-364,-10000,7000,254000,695255,
-2156,-3572,16452,431,-181,-379,-10000,7000,254000,695257,
-2124,-3456,16692,431,-158,-407,-10000,7000,254000,695259,
-2076,-3280,16452,393,-156,-335,-10000,7000,254000,695272,
-2152,-3280,16428,383,-183,-306,-10000,7000,254000,695274,
-2156,-3152,16476,367,-176,-289,-10000,7000,254000,695277,
-2028,-3392,16076,367,-64,-200,-10000,7000,254000,695289,
-2032,-3528,16164,370,-24,-207,-10000,7000,254000,695292,
-2044,-3536,16132,410,-23,-207,-10000,7000,254000,695294,
-2236,-3620,16324,425,56,-252,-10000,7000,254000,695307,
-2208,-3564,16284,464,58,-235,-10000,7000,254000,695309,
-2328,-3564,16348,457,16,-229,-10000,7000,254000,695311,
-2384,-3328,16256,473,-179,-259,-10000,7000,254000,695324,
-2372,-3344,16328,484,-198,-278,-10000,7000,254000,695326,
-2320,-3352,16252,491,-232,-270,-10000,7000,254000,695328,
-1988,-3196,16344,415,-327,-226,-10000,7000,254000,695341,
-2116,-3216,16240,456,-311,-230,-10000,7000,254000,695343,
-2056,-3156,16204,430,-300,-215,-10000,7000,254000,695346,
-2072,-3312,16340,359,-151,-196,-10000,7000,254000,695358,
-2052,-3312,16208,371,-144,-185,-10000,7000,254000,695360,
-2072,-3372,16116,371,-82,-220,-10000,7000,254000,695363,
-1956,-3496,16256,436,141,-302,-10000,7000,254000,695375,
-2016,-3528,16056,477,171,-280,-10000,7000,254000,695378,
-2112,-3548,16080,481,218,-296,-10000,7000,254000,695380,
-2280,-3364,16072,533,254,-237,-10000,7000,254000,695392,
-2268,-3356,16056,533,262,-257,-10000,7000,254000,695395,
-2244,-3312,15904,529,259,-238,-10000,7000,254000,695397,
-2376,-3148,15792,484,154,-196,-10000,7000,254000,695410,
-2404,-3272,15696,456,141,-178,-10000,7000,254000,695412,
-2460,-3184,15868,428,125,-200,-10000,7000,254000,695414,
-2408,-3132,15508,254,-26,-105,-10000,7000,254000,695427,
-2380,-3132,15640,229,-58,-104,-10000,7000,254000,695429,
-2408,-3120,15624,204,-106,-107,-10000,7000,254000,695432,
-2568,-3324,15628,121,-385,-153,-10000,7000,254000,695444,
-2380,-3280,15712,103,-399,-156,-10000,7000,254000,695446,
-2316,-3300,15856,111,-429,-157,-10000,7000,254000,695449,
-1936,-3308,15628,61,-273,-128,-10000,7000,254000,695461,
-1920,-3224,15624,52,-190,-150,-10000,7000,254000,695464,
-1788,-3268,15612,62,-109,-129,-10000,7000,254000,695466,
-1944,-3188,15632,99,223,-19,-10000,7000,254000,695479,
-2072,-3136,15912,95,236,-12,-10000,7000,254000,695481,
-2152,-3192,15996,101,270,7,-10000,7000,254000,695483,
-2368,-3080,15656,61,152,-30,-10000,7000,254000,695496,
-2444,-3132,15680,34,116,-17,-10000,7000,254000,695498,
-2552,-3188,15872,32,37,-33,-10000,7000,254000,695500,
-2396,-3204,15824,-58,-214,-108,-10000,7000,254000,695513,
-2324,-3176,15596,-94,-241,-113,-10000,7000,254000,695515,
-2320,-3112,15544,-104,-236,-62,-10000,7000,254000,695518,
-2056,-3144,15840,-203,-112,-18,-10000,7000,254000,695530,
-1928,-3268,15744,-235,-48,-19,-10000,7000,254000,695532,
-2016,-3172,15580,-248,0,-31,-10000,7000,254000,695535,
-2088,-3204,15756,-327,201,64,-10000,7000,254000,695547,
-2132,-3212,15760,-288,224,43,-10000,7000,254000,695550,
-2184,-3080,15792,-304,257,66,-10000,7000,254000,695552,
-2220,-3180,15856,-290,55,74,-10000,7000,254000,695565,
-2348,-3080,15804,-277,25,80,-10000,7000,254000,695567,
-2292,-3080,16004,-279,5,25,-10000,7000,254000,695569,
-2316,-3124,15756,-318,-193,-70,-10000,7000,254000,695582,
-2308,-3140,15604,-339,-237,-50,-10000,7000,254000,695584,
-2200,-3200,15688,-330,-253,-80,-10000,7000,254000,695586,
-1932,-3076,15384,-440,-241,-123,-10000,7000,254000,695599,
-2116,-3128,15536,-471,-196,-102,-10000,7000,254000,695601,
-1916,-3180,15376,-489,-182,-107,-10000,7000,254000,695604,
-1888,-3284,15348,-588,97,-65,-10000,7000,254000,695616,
-1948,-3284,15204,-607,157,-44,-10000,7000,254000,695618,
-1888,-3200,15148,-625,212,-73,-10000,7000,254000,695621,
-1924,-3244,15064,-699,500,-17,-10000,7000,253000,695633,
-2080,-3252,14728,-708,519,-47,-10000,7000,253000,695636,
-2120,-3176,14748,-725,548,-15,-10000,7000,253000,695638,
-2128,-3256,14408,-797,638,-9,-10000,7000,253000,695651,
-2156,-3172,14388,-845,630,25,-10000,7000,253000,695653,
-2156,-3224,14324,-888,635,4,-10000,7000,253000,695655,
-2044,-3292,13616,-1060,769,-19,-10000,7000,253000,695668,
-2028,-3276,13548,-1121,783,-39,-10000,7000,253000,695670,
-2024,-3060,13436,-1147,798,-28,-10000,7000,253000,695672,
-2152,-3140,12860,-1434,968,-13,-10000,7000,253000,695685,
-2148,-3192,12424,-1515,1003,-15,-11000,7000,253000,695687,
-2196,-3072,12448,-1584,1015,-24,-11000,7000,253000,695690,
-2416,-3508,11748,-2103,1097,-1,-11000,7000,253000,695702,
-2472,-3444,11780,-2215,1131,-10,-11000,7000,253000,695705,
-2504,-3548,11636,-2302,1145,-8,-11000,7000,253000,695707,
-2588,-3276,11384,-2725,1366,-19,-11000,7000,253000,695720,
-2340,-3332,11404,-2805,1391,54,-11000,7000,253000,695722,
-2516,-3272,11152,-2883,1451,69,-11000,7000,253000,695724,
-2284,-3108,11248,-3284,1885,235,-12000,8000,253000,695737,
-2184,-3100,11208,-3351,1999,253,-12000,8000,253000,695739,
-2184,-3284,11132,-3460,2085,275,-12000,8000,253000,695742,
-2364,-3572,10808,-3967,2495,402,-12000,8000,253000,695754,
-2228,-3616,10696,-4067,2566,410,-12000,8000,253000,695756,
-2520,-3640,10680,-4157,2620,389,-12000,8000,253000,695759,
-2548,-4024,9920,-4640,2813,336,-13000,8000,253000,695771,
-2492,-3988,9988,-4724,2807,314,-13000,8000,253000,695774,
-2716,-4032,9808,-4854,2810,285,-13000,9000,253000,695776,
-2824,-4104,9760,-5339,2624,224,-14000,9000,253000,695789,
-2888,-4196,9704,-5434,2573,211,-14000,9000,253000,695791,
-2956,-4284,9764,-5548,2500,189,-14000,9000,253000,695793,
-3112,-4632,9840,-6259,2037,229,-15000,9000,253000,695806,
-3120,-4632,10124,-6365,1959,228,-15000,9000,253000,695808,
-3172,-4724,9868,-6497,1907,221,-15000,9000,253000,695810,
-2868,-5180,10108,-7052,1962,245,-16000,9000,253000,695823,
-2892,-5240,10088,-7178,2007,283,-16000,9000,253000,695825,
-2760,-5344,9904,-7309,2082,277,-16000,10000,253000,695828,
-2516,-5524,9596,-7895,2660,305,-17000,10000,253000,695840,
-2516,-5552,9596,-8005,2734,305,-17000,10000,253000,695843,
-2516,-5476,9388,-8125,2829,300,-17000,10000,253000,695845,
-2892,-5760,10144,-8636,3071,263,-18000,10000,253000,695857,
-2920,-5724,10100,-8708,3028,280,-18000,10000,253000,695860,
-3228,-5848,10324,-8779,3039,281,-18000,10000,253000,695862,
-3692,-6188,10744,-9354,2584,312,-19000,11000,253000,695875,
-3724,-6232,11104,-9469,2441,318,-19000,11000,253000,695877,
-3696,-6264,11044,-9553,2344,333,-20000,11000,253000,695879,
-3476,-7048,11220,-10073,1809,172,-21000,11000,253000,695892,
-3372,-7188,11108,-10137,1777,147,-21000,11000,253000,695894,
-3188,-7272,11188,-10198,1765,132,-21000,11000,253000,695897,
-2452,-7700,10908,-10513,2236,47,-22000,11000,253000,695909,
-2440,-7596,10732,-10555,2376,66,-22000,11000,253000,695912,
-2464,-7528,10748,-10606,2524,45,-23000,11000,253000,695914,
-2648,-7636,11328,-10785,3200,106,-24000,12000,252000,695927,
-2820,-7812,11496,-10847,3250,101,-24000,12000,252000,695929,
-3004,-7776,11516,-10898,3280,95,-24000,12000,252000,695931,
-3804,-8336,11896,-11447,3004,61,-25000,12000,252000,695944,
-3912,-8604,12108,-11545,2911,48,-26000,12000,252000,695946,
-3992,-8672,12340,-11651,2790,23,-26000,12000,252000,695949,
-4052,-9404,12880,-11861,2371,-183,-27000,12000,252000,695961,
-4032,-9628,12680,-11857,2325,-213,-27000,12000,252000,695964,
-4004,-9484,12816,-11895,2316,-236,-27000,12000,252000,695966,
-3404,-10128,12800,-11862,2639,-415,-29000,13000,252000,695978,
-3348,-10164,12840,-11843,2765,-424,-29000,13000,252000,695981,
-3284,-10412,13108,-11777,3605,-336,-30000,13000,252000,695993,
-3304,-10444,13316,-11734,3765,-291,-30000,13000,252000,695996,
-3380,-10476,13492,-11716,3913,-258,-31000,13000,251000,695998,
-3924,-11136,14412,-11614,4440,-263,-32000,13000,251000,696010,
-4004,-11364,14344,-11650,4483,-220,-32000,13000,251000,696013,
-4136,-11412,14420,-11660,4509,-254,-32000,13000,251000,696015,
-4456,-11804,14716,-11752,4277,-424,-34000,14000,251000,696028,
-4572,-11964,14968,-11740,4180,-485,-34000,14000,251000,696030,
-4768,-11868,15292,-11353,3809,-685,-35000,14000,251000,696043,
-4704,-11700,15272,-11272,3783,-697,-35000,14000,250000,696045,
-4884,-11704,15324,-11212,3736,-669,-35000,14000,250000,696047,
-4440,-11628,15484,-10953,3758,-682,-37000,14000,250000,696060,
-4288,-11724,15568,-10893,3813,-694,-37000,14000,250000,696062,
-4232,-11824,15880,-10835,3871,-753,-37000,14000,250000,696065,
-4612,-12684,16564,-10456,4409,-705,-38000,15000,250000,696077,
-4552,-12992,16540,-10401,4504,-709,-38000,15000,250000,696080,
-5072,-13616,16920,-10046,4834,-614,-39000,15000,249000,696092,
-5148,-13688,17072,-9956,4839,-614,-39000,15000,249000,696095,
-5344,-13536,17412,-9857,4805,-624,-40000,15000,249000,696097,
-5564,-13276,17904,-9327,4309,-773,-41000,15000,249000,696109,
-5856,-13192,17984,-9242,4182,-840,-41000,16000,249000,696112,
-5860,-13144,18028,-9130,4082,-871,-41000,16000,249000,696114,
-6336,-13012,18620,-8508,3194,-796,-42000,16000,248000,696127,
-6264,-13068,18380,-8382,3042,-793,-42000,16000,248000,696129,
-6196,-13092,18700,-8271,2921,-766,-42000,16000,248000,696131,
-6016,-13116,19184,-7532,2517,-720,-43000,16000,248000,696144,
-5836,-13020,19412,-7407,2455,-682,-43000,16000,248000,696146,
-5520,-13208,19936,-6533,2544,-352,-44000,16000,248000,696159,
-5608,-13328,19960,-6361,2532,-265,-44000,16000,248000,696161,
-5564,-13428,19948,-6212,2548,-194,-44000,16000,248000,696164,
-6052,-13416,20716,-5327,2265,33,-44000,16000,248000,696176,
-6212,-13468,20936,-5145,2146,76,-44000,16000,248000,696179,
-6252,-13564,21092,-4987,1995,109,-45000,16000,248000,696181,
-6520,-13552,21328,-3951,1053,145,-45000,16000,248000,696193,
-6508,-13360,21456,-3752,859,143,-45000,16000,248000,696196,
-6336,-13364,21356,-3525,688,131,-45000,16000,248000,696198,
-6052,-13140,21360,-2466,168,254,-45000,16000,248000,696211,
-5996,-13140,21300,-2268,118,305,-45000,16000,248000,696213,
-5792,-13088,21108,-2064,81,387,-45000,16000,248000,696215,
-5428,-13040,21084,-990,136,640,-45000,16000,248000,696228,
-5596,-13100,21368,-776,126,690,-45000,16000,248000,696230,
-5480,-13144,21208,-605,143,703,-45000,16000,248000,696233,
-5604,-13292,21004,372,-78,855,-45000,16000,248000,696245,
-5564,-13284,21096,561,-126,854,-45000,16000,248000,696247,
-5732,-13308,20984,740,-203,846,-45000,16000,248000,696250,
-5600,-13216,20912,1808,-703,805,-45000,16000,248000,696262,
-5676,-13176,20772,1981,-778,821,-45000,16000,248000,696265,
-5552,-13152,20716,2189,-894,846,-44000,16000,248000,696267,
-5508,-13084,20256,3121,-1390,892,-44000,16000,248000,696280,
-5452,-13008,20316,3260,-1452,905,-44000,16000,248000,696282,
-5456,-13000,20164,3460,-1544,927,-44000,16000,248000,696284,
-5480,-13080,19608,4286,-1950,1018,-43000,16000,249000,696297,
-5472,-13076,19408,4461,-2006,1011,-43000,16000,249000,696299,
-5364,-13132,19304,4632,-2029,998,-43000,16000,249000,696302,
-5020,-13144,18936,5457,-2081,980,-43000,16000,249000,696314,
-4928,-13160,18636,5627,-2038,983,-42000,16000,249000,696317,
-5136,-13040,18144,6322,-1998,938,-42000,16000,249000,696329,
-5140,-12860,18008,6447,-2037,966,-42000,16000,249000,696332,
-5176,-12932,17896,6523,-2047,950,-41000,16000,249000,696334,
-5588,-12764,17940,7130,-2351,949,-41000,16000,249000,696347,
-5532,-12672,17800,7196,-2425,913,-40000,16000,249000,696349,
-5660,-12868,17988,7297,-2519,910,-40000,16000,250000,696351,
-5764,-12712,17952,7888,-2974,827,-39000,16000,250000,696364,
-5684,-12604,17720,8011,-3055,807,-39000,16000,250000,696366,
-5680,-12592,17880,8116,-3114,804,-39000,16000,250000,696368,
-5340,-12420,17288,8742,-3206,867,-38000,15000,250000,696381,
-5200,-12372,17216,8827,-3163,915,-38000,15000,250000,696383,
-5264,-12404,16972,8953,-3107,929,-38000,15000,250000,696386,
-5000,-12160,16716,9508,-2785,1108,-37000,15000,251000,696398,
-5072,-11980,16804,9607,-2746,1121,-37000,15000,251000,696401,
-5000,-11912,16412,10078,-2559,1217,-36000,15000,251000,696413,
-5108,-11892,16392,10150,-2583,1221,-35000,15000,251000,696416,
-5220,-11952,16060,10205,-2574,1244,-35000,15000,251000,696418,
-5472,-11672,16496,10517,-3012,1276,-34000,15000,251000,696431,
-5484,-11548,16524,10548,-3119,1259,-34000,15000,251000,696433,
-5620,-11580,16312,10591,-3262,1245,-34000,15000,251000,696435,
-5484,-11448,16296,10777,-4022,1088,-33000,14000,252000,696448,
-5412,-11600,16392,10856,-4103,1062,-32000,14000,252000,696450,
-4900,-11344,15720,11100,-4402,1041,-31000,14000,252000,696463,
-4772,-11204,15504,11134,-4398,1041,-31000,14000,252000,696465,
-4744,-11176,15400,11206,-4364,1057,-31000,14000,252000,696467,
-4388,-10968,15168,11470,-4018,1140,-30000,14000,252000,696480,
-4356,-10828,15068,11514,-3956,1146,-29000,14000,252000,696482,
-4472,-10704,15108,11557,-3899,1130,-29000,14000,253000,696485,
-4476,-10212,14936,11670,-3833,1135,-28000,13000,253000,696497,
-4600,-10272,14868,11660,-3830,1144,-28000,13000,253000,696500,
-4616,-10016,14804,11607,-4120,1031,-27000,13000,253000,696512,
-4552,-10048,14856,11605,-4193,1030,-27000,13000,253000,696515,
-4456,-10056,14760,11602,-4266,977,-26000,13000,253000,696517,
-4380,-9796,14680,11596,-4548,784,-25000,12000,253000,696530,
-4376,-9664,14552,11610,-4591,755,-25000,12000,254000,696532,
-4436,-9616,14804,11619,-4633,731,-25000,12000,254000,696534,
-4044,-9304,14632,11648,-4479,754,-24000,12000,254000,696547,
-3996,-9240,14472,11648,-4418,777,-23000,12000,254000,696549,
-3852,-9132,14292,11630,-4340,788,-23000,12000,254000,696551,
-3496,-8940,14308,11643,-3598,811,-22000,12000,254000,696564,
-3552,-8924,14100,11636,-3422,834,-22000,11000,254000,696566,
-3236,-8708,13876,11699,-2525,898,-21000,11000,254000,696579,
-3296,-8692,13888,11693,-2370,892,-21000,11000,254000,696581,
-3252,-8516,13776,11706,-2241,928,-20000,11000,254000,696583,
-3480,-8104,13320,11664,-1833,980,-19000,11000,254000,696596,
-3560,-8000,13252,11642,-1781,963,-19000,11000,255000,696598,
-3536,-7876,13060,11631,-1731,972,-19000,11000,255000,696601,
-3772,-7320,12600,11459,-1681,923,-18000,11000,255000,696613,
-3768,-7200,12512,11402,-1722,896,-18000,11000,255000,696616,
-3748,-7168,12500,11356,-1758,889,-17000,11000,255000,696618,
-3632,-6796,11844,10879,-1943,810,-16000,11000,255000,696631,
-3520,-6700,11856,10792,-1987,836,-16000,11000,255000,696633,
-3512,-6628,11984,10743,-2052,822,-16000,11000,255000,696635,
-3316,-6164,11300,10261,-2256,768,-15000,11000,255000,696648,
-3184,-6100,11148,10147,-2324,771,-15000,11000,255000,696650,
-2896,-5612,10616,9686,-2481,712,-14000,10000,255000,696663,
-2800,-5404,10756,9595,-2523,678,-14000,10000,255000,696665,
-2888,-5364,10772,9509,-2511,657,-14000,10000,255000,696667,
-2620,-5156,10096,8995,-2466,551,-13000,10000,255000,696680,
-2620,-5028,10196,8876,-2442,540,-13000,10000,255000,696682,
-2624,-4968,10144,8770,-2436,534,-13000,10000,255000,696685,
-2292,-4612,9816,8122,-2182,497,-12000,10000,255000,696697,
-2244,-4480,9780,8020,-2108,494,-12000,10000,255000,696699,
-2144,-4328,9520,7871,-2079,480,-12000,10000,255000,696702,
-2036,-4064,9160,7292,-1811,411,-11000,10000,255000,696714,
-1996,-4012,9188,7177,-1772,387,-11000,10000,255000,696717,
-2012,-3984,9136,7077,-1726,364,-11000,10000,255000,696719,
-2196,-3600,9220,6379,-1618,162,-10000,9000,256000,696732,
-2224,-3640,9188,6250,-1622,125,-10000,9000,256000,696734,
-2072,-3616,9200,6156,-1598,86,-10000,9000,256000,696736,
-2096,-3216,9348,5567,-1431,-186,-10000,9000,256000,696749,
-2116,-3120,9292,5435,-1406,-212,-9000,9000,256000,696751,
-2136,-3036,9352,5315,-1379,-237,-9000,9000,256000,696754,
-1964,-2604,9552,4679,-1213,-295,-9000,9000,256000,696766,
-1960,-2436,9792,4536,-1179,-301,-9000,9000,256000,696768,
-2096,-2380,9688,4410,-1146,-313,-9000,9000,256000,696771,
-2160,-2084,9912,3720,-1150,-236,-8000,9000,256000,696783,
-2136,-2064,10000,3618,-1203,-225,-8000,9000,256000,696785,
-2172,-2016,10008,3513,-1265,-226,-8000,9000,256000,696788,
-2416,-2048,10384,2960,-1593,-299,-8000,9000,255000,696800,
-2416,-2076,10508,2857,-1657,-319,-8000,9000,255000,696803,
-2448,-2108,10408,2748,-1709,-353,-8000,9000,255000,696805,
-2024,-2268,10500,2210,-1801,-453,-8000,9000,255000,696818,
-1948,-2256,10452,2126,-1754,-497,-8000,9000,255000,696820,
-1892,-2208,10848,2018,-1688,-522,-8000,8000,255000,696822,
-1652,-2120,11056,1620,-1102,-542,-8000,8000,255000,696835,
-1604,-2084,11064,1531,-988,-520,-8000,8000,255000,696837,
-1580,-2008,11096,1470,-885,-481,-8000,8000,255000,696840,
-1860,-1792,11708,1016,-481,-359,-7000,8000,255000,696852,
-1864,-1828,11568,970,-416,-325,-7000,8000,255000,696854,
-1864,-1724,11844,873,-442,-338,-7000,8000,255000,696857,
-2412,-2012,12460,415,-579,-338,-7000,8000,255000,696869,
-2412,-1956,12628,324,-646,-357,-7000,8000,255000,696872,
-2512,-2148,12616,241,-705,-402,-7000,8000,255000,696874,
-2156,-2108,12996,-265,-948,-712,-7000,8000,255000,696886,
-2144,-2044,13036,-318,-949,-743,-7000,8000,255000,696889,
-1948,-2032,13148,-362,-917,-735,-7000,8000,255000,696891,
-1664,-1824,13604,-496,-635,-655,-8000,8000,255000,696904,
-1704,-1824,13696,-540,-586,-636,-8000,8000,255000,696906,
-1780,-1844,13652,-587,-538,-622,-8000,8000,255000,696908,
-2276,-1820,14244,-849,-514,-612,-8000,8000,255000,696921,
-2228,-1936,14252,-911,-533,-642,-8000,8000,255000,696923,
-2248,-2040,14276,-954,-581,-661,-8000,8000,255000,696926,
-2420,-2328,14708,-1127,-751,-768,-8000,8000,255000,696938,
-2252,-2180,14792,-1168,-751,-789,-8000,8000,255000,696940,
-2276,-2208,14964,-1181,-749,-794,-8000,8000,255000,696943,
-2172,-2348,15228,-1218,-605,-769,-8000,8000,255000,696955,
-2136,-2284,15380,-1215,-543,-756,-8000,8000,255000,696958,
-2032,-2300,15416,-1217,-485,-727,-8000,8000,255000,696960,
-2208,-2340,15836,-1250,6,-712,-8000,8000,255000,696973,
-2144,-2392,15924,-1240,85,-680,-8000,8000,255000,696975,
-2148,-2396,15816,-1279,205,-663,-8000,8000,255000,696977,
-2224,-2680,15980,-1272,667,-552,-8000,8000,255000,696990,
-2212,-2664,15868,-1248,761,-575,-8000,8000,255000,696992,
-2220,-2768,16036,-1232,809,-581,-8000,8000,255000,696995,
-2752,-2668,16404,-1213,825,-642,-9000,8000,255000,697007,
-2748,-2680,16348,-1237,754,-680,-9000,8000,255000,697009,
-2812,-2688,16572,-1215,702,-675,-9000,8000,255000,697012,
-3268,-2672,16928,-1280,213,-761,-9000,8000,255000,697024,
-3296,-2732,16832,-1313,112,-743,-9000,8000,255000,697027,
-3244,-2784,16896,-1353,17,-766,-9000,8000,255000,697029,
-3028,-2756,17084,-1347,-350,-736,-9000,8000,254000,697041,
-3036,-2876,17052,-1305,-360,-702,-9000,8000,254000,697044,
-3040,-2984,17148,-1292,-398,-637,-9000,8000,254000,697046,
-2784,-3124,17128,-1125,-348,-404,-9000,8000,254000,697059,
-2920,-2980,16996,-1099,-302,-372,-9000,8000,254000,697061,
-2908,-3008,17020,-1086,-234,-357,-9000,8000,254000,697063,
-3016,-3016,17164,-987,-90,-262,-9000,8000,254000,697076,
-2984,-3088,17160,-979,-52,-263,-9000,8000,254000,697078,
-2980,-3128,17092,-957,-37,-244,-9000,8000,254000,697081,
-3128,-2956,17340,-852,-104,-175,-9000,8000,254000,697093,
-3080,-3052,17352,-822,-122,-136,-9000,8000,254000,697095,
-3136,-3084,17256,-811,-169,-117,-9000,8000,254000,697098,
-2880,-2960,17060,-760,-201,14,-9000,8000,254000,697110,
-2728,-3152,17160,-752,-191,29,-9000,8000,254000,697113,
-2812,-3184,16924,-738,-144,82,-9000,8000,254000,697115,
-2604,-3176,16748,-642,42,61,-10000,8000,254000,697128,
-2624,-3204,16692,-644,39,82,-10000,8000,254000,697130,
-2768,-3132,16900,-584,30,58,-10000,8000,254000,697132,
-3100,-2924,17076,-600,-285,6,-10000,8000,254000,697145,
-3172,-2900,17216,-624,-354,-12,-10000,8000,254000,697147,
-2976,-3076,17136,-620,-441,-8,-10000,8000,254000,697149,
-2772,-3172,17172,-655,-735,-51,-10000,8000,254000,697162,
-2680,-3324,17272,-614,-741,-36,-10000,8000,254000,697164,
-2580,-3292,17172,-604,-690,-45,-10000,8000,254000,697167,
-2248,-3280,17036,-453,-330,-42,-10000,8000,254000,697179,
-2208,-3312,16920,-435,-259,-7,-10000,8000,254000,697181,
-2252,-3260,16880,-390,-159,11,-10000,8000,254000,697184,
-2332,-3196,16600,-209,228,194,-10000,8000,254000,697196,
-2356,-3276,16584,-197,252,224,-10000,8000,254000,697198,
-2356,-3200,16648,-162,258,248,-10000,8000,254000,697201,
-2724,-3156,17016,-103,126,217,-10000,8000,254000,697214,
-2800,-3156,16892,-102,81,215,-10000,8000,254000,697216,
-2776,-3272,17028,-127,-27,226,-10000,8000,254000,697218,
-2720,-3280,17044,-137,-498,170,-10000,8000,254000,697231,
-2680,-3380,17116,-166,-559,184,-10000,8000,254000,697233,
-2660,-3400,16956,-178,-601,173,-10000,8000,254000,697235,
-2200,-3376,16592,-142,-639,202,-10000,8000,255000,697248,
-2276,-3388,16632,-138,-582,221,-10000,8000,255000,697250,
-2200,-3344,16520,-101,-567,262,-10000,8000,255000,697253,
-1964,-3352,16516,35,-210,331,-10000,8000,255000,697265,
-1988,-3336,16648,31,-197,322,-10000,8000,255000,697267,
-2036,-3296,16556,48,-133,341,-10000,8000,255000,697270,
-2456,-3200,16404,9,-219,350,-10000,7000,255000,697282,
-2432,-3272,16416,-15,-295,350,-10000,7000,255000,697285,
-2500,-3300,16628,0,-341,348,-10000,7000,255000,697287,
-2456,-3372,16364,-32,-718,283,-10000,7000,255000,697299,
-2356,-3308,16392,-75,-759,276,-10000,7000,255000,697302,
-2380,-3372,16536,-51,-794,285,-10000,7000,255000,697304,
-2024,-3168,16288,-28,-716,303,-10000,7000,255000,697317,
-1836,-3200,16444,-33,-634,279,-10000,7000,255000,697319,
-1828,-3136,16244,-12,-560,301,-10000,7000,255000,697321,
-1788,-3216,16460,70,-138,334,-10000,7000,255000,697334,
-1840,-3124,16444,72,-106,337,-10000,7000,255000,697336,
-1764,-3132,16532,70,-58,352,-10000,7000,255000,697338,
-2096,-3224,16484,113,-52,338,-10000,7000,255000,697351,
-2056,-3192,16612,119,-80,299,-10000,7000,255000,697353,
-1948,-3192,16584,111,-56,269,-10000,7000,255000,697355,
-1912,-3032,16176,132,-40,203,-10000,7000,255000,697368,
-1964,-3112,16404,153,-56,231,-10000,7000,255000,697370,
-1876,-3080,16420,141,-25,232,-10000,7000,255000,697373,
-1888,-3292,16348,160,33,162,-10000,7000,255000,697385,
-1808,-3264,16264,157,30,151,-10000,7000,255000,697388,
-1836,-3292,16160,137,24,165,-10000,7000,255000,697390,
-1804,-3320,16144,144,26,107,-10000,7000,255000,697402,
-1752,-3356,16020,156,14,58,-10000,7000,255000,697405,
-1836,-3312,16096,136,2,58,-10000,7000,255000,697407,
-1912,-3276,16076,172,-17,33,-10000,7000,255000,697410,
-2056,-3172,16096,82,-137,-10,-10000,7000,255000,697422,
-2008,-3136,16348,71,-158,-55,-10000,7000,255000,697424,
-2084,-3208,16288,34,-164,0,-10000,7000,255000,697427,
-1984,-3212,16396,27,-259,-115,-10000,7000,255000,697439,
-2172,-3260,16200,-2,-271,-100,-10000,7000,255000,697442,
-2072,-3272,16184,9,-224,-105,-10000,7000,255000,697444,
-1976,-3352,16060,0,-127,-74,-10000,7000,255000,697456,
-1956,-3348,16116,-5,-84,-73,-10000,7000,255000,697459,
-1988,-3332,16104,9,-32,-61,-10000,7000,255000,697461,
-2168,-3316,16188,32,62,31,-10000,7000,255000,697474,
-2168,-3316,16128,48,64,44,-10000,7000,255000,697476,
-2264,-3344,16080,37,43,20,-10000,7000,255000,697478,
