Ax,Ay,Az,Gx,Gy,Gz,Roll,Pitch,Yaw,Timestamp,Target
3508,-3112,15828,-671,-30,-340,-17000,-11000,215000,192217,
3668,-3084,15856,-601,53,-346,-17000,-11000,215000,192230,
3608,-3008,15888,-654,6,-330,-17000,-11000,215000,192232,
3724,-3100,15828,-575,99,-333,-17000,-11000,215000,192234,
3756,-3204,15828,-632,127,-335,-17000,-11000,215000,192246,
3636,-3132,15904,-554,188,-334,-17000,-11000,215000,192249,
3592,-3148,15780,-617,106,-323,-17000,-11000,215000,192251,
3604,-3176,15864,-513,193,-322,-17000,-11000,215000,192264,
3512,-3172,15744,-563,119,-349,-17000,-11000,215000,192266,
3456,-3068,15748,-510,142,-308,-17000,-11000,215000,192268,
3512,-3136,15568,-491,6,-270,-17000,-11000,215000,192281,
3452,-3112,15488,-441,30,-289,-17000,-11000,215000,192283,
3468,-3120,15508,-482,-8,-268,-17000,-11000,215000,192285,
3560,-2940,15500,-406,-38,-287,-17000,-11000,215000,192298,
3532,-3048,15436,-441,-87,-275,-17000,-11000,215000,192300,
3584,-3024,15544,-404,-66,-269,-17000,-11000,215000,192303,
3764,-2960,15480,-504,-33,-299,-17000,-11000,215000,192315,
3776,-3016,15584,-471,21,-317,-17000,-11000,215000,192317,
3816,-2972,15528,-546,-25,-314,-17000,-11000,215000,192320,
3800,-2960,15488,-567,169,-347,-17000,-11000,215000,192332,
3776,-2964,15564,-589,138,-339,-17000,-11000,215000,192335,
3796,-2948,15540,-563,234,-341,-17000,-11000,215000,192337,
3652,-3084,15540,-623,245,-328,-17000,-11000,215000,192349,
3644,-3088,15396,-565,289,-330,-17000,-11000,215000,192352,
3628,-3132,15484,-610,207,-325,-17000,-11000,215000,192354,
3484,-3040,15436,-488,233,-295,-17000,-11000,215000,192367,
3476,-3128,15492,-517,153,-280,-17000,-11000,214000,192369,
3456,-3228,15512,-458,179,-265,-17000,-11000,214000,192371,
3448,-3096,15676,-423,74,-242,-17000,-11000,214000,192384,
3460,-3096,15444,-445,68,-240,-17000,-11000,214000,192386,
3572,-3156,15580,-387,53,-250,-17000,-11000,214000,192389,
3576,-3136,15552,-409,37,-238,-17000,-11000,214000,192401,
3528,-3144,15512,-434,-52,-233,-17000,-11000,214000,192404,
3632,-3168,15480,-408,32,-227,-17000,-11000,214000,192406,
3688,-3136,15560,-407,68,-218,-17000,-11000,214000,192418,
3680,-3056,15512,-394,115,-238,-17000,-11000,214000,192421,
3712,-3168,15468,-408,66,-176,-17000,-11000,214000,192423,
3540,-3092,15644,-378,157,-236,-17000,-11000,214000,192436,
3636,-3084,15464,-409,111,-243,-17000,-11000,214000,192438,
3536,-3104,15488,-378,167,-209,-17000,-11000,214000,192440,
3592,-3024,15552,-403,67,-209,-17000,-11000,214000,192453,
3568,-2940,15584,-375,107,-170,-17000,-11000,214000,192455,
3504,-2968,15508,-423,77,-182,-17000,-11000,214000,192457,
3672,-3108,15364,-365,56,-197,-17000,-11000,214000,192470,
3568,-3116,15532,-436,-20,-170,-17000,-11000,214000,192472,
3616,-2980,15464,-377,47,-192,-17000,-11000,214000,192475,
3688,-3024,15440,-425,14,-173,-17000,-11000,214000,192487,
3612,-3088,15436,-378,56,-163,-17000,-11000,214000,192490,
3652,-3040,15352,-426,7,-161,-17000,-12000,214000,192492,
3704,-3060,15412,-411,36,-148,-17000,-12000,214000,192504,
3716,-3036,15388,-441,59,-162,-17000,-12000,214000,192507,
3768,-3016,15364,-441,39,-138,-17000,-12000,214000,192509,
3712,-3012,15420,-481,134,-186,-17000,-12000,214000,192521,
3592,-3024,15384,-539,73,-147,-17000,-12000,214000,192524,
3664,-3076,15380,-469,129,-193,-17000,-12000,214000,192526,
3680,-3012,15440,-602,-12,-206,-17000,-12000,214000,192539,
3704,-3064,15368,-532,45,-197,-17000,-12000,214000,192541,
3708,-2968,15388,-578,6,-199,-17000,-12000,214000,192543,
3772,-3076,15452,-518,86,-219,-17000,-12000,214000,192556,
3696,-3120,15528,-578,39,-218,-17000,-12000,214000,192558,
3628,-3028,15492,-544,69,-248,-17000,-12000,214000,192560,
3656,-3120,15484,-555,57,-218,-17000,-12000,214000,192573,
3724,-2984,15272,-544,-8,-209,-17000,-12000,214000,192575,
3680,-2924,15440,-564,66,-198,-17000,-12000,214000,192578,
3836,-3052,15436,-574,58,-214,-17000,-12000,214000,192590,
3780,-3016,15452,-609,82,-218,-17000,-12000,214000,192592,
3708,-3032,15536,-575,84,-225,-17000,-12000,214000,192595,
3644,-3044,15472,-644,134,-229,-17000,-12000,214000,192607,
3696,-3188,15540,-594,137,-243,-17000,-12000,214000,192610,
3748,-3116,15420,-662,86,-229,-17000,-12000,214000,192612,
3588,-3040,15424,-608,113,-237,-17000,-12000,214000,192625,
3544,-3044,15380,-639,46,-243,-17000,-12000,214000,192627,
3664,-3124,15600,-559,55,-228,-17000,-12000,214000,192629,
3684,-3092,15428,-564,99,-197,-17000,-12000,214000,192642,
3644,-3052,15476,-630,41,-184,-17000,-12000,214000,192644,
3664,-3132,15476,-576,103,-193,-17000,-12000,214000,192646,
3748,-3148,15556,-605,94,-224,-17000,-12000,214000,192659,
3668,-3048,15556,-610,151,-243,-17000,-12000,214000,192661,
3656,-3096,15612,-612,128,-229,-17000,-12000,214000,192664,
3688,-3104,15424,-622,108,-214,-17000,-12000,214000,192676,
3596,-3124,15464,-595,86,-244,-17000,-12000,214000,192679,
3688,-3152,15416,-549,99,-226,-17000,-12000,214000,192681,
3712,-3272,15564,-537,38,-175,-17000,-12000,214000,192693,
3740,-3152,15628,-472,113,-222,-17000,-12000,214000,192696,
3804,-3124,15700,-526,78,-214,-17000,-12000,214000,192698,
3772,-3108,15572,-479,106,-243,-17000,-12000,214000,192711,
3656,-3200,15548,-460,72,-219,-17000,-12000,214000,192713,
3656,-3092,15480,-434,120,-236,-17000,-12000,214000,192715,
3664,-3076,15536,-491,70,-192,-17000,-12000,214000,192728,
3824,-3236,15652,-444,136,-218,-17000,-12000,214000,192730,
3908,-3148,15452,-512,112,-225,-17000,-12000,214000,192732,
3732,-3008,15652,-486,287,-308,-17000,-12000,214000,192745,
3716,-3072,15696,-536,227,-290,-17000,-12000,214000,192747,
3664,-3052,15696,-490,278,-304,-17000,-12000,214000,192750,
3588,-3100,15620,-505,192,-265,-17000,-12000,214000,192762,
3528,-3188,15408,-444,192,-225,-17000,-12000,214000,192765,
3620,-3144,15524,-494,157,-250,-17000,-12000,214000,192767,
3596,-3140,15496,-418,167,-218,-17000,-12000,213000,192779,
3720,-3056,15508,-374,179,-208,-17000,-12000,213000,192782,
3608,-3112,15592,-379,223,-195,-17000,-12000,213000,192784,
3584,-3120,15468,-331,165,-149,-17000,-12000,213000,192797,
3644,-3100,15372,-388,126,-186,-17000,-12000,213000,192799,
3700,-3076,15452,-339,156,-168,-17000,-12000,213000,192801,
3656,-3180,15528,-409,89,-169,-17000,-12000,213000,192814,
3672,-3048,15680,-370,175,-199,-17000,-12000,213000,192816,
3780,-3100,15440,-426,94,-201,-17000,-12000,213000,192818,
3756,-3068,15540,-415,187,-255,-17000,-12000,213000,192831,
3660,-3036,15404,-477,115,-226,-17000,-12000,213000,192833,
3732,-3112,15372,-446,155,-226,-17000,-12000,213000,192836,
3640,-3208,15472,-465,68,-177,-17000,-12000,213000,192848,
3736,-3168,15348,-418,97,-171,-17000,-12000,213000,192850,
3816,-3148,15400,-477,61,-201,-17000,-12000,213000,192853,
3804,-3192,15372,-387,207,-202,-17000,-12000,213000,192865,
3780,-3188,15544,-461,179,-211,-17000,-12000,213000,192868,
3704,-3088,15368,-379,200,-216,-17000,-12000,213000,192870,
3532,-3092,15484,-406,173,-230,-17000,-12000,213000,192882,
3564,-3172,15460,-397,134,-202,-17000,-12000,213000,192885,
3588,-3132,15320,-380,182,-209,-17000,-12000,213000,192887,
3688,-3100,15404,-384,94,-199,-17000,-12000,213000,192900,
3624,-3144,15472,-393,71,-195,-17000,-12000,213000,192902,
3676,-3084,15472,-347,140,-178,-17000,-12000,213000,192904,
3672,-3092,15272,-432,53,-213,-17000,-12000,213000,192917,
3652,-3056,15312,-378,121,-207,-17000,-12000,213000,192919,
3524,-3100,15332,-462,48,-235,-17000,-12000,213000,192921,
3584,-2968,15436,-512,65,-212,-17000,-12000,213000,192934,
3608,-3104,15368,-453,98,-200,-17000,-12000,213000,192936,
3592,-3076,15476,-531,56,-196,-17000,-12000,213000,192939,
3636,-3064,15328,-457,67,-224,-17000,-12000,213000,192951,
3564,-3088,15304,-512,87,-207,-17000,-12000,213000,192953,
3696,-3104,15220,-468,69,-177,-17000,-12000,213000,192956,
3568,-3144,15120,-424,27,-163,-17000,-12000,213000,192968,
3548,-3056,15344,-456,32,-159,-17000,-12000,213000,192971,
3556,-3164,15288,-447,-6,-156,-17000,-12000,213000,192973,
3576,-3144,15520,-508,26,-164,-17000,-12000,213000,192985,
3596,-2948,15368,-495,-8,-157,-17000,-12000,213000,192988,
3692,-2976,15348,-519,7,-160,-17000,-12000,213000,192990,
3700,-3088,15400,-567,14,-196,-17000,-12000,213000,193002,
3660,-3084,15396,-612,-10,-179,-17000,-12000,213000,193005,
3648,-3048,15452,-581,49,-187,-17000,-12000,213000,193007,
3632,-3092,15388,-644,44,-149,-17000,-12000,213000,193020,
3576,-3080,15312,-604,78,-125,-17000,-12000,213000,193022,
3644,-3056,15276,-658,41,-132,-17000,-12000,213000,193024,
3644,-3172,15456,-642,69,-131,-17000,-12000,213000,193037,
3656,-3084,15532,-598,31,-138,-17000,-12000,213000,193039,
3760,-3212,15428,-639,41,-159,-17000,-12000,213000,193042,
3776,-3124,15464,-593,139,-118,-17000,-12000,213000,193054,
3880,-3232,15528,-636,102,-142,-17000,-12000,213000,193056,
3732,-3216,15468,-577,177,-140,-17000,-12000,213000,193059,
3736,-3152,15568,-592,111,-162,-17000,-12000,213000,193071,
3592,-3216,15468,-611,143,-161,-17000,-12000,213000,193074,
3604,-3224,15476,-562,115,-165,-17000,-12000,213000,193076,
3588,-3312,15608,-560,159,-140,-17000,-12000,213000,193089,
3716,-3216,15660,-576,108,-143,-17000,-12000,213000,193091,
3552,-3180,15592,-563,177,-167,-17000,-12000,213000,193093,
3584,-3084,15352,-554,100,-154,-17000,-12000,213000,193106,
3600,-3100,15332,-527,149,-160,-17000,-12000,213000,193108,
3524,-3064,15312,-585,44,-155,-17000,-12000,213000,193111,
3456,-3044,15488,-521,56,-108,-17000,-12000,213000,193123,
3612,-3024,15524,-600,-23,-105,-17000,-12000,213000,193125,
3620,-2964,15440,-510,56,-64,-17000,-12000,213000,193128,
3620,-3000,15512,-523,28,-65,-17000,-12000,213000,193140,
3664,-3004,15524,-582,6,-40,-17000,-12000,213000,193142,
3636,-3012,15460,-531,4,-62,-17000,-12000,213000,193145,
3776,-3016,15536,-585,65,3,-17000,-12000,213000,193157,
3704,-3040,15580,-565,109,20,-17000,-12000,213000,193159,
3872,-3000,15552,-605,142,10,-17000,-12000,213000,193162,
3840,-3056,15572,-570,217,13,-17000,-12000,213000,193174,
3820,-3000,15608,-587,242,-3,-17000,-12000,213000,193176,
3780,-3016,15660,-562,213,2,-17000,-12000,213000,193179,
3984,-3156,15716,-542,309,2,-17000,-12000,213000,193191,
3992,-3220,15772,-583,267,20,-17000,-12000,213000,193193,
3988,-3124,15632,-503,370,17,-17000,-12000,213000,193196,
4124,-3268,15928,-474,344,-7,-17000,-12000,213000,193208,
3980,-3180,15732,-488,390,-57,-17000,-12000,213000,193210,
3920,-3312,15820,-485,323,-43,-17000,-12000,213000,193213,
4140,-3336,15780,-357,443,-74,-17000,-12000,213000,193225,
4028,-3276,15820,-345,436,-91,-17000,-12000,213000,193228,
4064,-3372,15820,-351,445,-108,-17000,-12000,213000,193230,
3972,-3304,15768,-223,441,-140,-17000,-12000,213000,193242,
3948,-3232,15828,-292,297,-178,-17000,-12000,213000,193245,
3800,-3336,15784,-234,350,-198,-17000,-12000,213000,193247,
3696,-3216,15552,-228,290,-195,-17000,-12000,212000,193260,
3864,-3228,15592,-223,302,-205,-17000,-12000,212000,193262,
3876,-3088,15740,-222,262,-227,-17000,-12000,212000,193264,
3952,-3200,15652,-234,294,-237,-17000,-12000,212000,193277,
3868,-3140,15628,-199,303,-230,-17000,-12000,212000,193279,
3748,-3132,15576,-219,316,-230,-17000,-12000,212000,193282,
3688,-3200,15444,-181,325,-214,-17000,-11000,212000,193294,
3628,-3180,15588,-246,268,-218,-17000,-11000,212000,193296,
3604,-3244,15496,-215,329,-223,-17000,-11000,212000,193299,
3628,-3232,15532,-232,296,-191,-17000,-11000,212000,193311,
3552,-3268,15336,-247,399,-187,-17000,-11000,212000,193314,
3644,-3116,15344,-245,329,-193,-17000,-11000,212000,193316,
3588,-3304,15320,-237,463,-265,-17000,-11000,212000,193329,
3456,-3312,15384,-298,375,-295,-17000,-11000,212000,193331,
3340,-3416,15272,-265,447,-280,-17000,-11000,212000,193333,
3208,-3260,15208,-305,268,-320,-17000,-11000,212000,193346,
3012,-3184,15376,-247,286,-327,-17000,-11000,212000,193348,
3108,-3216,15124,-295,251,-303,-17000,-11000,212000,193350,
2976,-3032,14956,-376,100,-294,-17000,-11000,212000,193363,
2944,-3008,14980,-394,-27,-262,-17000,-11000,212000,193365,
2956,-2908,14944,-389,29,-283,-17000,-11000,212000,193368,
2972,-2820,15004,-507,-114,-179,-17000,-11000,212000,193380,
3004,-2756,14904,-556,-83,-176,-17000,-11000,212000,193383,
2944,-2732,15068,-547,-85,-170,-17000,-11000,212000,193385,
2924,-2592,15184,-734,-44,-46,-17000,-11000,212000,193398,
3096,-2728,14988,-760,18,-45,-17000,-11000,212000,193400,
3080,-2592,15228,-795,33,-20,-17000,-11000,212000,193402,
3132,-2656,15240,-950,114,113,-17000,-11000,212000,193415,
3192,-2696,15344,-941,204,140,-17000,-11000,212000,193417,
3316,-2780,15144,-998,127,159,-17000,-11000,212000,193419,
3324,-2804,15472,-966,314,255,-17000,-11000,212000,193432,
3320,-2812,15324,-1045,259,286,-17000,-11000,212000,193434,
3456,-2920,15436,-999,345,287,-17000,-11000,212000,193437,
3480,-3048,15484,-979,289,370,-17000,-11000,212000,193449,
3476,-3024,15632,-937,317,349,-17000,-11000,212000,193451,
3692,-3036,15704,-971,239,377,-17000,-11000,212000,193454,
3760,-3148,15640,-844,328,406,-17000,-11000,212000,193466,
3804,-3248,15616,-887,302,415,-17000,-11000,212000,193469,
3944,-3180,15708,-817,349,379,-17000,-11000,212000,193471,
4240,-3344,15768,-783,305,341,-17000,-11000,212000,193483,
4040,-3308,15736,-702,353,295,-17000,-11000,212000,193486,
4172,-3352,15812,-744,289,288,-17000,-11000,212000,193488,
4212,-3412,15812,-595,372,169,-17000,-11000,212000,193500,
4228,-3340,15936,-619,297,181,-17000,-11000,212000,193503,
4320,-3300,15816,-535,331,160,-17000,-11000,212000,193505,
4196,-3360,15780,-454,244,15,-17000,-11000,212000,193518,
4276,-3240,15728,-486,167,-20,-17000,-11000,212000,193520,
4244,-3440,15772,-423,203,-38,-17000,-11000,212000,193522,
4160,-3368,15752,-368,122,-183,-17000,-11000,212000,193535,
4284,-3320,15796,-369,115,-215,-17000,-11000,212000,193537,
4112,-3276,15728,-314,110,-239,-17000,-11000,212000,193539,
4008,-3336,15840,-300,70,-301,-17000,-11000,212000,193552,
4040,-3304,15728,-280,134,-366,-17000,-11000,212000,193554,
3984,-3140,15732,-333,74,-361,-17000,-11000,212000,193556,
3960,-3120,15716,-266,195,-412,-17000,-11000,212000,193569,
3916,-3164,15656,-271,155,-422,-17000,-11000,212000,193571,
3940,-3124,15572,-266,216,-452,-17000,-11000,212000,193574,
3556,-3036,15672,-264,244,-439,-17000,-11000,212000,193586,
3592,-3032,15620,-258,325,-473,-17000,-11000,212000,193588,
3636,-3120,15628,-302,257,-465,-17000,-11000,212000,193591,
3360,-3000,15420,-290,288,-436,-17000,-11000,212000,193603,
3312,-3064,15424,-332,214,-460,-17000,-11000,212000,193606,
3248,-3048,15420,-322,299,-475,-17000,-11000,212000,193608,
3280,-2936,15472,-379,208,-446,-17000,-11000,212000,193621,
3244,-2940,15392,-374,325,-453,-17000,-11000,212000,193623,
3280,-2928,15444,-394,264,-439,-17000,-11000,212000,193625,
3244,-3040,15496,-494,216,-376,-17000,-11000,212000,193638,
3208,-2992,15344,-468,338,-416,-17000,-11000,212000,193640,
3224,-3068,15372,-534,221,-368,-17000,-11000,212000,193642,
3280,-3068,15344,-499,324,-342,-17000,-11000,212000,193655,
3140,-3036,15280,-581,267,-339,-17000,-11000,212000,193657,
3204,-3120,15304,-517,348,-315,-17000,-11000,212000,193660,
3196,-3032,15468,-596,285,-285,-17000,-11000,212000,193672,
3324,-3160,15420,-565,367,-261,-17000,-11000,212000,193675,
3268,-3028,15488,-591,317,-252,-17000,-11000,212000,193677,
3204,-3052,15420,-582,284,-218,-17000,-11000,212000,193690,
3256,-3228,15508,-586,239,-181,-17000,-11000,212000,193692,
3280,-3120,15460,-587,303,-218,-17000,-11000,212000,193694,
3348,-3116,15428,-547,235,-140,-17000,-11000,211000,193707,
3348,-3124,15500,-566,166,-134,-17000,-11000,211000,193709,
3276,-3180,15460,-517,200,-159,-17000,-11000,211000,193711,
3560,-3168,15436,-508,149,-114,-17000,-11000,211000,193724,
3444,-3164,15332,-516,145,-116,-17000,-11000,211000,193726,
3392,-3164,15472,-474,123,-92,-17000,-11000,211000,193729,
3452,-3108,15372,-465,146,-98,-17000,-11000,211000,193741,
3504,-3136,15492,-422,64,-84,-17000,-11000,211000,193743,
3468,-3140,15472,-425,111,-95,-17000,-11000,211000,193745,
3536,-3124,15328,-430,34,-93,-17000,-11000,211000,193758,
3592,-3140,15528,-413,87,-103,-17000,-11000,211000,193760,
3624,-3052,15348,-450,-9,-104,-17000,-11000,211000,193762,
3672,-3212,15740,-420,53,-128,-17000,-11000,211000,193775,
3568,-3108,15540,-450,19,-122,-17000,-11000,211000,193777,
3664,-3152,15580,-428,44,-143,-17000,-11000,211000,193779,
3624,-3104,15496,-418,16,-144,-17000,-11000,211000,193792,
3628,-3132,15384,-423,19,-142,-17000,-11000,211000,193794,
3588,-3092,15628,-413,59,-148,-17000,-11000,211000,193797,
3664,-3176,15612,-417,-78,-131,-17000,-11000,211000,193809,
3724,-3140,15392,-391,-28,-151,-17000,-11000,211000,193811,
3672,-3096,15460,-441,-104,-145,-17000,-11000,211000,193814,
3864,-3060,15436,-395,30,-192,-17000,-11000,211000,193826,
3712,-3020,15460,-429,-57,-199,-17000,-11000,211000,193829,
3896,-3036,15528,-376,43,-209,-17000,-11000,211000,193831,
3752,-3036,15596,-418,85,-264,-17000,-11000,211000,193843,
3836,-2984,15456,-480,5,-285,-17000,-11000,211000,193846,
3752,-3028,15512,-423,68,-305,-17000,-11000,211000,193848,
3716,-3160,15492,-504,69,-333,-17000,-11000,211000,193861,
3676,-3184,15732,-415,145,-324,-17000,-11000,211000,193863,
3728,-3096,15728,-448,117,-333,-17000,-11000,211000,193865,
3592,-3140,15544,-348,131,-336,-17000,-11000,211000,193878,
3592,-3172,15712,-354,131,-330,-17000,-11000,211000,193880,
3604,-3232,15564,-325,97,-343,-17000,-11000,211000,193883,
3492,-3100,15704,-228,86,-350,-17000,-11000,211000,193895,
3492,-3124,15796,-215,8,-357,-17000,-11000,211000,193897,
3556,-3096,15716,-176,60,-347,-17000,-11000,211000,193900,
3424,-3152,15628,-133,-75,-363,-17000,-11000,211000,193912,
3456,-3124,15844,-92,-60,-354,-17000,-11000,211000,193914,
3488,-3216,15764,-108,-93,-353,-17000,-11000,211000,193917,
3504,-3116,15788,6,-28,-336,-17000,-11000,211000,193929,
3496,-3180,15728,10,-115,-324,-17000,-11000,211000,193932,
3496,-3176,15848,46,-41,-333,-17000,-11000,211000,193934,
3528,-3140,15724,110,3,-284,-17000,-11000,211000,193946,
3528,-3096,15596,90,46,-267,-17000,-11000,211000,193949,
3488,-3040,15792,121,-32,-310,-17000,-11000,211000,193951,
3428,-3044,15580,135,38,-261,-17000,-11000,211000,193964,
3312,-3092,15624,153,-28,-278,-17000,-11000,211000,193966,
3324,-3012,15620,141,-41,-229,-17000,-11000,211000,193968,
3424,-3004,15784,129,-52,-253,-17000,-11000,211000,193981,
3336,-3028,15476,102,-119,-215,-17000,-11000,211000,193983,
3408,-3032,15608,114,-79,-257,-17000,-11000,211000,193986,
3440,-3100,15632,83,-144,-248,-17000,-11000,211000,193998,
3456,-3072,15792,84,-132,-242,-17000,-11000,211000,194000,
3364,-3040,15640,81,-181,-223,-17000,-11000,211000,194003,
3472,-3096,15740,126,-208,-203,-17000,-11000,211000,194015,
3592,-3120,15728,78,-269,-191,-17000,-11000,211000,194018,
3404,-3192,15760,143,-225,-186,-17000,-11000,211000,194020,
3624,-3204,15988,87,-183,-141,-17000,-11000,211000,194032,
3688,-3212,16080,149,-118,-144,-17000,-11000,211000,194035,
3604,-3196,16008,84,-128,-144,-17000,-11000,211000,194037,
3604,-3352,16248,211,65,-87,-17000,-11000,211000,194050,
3788,-3420,16196,168,45,-77,-17000,-11000,211000,194052,
3588,-3332,16264,253,134,-41,-17000,-11000,211000,194054,
3728,-3428,16576,308,400,59,-17000,-11000,211000,194067,
3588,-3484,16676,335,450,23,-17000,-11000,211000,194069,
3572,-3460,16700,425,467,53,-17000,-11000,211000,194071,
3400,-3632,17112,612,639,158,-16000,-11000,211000,194084,
3364,-3772,17044,700,694,144,-16000,-11000,211000,194086,
3368,-3800,17180,739,713,132,-16000,-11000,211000,194088,
3016,-4028,17824,1158,610,165,-16000,-11000,211000,194101,
2976,-4032,17840,1295,557,175,-16000,-11000,211000,194103,
2872,-4116,18036,1344,480,184,-16000,-11000,211000,194105,
2668,-4276,18620,1980,-58,306,-16000,-11000,211000,194118,
2588,-4260,18708,2112,-83,358,-16000,-11000,211000,194120,
2576,-4300,18756,2164,-195,350,-16000,-11000,211000,194123,
2676,-4484,19452,2813,-494,486,-16000,-11000,211000,194135,
2728,-4600,19464,2893,-613,496,-16000,-11000,211000,194138,
2680,-4556,19572,3104,-578,507,-16000,-11000,211000,194140,
2796,-4764,19712,3908,-727,686,-15000,-11000,211000,194152,
3044,-4816,19908,4124,-653,742,-15000,-11000,211000,194155,
2900,-4880,19968,4229,-686,794,-15000,-11000,211000,194157,
3020,-4860,20320,5261,-565,1047,-15000,-11000,211000,194170,
3160,-4820,20264,5397,-579,1128,-14000,-11000,211000,194172,
3068,-4784,20388,5580,-596,1169,-14000,-11000,211000,194174,
3024,-4760,20460,6603,-489,1422,-14000,-11000,211000,194187,
3080,-4772,20444,6748,-578,1498,-14000,-11000,211000,194189,
3064,-4796,20348,6980,-519,1539,-13000,-11000,211000,194191,
3344,-4392,20412,7819,-586,1792,-13000,-11000,211000,194204,
3136,-4324,20444,7963,-450,1789,-13000,-11000,211000,194206,
3216,-4228,20472,8078,-420,1840,-12000,-11000,211000,194209,
3564,-4016,20528,8642,98,2043,-12000,-11000,212000,194221,
3620,-3984,20492,8730,124,2088,-12000,-11000,212000,194224,
3688,-3920,20576,8854,290,2103,-11000,-11000,212000,194226,
3592,-3676,20128,9380,906,2212,-10000,-11000,212000,194238,
3688,-3668,20136,9524,1096,2253,-10000,-11000,212000,194241,
3832,-3576,20092,9585,1176,2327,-10000,-11000,212000,194243,
3572,-3368,19796,10269,1911,2620,-9000,-11000,212000,194256,
3772,-3336,19748,10338,2027,2690,-9000,-11000,212000,194258,
3612,-3240,19728,10508,2223,2754,-9000,-11000,212000,194260,
3740,-3112,19772,11096,2910,3000,-8000,-10000,213000,194273,
3724,-3152,19992,11261,3160,3039,-8000,-10000,213000,194275,
3604,-3108,19868,11322,3304,3102,-7000,-10000,213000,194278,
3704,-3036,19976,12039,4066,3441,-6000,-10000,213000,194290,
3752,-2960,20152,12102,4145,3489,-6000,-10000,213000,194292,
3760,-3060,20092,12264,4289,3491,-6000,-10000,213000,194295,
3420,-3104,20624,12983,5025,3673,-5000,-9000,213000,194307,
3328,-3252,20620,13214,5117,3698,-5000,-9000,213000,194310,
3372,-3184,20552,13235,5223,3760,-4000,-9000,213000,194312,
3108,-3328,20480,14363,5433,4008,-3000,-8000,214000,194324,
3072,-3332,20324,14577,5434,4046,-3000,-8000,214000,194327,
3044,-3188,20108,14802,5451,4087,-3000,-8000,214000,194329,
2704,-2912,20164,16152,5238,4382,-1000,-8000,214000,194342,
2688,-2788,20180,16399,5174,4405,-1000,-7000,214000,194344,
2624,-2776,20072,16600,5187,4471,-1000,-7000,215000,194346,
2960,-2580,20188,17910,5107,4716,0,-7000,215000,194359,
2976,-2632,20280,18121,5067,4740,0,-7000,215000,194361,
3004,-2548,20224,18386,5122,4789,1000,-7000,215000,194363,
3352,-2240,19440,19668,5254,5063,2000,-6000,216000,194376,
3392,-2176,19260,19878,5371,5061,3000,-6000,216000,194378,
3376,-1976,19296,20108,5422,5171,3000,-6000,216000,194380,
3584,-1484,19356,21125,6000,5361,5000,-6000,216000,194393,
3756,-1384,19356,21234,6127,5383,5000,-5000,217000,194395,
3744,-1344,19364,21465,6353,5423,6000,-5000,217000,194398,
4140,-996,18836,22265,7057,5458,8000,-5000,217000,194410,
4076,-932,18596,22461,7243,5493,8000,-5000,217000,194412,
3928,-676,18352,22558,7352,5540,9000,-5000,217000,194415,
4012,-184,17992,23366,8160,5742,11000,-4000,218000,194427,
4108,-116,17940,23466,8245,5810,11000,-4000,218000,194430,
4264,-48,17648,23617,8371,5835,11000,-4000,218000,194432,
4100,404,17080,24251,8933,5821,14000,-3000,219000,194445,
4228,480,16888,24499,8928,5884,14000,-3000,219000,194447,
4144,580,16648,24530,8989,5856,14000,-3000,219000,194449,
4144,1108,15868,25164,9281,5920,17000,-2000,220000,194461,
4212,1144,15816,25427,9201,5961,17000,-2000,220000,194464,
4240,1344,15560,25525,9247,5922,18000,-2000,221000,194466,
4268,1776,14644,26228,9101,5883,20000,-1000,221000,194479,
4256,1948,14756,26291,9132,5847,20000,-1000,222000,194481,
4328,2100,14756,26511,9078,5816,21000,-1000,222000,194483,
4468,2472,13956,27140,8825,5605,23000,-1000,222000,194496,
4632,2672,13804,27264,8712,5596,24000,-1000,223000,194498,
4664,2756,13340,27390,8638,5551,24000,-1000,223000,194500,
4588,3356,11788,28147,7762,5246,27000,0,224000,194513,
4584,3596,11492,28315,7694,5225,27000,0,224000,194515,
4640,3836,11156,28321,7548,5188,28000,0,224000,194518,
4716,3996,10972,28478,7402,5160,28000,0,224000,194520,
4616,5256,8996,28968,6247,4832,31000,0,225000,194532,
4548,5476,9044,28850,6018,4732,32000,0,225000,194535,
4528,5756,8576,28998,5742,4644,32000,0,225000,194537,
4320,7416,7132,28724,4612,3893,35000,0,226000,194549,
4340,7756,6664,28678,4308,3765,36000,0,226000,194552,
4264,7912,6316,28386,4069,3612,36000,0,226000,194554,
4160,9120,5136,27300,2802,2755,39000,0,226000,194567,
4328,9344,5048,26978,2763,2624,39000,0,226000,194569,
4272,9580,5100,26841,2825,2467,40000,0,226000,194571,
4440,9844,4968,26460,2868,2303,40000,0,226000,194574,
5052,10672,3824,24547,3263,1518,43000,0,227000,194586,
5124,10900,3596,24027,3377,1429,43000,0,227000,194588,
5180,11252,3204,23592,3662,1314,44000,0,227000,194591,
4984,12288,2612,20850,5174,484,46000,0,227000,194603,
4776,12724,1960,20494,5418,334,46000,0,227000,194606,
4692,12776,1568,20020,5764,201,47000,0,227000,194608,
4532,12788,1564,19558,5964,186,47000,0,227000,194610,
4424,13696,-308,17047,6888,419,49000,0,228000,194623,
3928,13708,-968,16508,6807,71,49000,0,228000,194625,
3528,13392,-788,15833,6522,-83,50000,0,228000,194627,
2132,14680,-604,13947,6213,-414,51000,0,228000,194640,
1860,14656,-712,13584,5963,-388,51000,0,229000,194642,
1816,14824,-764,13214,5832,-376,52000,0,229000,194644,
1128,15816,-1692,11138,4211,-966,53000,0,229000,194657,
800,15800,-1660,10675,4021,-1044,53000,0,229000,194659,
688,15732,-1400,10180,3727,-1058,54000,1000,229000,194661,
172,16520,-560,7872,2118,-955,54000,1000,229000,194674,
184,16696,-580,7686,1673,-1037,55000,1000,229000,194676,
3164,15948,-244,7858,1822,-880,55000,1000,229000,194678,
-228,16648,-748,4861,-1336,-2089,56000,1000,229000,194691,
76,16820,-272,4659,-1521,-2113,56000,1000,229000,194693,
356,16672,-608,4331,-1419,-2113,56000,1000,229000,194696,
1856,16056,-1536,2693,-1391,-2105,56000,1000,229000,194708,
2076,16128,-1432,2208,-1240,-2078,56000,1000,229000,194710,
2360,16160,-1684,1848,-1009,-2092,56000,1000,229000,194713,
3196,16268,-2108,15,476,-2022,57000,1000,228000,194725,
2880,16228,-2184,-416,908,-1977,57000,1000,228000,194728,
2920,16084,-2136,-715,1149,-1949,57000,1000,228000,194730,
2844,15644,-2072,-2536,2752,-1731,57000,1000,229000,194742,
2824,15592,-2028,-2803,3032,-1706,57000,1000,229000,194745,
2820,15548,-1952,-3130,3325,-1652,57000,1000,229000,194747,
2700,15164,-1896,-4549,5000,-1373,56000,2000,229000,194760,
2788,15072,-1908,-4847,5243,-1349,56000,2000,229000,194762,
2740,15104,-1660,-5081,5602,-1319,56000,2000,229000,194764,
2252,14680,-1200,-6508,6763,-1345,56000,2000,230000,194777,
2088,14616,-952,-6735,6897,-1401,56000,2000,230000,194779,
1896,14568,-916,-6914,7030,-1443,56000,2000,230000,194782,
1184,14108,-252,-8015,7209,-1624,55000,3000,230000,194794,
1140,14060,-96,-8152,7207,-1677,55000,3000,230000,194797,
1064,14008,180,-8320,7192,-1695,55000,3000,230000,194799,
656,13624,1032,-8959,7105,-2018,54000,4000,231000,194811,
544,13740,1316,-9126,7056,-2069,54000,4000,231000,194814,
432,13580,1292,-9197,7054,-2146,54000,4000,231000,194816,
-236,13480,1944,-9685,6743,-2560,53000,4000,232000,194829,
-316,13288,1936,-9805,6637,-2618,53000,4000,232000,194831,
-432,13340,2196,-9769,6509,-2710,53000,4000,232000,194833,
-1316,12912,2392,-9939,5646,-2902,52000,5000,232000,194845,
-1500,12788,2528,-9901,5469,-2913,52000,5000,232000,194848,
-1612,12736,2856,-9918,5279,-2967,52000,5000,232000,194850,
-1920,12440,3000,-9567,4100,-2963,51000,6000,232000,194862,
-2016,12484,3068,-9559,3836,-2977,51000,6000,232000,194865,
-2184,12408,3088,-9446,3656,-2961,51000,6000,232000,194867,
-2428,12652,2656,-9272,2090,-3038,50000,6000,232000,194880,
-2600,12580,2604,-9153,1831,-3015,50000,6000,232000,194882,
-2660,12700,2584,-9151,1509,-3054,50000,6000,232000,194884,
-2548,12776,2368,-9056,107,-2973,49000,7000,232000,194897,
-2548,12852,2344,-9125,-209,-2985,49000,7000,232000,194899,
-2524,12852,2164,-9125,-397,-2951,49000,7000,232000,194902,
-2172,13144,2204,-9548,-1620,-3064,48000,7000,232000,194914,
-2144,13092,2212,-9684,-1837,-3096,48000,7000,232000,194916,
-2264,13052,2296,-9791,-1979,-3101,48000,7000,232000,194919,
-1568,12964,2780,-10674,-2425,-3251,47000,7000,231000,194931,
-1524,12884,2952,-10813,-2407,-3286,47000,7000,231000,194934,
-1408,12880,3132,-11006,-2352,-3305,47000,7000,231000,194936,
-972,12756,3080,-12056,-1918,-3411,46000,7000,231000,194949,
-952,12780,3032,-12293,-1843,-3437,46000,7000,231000,194951,
-872,12708,2712,-12443,-1732,-3478,45000,7000,231000,194953,
-916,12444,3072,-13457,-1467,-3624,44000,7000,230000,194966,
-936,12348,2984,-13690,-1465,-3675,44000,7000,230000,194968,
-988,12248,3156,-13844,-1447,-3676,44000,7000,230000,194971,
-1304,12220,3068,-14771,-1490,-3797,42000,7000,230000,194983,
-1448,12188,3064,-14885,-1535,-3808,42000,8000,230000,194986,
-1456,12120,3124,-15095,-1640,-3856,42000,8000,230000,194988,
-1680,11732,4248,-15917,-1922,-4006,41000,8000,229000,195001,
-1704,11472,4332,-16248,-2068,-4027,40000,8000,229000,195003,
-1604,11504,4748,-16406,-2065,-4027,40000,8000,229000,195005,
-1352,10764,5468,-17128,-2723,-4376,38000,8000,229000,195018,
-1372,10764,5504,-17230,-2823,-4441,38000,8000,229000,195020,
-1988,10304,5712,-18098,-4258,-4829,36000,8000,228000,195033,
-2128,10144,5760,-18211,-4518,-4896,36000,8000,228000,195035,
-2196,10092,5988,-18370,-4888,-5000,36000,8000,228000,195037,
-2348,9464,6084,-19096,-6634,-5118,34000,8000,227000,195050,
-2276,9456,6260,-19107,-6811,-5138,34000,7000,227000,195052,
-2068,9188,6764,-19293,-7094,-5147,33000,7000,227000,195055,
-1028,8484,8000,-19904,-7810,-5145,31000,7000,226000,195067,
-784,8384,8116,-20110,-7914,-5209,31000,7000,226000,195070,
-648,8336,8240,-20236,-7959,-5250,31000,7000,226000,195072,
-12,7540,7892,-20919,-7908,-5377,29000,6000,225000,195084,
-28,7096,8756,-20894,-8145,-5528,28000,6000,225000,195087,
20,7316,8864,-21042,-8166,-5594,28000,6000,224000,195089,
508,6572,9292,-21714,-7500,-5349,26000,6000,224000,195102,
556,6336,9360,-21846,-7436,-5334,25000,6000,223000,195104,
652,6112,9292,-22020,-7424,-5327,25000,6000,223000,195106,
484,5384,9408,-22194,-7006,-5366,23000,5000,223000,195119,
504,5520,9648,-22393,-6955,-5364,22000,5000,222000,195121,
560,5292,10340,-22427,-6782,-5308,22000,5000,222000,195124,
1468,4348,10772,-23091,-6292,-5258,20000,5000,222000,195136,
1508,4280,10928,-23092,-6235,-5395,19000,4000,221000,195138,
1452,4228,11156,-23149,-6206,-5528,19000,4000,221000,195141,
1644,3176,12980,-23603,-4975,-5773,16000,4000,221000,195153,
1664,2864,13064,-23877,-4928,-5777,16000,4000,221000,195156,
1656,2684,13108,-23928,-4666,-5787,16000,4000,220000,195158,
1572,1720,13276,-24236,-4351,-6180,13000,4000,220000,195170,
1376,1500,13652,-24125,-4275,-6260,13000,4000,220000,195173,
1268,1368,13836,-24157,-4356,-6344,12000,3000,220000,195175,
1280,304,13868,-23939,-4476,-6421,10000,3000,219000,195188,
1312,180,14464,-23767,-4367,-6471,9000,3000,219000,195190,
1504,96,15016,-23628,-4240,-6536,9000,3000,219000,195192,
3176,-1108,16764,-23625,-2901,-6674,7000,3000,218000,195205,
2576,-892,16168,-23844,-2127,-6657,6000,3000,218000,195207,
2276,-1568,17472,-23676,-2371,-6663,6000,3000,218000,195210,
2012,-2044,16584,-22722,-2260,-7049,3000,2000,217000,195222,
1892,-2132,16312,-22435,-2186,-7073,3000,2000,217000,195225,
1696,-2180,16212,-22343,-2315,-7037,2000,2000,217000,195227,
1012,-2516,15004,-21255,-3638,-6893,0,2000,216000,195239,
640,-2544,14620,-20972,-3971,-6870,0,2000,216000,195242,
364,-2660,14396,-20803,-4409,-6870,0,2000,216000,195244,
-104,-2480,15160,-19609,-6539,-6921,-1000,1000,215000,195256,
144,-2668,15424,-19480,-6828,-6913,-2000,1000,215000,195259,
516,-2580,15948,-19400,-7101,-6980,-2000,1000,215000,195261,
2352,-3424,17800,-19121,-7142,-7189,-4000,0,214000,195274,
2776,-3568,18196,-19221,-6938,-7247,-4000,0,214000,195276,
2924,-3688,18056,-19275,-6609,-7263,-5000,0,214000,195278,
3672,-4164,17860,-19438,-5116,-7468,-7000,0,213000,195291,
3708,-4112,17540,-19350,-4808,-7452,-7000,0,213000,195293,
3624,-4076,17140,-19444,-4593,-7433,-7000,0,213000,195295,
3008,-4784,16132,-18783,-3525,-7285,-9000,-1000,212000,195308,
2644,-4640,15832,-18759,-3588,-7253,-9000,-1000,212000,195310,
2524,-4744,15524,-18584,-3540,-7192,-10000,-1000,212000,195313,
2096,-5180,15872,-17643,-3502,-6686,-12000,-1000,212000,195325,
2080,-4984,15528,-17370,-3562,-6681,-12000,-1000,212000,195328,
2660,-5148,15276,-17335,-3532,-6745,-12000,-1000,211000,195330,
3020,-6196,18112,-16533,-2009,-6569,-14000,-2000,211000,195342,
3148,-6320,18500,-16261,-1715,-6589,-14000,-2000,211000,195345,
3356,-7028,19108,-16453,108,-6756,-16000,-2000,210000,195357,
3296,-6952,19272,-16288,511,-6726,-16000,-2000,210000,195360,
3044,-6932,19396,-16332,771,-6798,-16000,-2000,210000,195362,
4296,-7112,19896,-17092,3091,-6426,-18000,-2000,209000,195374,
3584,-8260,21768,-16090,3668,-6549,-18000,-2000,209000,195377,
3168,-8808,21184,-14855,3393,-6722,-18000,-2000,209000,195379,
1392,-8876,19964,-14617,4048,-6548,-20000,-2000,208000,195392,
872,-8868,19936,-14243,4054,-6489,-20000,-2000,208000,195394,
456,-8836,19888,-13871,3861,-6423,-20000,-2000,208000,195396,
-932,-9364,19976,-12065,2355,-5941,-21000,-2000,207000,195409,
-1100,-9548,19992,-11781,1881,-5893,-22000,-2000,207000,195411,
-1380,-9744,20884,-9871,-15,-5679,-23000,-2000,207000,195424,
-1176,-9624,21020,-9602,-353,-5642,-23000,-2000,207000,195426,
-1232,-9696,21048,-9274,-587,-5571,-23000,-2000,207000,195429,
-1092,-9732,21200,-7777,-2354,-5294,-24000,-2000,206000,195441,
-1160,-9764,21120,-7471,-2637,-5236,-24000,-3000,206000,195444,
-1064,-9740,21168,-7186,-2978,-5176,-24000,-3000,206000,195446,
-876,-9560,20328,-5748,-4419,-4642,-25000,-3000,206000,195459,
-804,-9568,20304,-5480,-4688,-4548,-25000,-3000,206000,195461,
-592,-9384,20152,-5275,-4738,-4450,-25000,-3000,206000,195463,
596,-9236,20456,-4276,-4586,-3896,-25000,-4000,206000,195476,
856,-9268,20484,-4129,-4428,-3812,-25000,-4000,206000,195478,
1184,-9096,20020,-3250,-3454,-3411,-25000,-4000,205000,195491,
1180,-9028,20044,-3154,-3352,-3324,-26000,-5000,205000,195493,
1080,-8928,19880,-2950,-3098,-3181,-26000,-5000,205000,195495,
952,-8612,19216,-2257,-2410,-2529,-26000,-5000,205000,195508,
1072,-8524,18996,-2136,-2316,-2433,-26000,-5000,205000,195510,
1016,-8524,18896,-1963,-2139,-2288,-26000,-5000,205000,195513,
1024,-8160,18496,-1348,-1664,-1802,-26000,-5000,205000,195525,
948,-8152,18256,-1318,-1631,-1741,-26000,-5000,205000,195528,
984,-8164,18436,-1168,-1579,-1669,-26000,-5000,205000,195530,
756,-7836,17772,-858,-1634,-1340,-26000,-5000,205000,195542,
816,-7836,17876,-757,-1667,-1270,-26000,-5000,205000,195545,
788,-7708,17760,-745,-1732,-1235,-26000,-6000,205000,195547,
1104,-7656,17052,-478,-1857,-942,-26000,-6000,205000,195560,
1212,-7544,17128,-514,-1981,-895,-26000,-6000,205000,195562,
1728,-7448,16940,-412,-1871,-836,-26000,-6000,205000,195574,
1852,-7440,16932,-342,-1704,-810,-26000,-6000,205000,195577,
1988,-7356,16840,-366,-1735,-795,-26000,-6000,205000,195579,
2016,-7156,16396,-178,-1440,-715,-26000,-6000,205000,195591,
2172,-7144,16364,-226,-1460,-671,-26000,-6000,205000,195594,
2168,-7160,16576,-166,-1305,-629,-26000,-6000,205000,195596,
2516,-7032,16244,-105,-813,-518,-26000,-6000,205000,195609,
2524,-7032,16332,-110,-692,-507,-26000,-6000,205000,195611,
2476,-7068,16356,-73,-659,-509,-26000,-6000,205000,195613,
2276,-6892,16176,31,-222,-403,-26000,-6000,205000,195626,
2364,-6948,16160,68,-195,-367,-26000,-6000,205000,195628,
2308,-7016,16312,100,-52,-356,-26000,-6000,205000,195630,
2372,-7052,16176,159,256,-275,-26000,-6000,205000,195643,
2336,-6912,16244,206,354,-276,-26000,-6000,205000,195645,
2368,-6900,16144,182,350,-281,-26000,-6000,205000,195647,
1956,-6792,16076,398,566,-228,-26000,-6000,205000,195660,
1860,-6808,15912,423,478,-195,-26000,-6000,205000,195662,
1780,-6832,15816,479,553,-174,-26000,-6000,205000,195664,
1784,-6652,15756,698,261,-51,-26000,-6000,205000,195677,
1740,-6608,15720,727,314,-29,-26000,-6000,205000,195679,
1956,-6672,15784,764,218,1,-26000,-6000,205000,195681,
1760,-6540,15756,993,219,24,-26000,-6000,205000,195694,
1880,-6596,15668,957,168,57,-26000,-6000,205000,195696,
1712,-6520,15548,1048,206,47,-26000,-6000,205000,195699,
1628,-6224,15408,1088,38,164,-25000,-6000,205000,195711,
1704,-6192,15380,1185,82,217,-25000,-6000,205000,195713,
