Ax,Ay,Az,Gx,Gy,Gz,Roll,Pitch,Yaw,Timestamp,Target
5972,1216,15332,906,-535,379,-2000,-16000,58000,880202,
5836,1232,15132,743,-425,556,-2000,-16000,58000,880215,
6004,1248,14892,689,-441,573,-2000,-16000,58000,880217,
5944,1264,15088,704,-378,658,-2000,-16000,58000,880220,
6076,1476,14864,507,-221,728,-2000,-16000,58000,880232,
5956,1580,14756,632,-158,776,-2000,-16000,58000,880234,
6160,1548,14820,468,-183,732,-2000,-16000,58000,880237,
6368,1800,14696,434,-53,695,-2000,-16000,58000,880249,
6272,1700,14628,243,-135,688,-2000,-16000,58000,880252,
6100,1660,14728,333,-96,677,-2000,-16000,58000,880254,
6064,1704,14872,-61,-258,699,-2000,-16000,58000,880266,
6240,1644,14984,-166,-349,611,-2000,-16000,58000,880269,
6300,1724,14948,-161,-349,626,-2000,-16000,58000,880271,
6812,1680,15060,-474,-563,446,-2000,-16000,58000,880284,
6836,1584,14960,-346,-481,413,-2000,-16000,58000,880286,
6716,1600,15196,-514,-538,339,-2000,-16000,58000,880288,
6964,1512,14868,-467,-34,109,-2000,-16000,58000,880301,
7032,1588,15020,-553,81,58,-2000,-16000,58000,880303,
7228,1696,14972,-436,231,62,-2000,-16000,58000,880305,
7068,1648,15004,-500,305,36,-2000,-16000,58000,880308,
7248,1868,15004,-450,737,-224,-2000,-16000,58000,880320,
7176,1944,14980,-394,840,-281,-2000,-16000,58000,880322,
7224,1924,15072,-415,822,-391,-2000,-16000,58000,880325,
6688,1820,15072,-403,994,-666,-2000,-16000,58000,880337,
6512,1944,14880,-554,925,-697,-2000,-16000,58000,880340,
6536,1860,14840,-467,967,-736,-2000,-16000,58000,880342,
6224,2084,14896,-815,512,-760,-2000,-16000,58000,880354,
6332,2032,14900,-778,415,-797,-2000,-16000,58000,880357,
6276,2040,15040,-913,278,-766,-2000,-16000,58000,880359,
6232,1872,15004,-1194,-452,-804,-2000,-16000,58000,880372,
6136,1820,15100,-1204,-501,-763,-2000,-16000,58000,880374,
6284,1752,15220,-1254,-628,-802,-2000,-16000,58000,880376,
6792,1720,15164,-1296,-587,-838,-2000,-16000,57000,880389,
6684,1648,15156,-1433,-594,-846,-2000,-17000,57000,880391,
6832,1656,15192,-1312,-484,-852,-2000,-17000,57000,880394,
6828,1568,15308,-1410,-160,-938,-2000,-17000,57000,880406,
6836,1660,15180,-1296,-89,-987,-2000,-17000,57000,880408,
6868,1620,15236,-1380,-79,-977,-2000,-17000,57000,880411,
6504,1256,15476,-1228,-30,-1212,-2000,-17000,57000,880423,
6484,1124,15464,-1131,26,-1250,-2000,-17000,57000,880426,
6620,1092,15604,-1199,-29,-1345,-2000,-17000,57000,880428,
6648,864,15456,-918,27,-1558,-2000,-17000,57000,880441,
6416,824,15396,-991,13,-1558,-2000,-17000,57000,880443,
6312,752,15472,-842,87,-1587,-2000,-17000,57000,880445,
6060,948,15204,-888,345,-1548,-2000,-17000,57000,880458,
6064,940,15184,-893,393,-1557,-2000,-17000,57000,880460,
6016,964,15212,-894,447,-1465,-2000,-17000,57000,880462,
5628,1040,15172,-1001,636,-1315,-2000,-17000,56000,880475,
5500,1028,15104,-884,718,-1281,-2000,-17000,56000,880477,
5452,920,15024,-1007,643,-1255,-2000,-17000,56000,880479,
4984,696,14948,-973,610,-1123,-2000,-17000,56000,880492,
5096,672,14824,-1005,573,-1053,-2000,-17000,56000,880494,
4928,588,14960,-973,505,-1017,-2000,-17000,56000,880496,
5064,640,15028,-898,185,-748,-2000,-17000,56000,880509,
5016,620,14952,-1023,14,-759,-2000,-17000,56000,880511,
5076,640,15136,-893,8,-701,-2000,-17000,56000,880514,
5316,632,15080,-984,-445,-663,-2000,-17000,56000,880526,
5216,600,15032,-903,-494,-725,-2000,-17000,56000,880529,
5264,840,14888,-975,-560,-698,-2000,-17000,56000,880531,
5424,1012,15100,-980,-815,-681,-2000,-17000,56000,880543,
5324,1092,14956,-941,-770,-654,-2000,-17000,56000,880546,
5496,1124,14916,-1015,-781,-642,-2000,-17000,56000,880548,
5444,1468,15152,-1053,-861,-571,-2000,-17000,56000,880561,
5400,1440,15376,-1201,-928,-557,-2000,-17000,56000,880563,
5488,1480,15352,-1119,-941,-551,-2000,-17000,56000,880565,
5592,1552,15564,-1421,-1162,-492,-2000,-17000,56000,880578,
5532,1336,15772,-1401,-1236,-488,-2000,-17000,56000,880580,
5460,1400,15704,-1407,-1283,-450,-2000,-17000,56000,880582,
5680,1184,16152,-1434,-1651,-397,-3000,-17000,56000,880595,
5976,1144,16088,-1271,-1644,-407,-3000,-17000,56000,880597,
6016,1112,16212,-1385,-1763,-378,-3000,-17000,56000,880600,
6284,828,16840,-1058,-1813,-412,-3000,-18000,56000,880612,
6396,972,16840,-1104,-1831,-381,-3000,-18000,56000,880615,
6504,944,16704,-967,-1795,-438,-3000,-18000,56000,880617,
7012,836,16908,-710,-1308,-460,-3000,-18000,56000,880629,
6860,812,16844,-718,-1231,-499,-3000,-18000,56000,880632,
6904,876,16976,-627,-1056,-504,-3000,-18000,56000,880634,
6848,724,17068,-459,-499,-579,-3000,-18000,56000,880647,
6868,764,16836,-284,-344,-571,-3000,-18000,55000,880649,
6976,796,16840,-355,-310,-615,-3000,-18000,55000,880651,
7140,1000,16588,-90,301,-726,-3000,-18000,55000,880664,
6896,976,16468,-119,405,-742,-3000,-18000,55000,880666,
7032,992,16508,-63,538,-800,-3000,-18000,55000,880668,
6652,828,15956,-61,1204,-921,-2000,-18000,55000,880681,
6636,848,15760,-190,1258,-964,-2000,-18000,55000,880683,
6660,756,15932,-81,1393,-972,-2000,-18000,55000,880686,
5944,516,15412,-258,1459,-1020,-2000,-18000,55000,880698,
5888,492,15456,-128,1486,-1007,-2000,-18000,55000,880700,
5852,452,15456,-287,1368,-997,-2000,-18000,55000,880703,
5252,496,15196,-318,935,-883,-2000,-18000,55000,880715,
5248,316,15224,-340,881,-830,-2000,-18000,55000,880718,
5032,384,15352,-370,764,-836,-2000,-18000,55000,880720,
4916,220,15384,-265,295,-681,-2000,-18000,55000,880732,
5160,256,15196,-367,152,-689,-2000,-18000,55000,880735,
5256,232,15256,-236,141,-645,-2000,-18000,55000,880737,
5196,88,15240,-169,-313,-540,-2000,-18000,55000,880749,
5092,-32,15228,-30,-318,-549,-2000,-18000,55000,880752,
5268,84,15308,-82,-419,-486,-2000,-18000,55000,880754,
5380,332,15068,72,-617,-419,-2000,-18000,55000,880766,
5472,364,15088,78,-603,-355,-2000,-18000,55000,880768,
5492,348,14960,86,-616,-362,-2000,-18000,55000,880771,
5464,500,15032,95,-491,-148,-2000,-18000,55000,880783,
5368,540,15036,-59,-559,-170,-2000,-18000,55000,880785,
5424,620,15056,37,-477,-104,-2000,-18000,55000,880788,
5864,736,15116,-207,-409,-44,-2000,-18000,55000,880800,
5960,808,14988,-90,-322,-48,-2000,-18000,55000,880803,
5836,820,14916,-229,-380,-74,-2000,-18000,55000,880805,
6092,888,14992,-240,-118,-113,-2000,-18000,55000,880817,
6136,832,15072,-314,-8,-74,-2000,-18000,55000,880820,
6320,772,14924,-242,56,-134,-2000,-18000,55000,880822,
6384,988,14904,-337,590,-191,-2000,-18000,55000,880834,
6392,940,14968,-448,600,-235,-2000,-18000,55000,880837,
6200,992,15056,-363,763,-221,-2000,-18000,55000,880839,
5872,924,14908,-530,924,-273,-2000,-18000,54000,880852,
5820,1040,14940,-435,931,-334,-2000,-18000,54000,880854,
5776,1064,14960,-572,839,-333,-2000,-18000,54000,880856,
5556,912,14760,-610,351,-380,-2000,-18000,54000,880869,
5304,1000,14744,-632,285,-351,-2000,-18000,54000,880871,
5356,1092,14616,-632,193,-379,-2000,-18000,54000,880873,
5052,956,14552,-700,-197,-276,-2000,-18000,54000,880886,
5208,1020,14744,-825,-295,-272,-2000,-18000,54000,880888,
5260,876,14644,-764,-308,-204,-2000,-18000,54000,880890,
5316,884,14524,-975,-597,-81,-2000,-18000,54000,880903,
5368,844,14688,-828,-577,-14,-2000,-18000,54000,880905,
5312,744,14588,-995,-668,-22,-2000,-18000,54000,880907,
5192,756,14756,-1005,-918,220,-2000,-18000,54000,880920,
5428,828,14816,-1069,-961,280,-2000,-18000,54000,880922,
5432,864,14772,-1006,-957,261,-2000,-18000,54000,880924,
5912,908,14820,-1076,-1045,369,-2000,-18000,54000,880937,
5748,820,14852,-1200,-1157,338,-2000,-18000,54000,880939,
5936,924,14892,-1071,-1081,354,-2000,-18000,54000,880942,
6072,808,14980,-1225,-1186,429,-3000,-18000,54000,880954,
5972,820,15012,-1167,-1182,435,-3000,-18000,54000,880956,
5892,816,15248,-1250,-1181,486,-3000,-18000,54000,880959,
6172,700,15428,-1159,-1094,491,-3000,-18000,54000,880971,
6148,852,15252,-1108,-1054,545,-3000,-19000,54000,880974,
6156,708,15316,-1143,-1102,461,-3000,-19000,55000,880976,
6372,692,15448,-889,-1025,498,-3000,-19000,55000,880989,
6180,636,15632,-989,-1074,529,-3000,-19000,55000,880991,
6416,700,15604,-804,-1003,521,-3000,-19000,55000,880993,
6276,588,15444,-675,-900,586,-3000,-19000,55000,881006,
6476,668,15700,-650,-917,558,-3000,-19000,55000,881008,
6360,592,15616,-588,-840,594,-3000,-19000,55000,881010,
6504,436,15568,-499,-659,606,-3000,-19000,55000,881023,
6536,460,15448,-321,-568,639,-3000,-19000,55000,881025,
6632,404,15388,-454,-546,625,-3000,-19000,55000,881027,
6460,304,15312,-293,-291,726,-3000,-19000,55000,881040,
6248,484,15320,-351,-285,787,-3000,-19000,55000,881042,
6268,364,14988,-280,-223,749,-3000,-19000,55000,881044,
6208,592,15132,-275,-113,951,-3000,-19000,55000,881057,
6304,760,14840,-397,-177,942,-3000,-19000,55000,881059,
6256,704,14840,-281,-103,982,-3000,-19000,55000,881062,
6168,936,14872,-570,-125,1159,-3000,-19000,55000,881074,
6128,912,14944,-473,-102,1203,-3000,-19000,55000,881076,
5960,924,14940,-646,-159,1192,-3000,-19000,55000,881079,
6396,732,15000,-676,-481,1241,-3000,-19000,55000,881091,
6336,712,14868,-706,-548,1286,-3000,-19000,55000,881094,
6412,660,14984,-662,-618,1303,-3000,-19000,55000,881096,
6464,732,14880,-578,-775,1388,-3000,-19000,55000,881108,
6664,732,15144,-677,-855,1347,-3000,-19000,55000,881111,
6752,828,14992,-577,-782,1395,-3000,-19000,55000,881113,
7144,804,14980,-641,-660,1395,-3000,-19000,56000,881126,
6920,776,15068,-521,-574,1355,-3000,-19000,56000,881128,
7048,780,14872,-663,-605,1394,-3000,-19000,56000,881130,
6972,756,15052,-628,-495,1377,-3000,-19000,56000,881143,
7132,688,15184,-628,-508,1397,-3000,-19000,56000,881145,
6976,644,15144,-621,-522,1386,-3000,-19000,56000,881147,
7100,736,15168,-566,-571,1406,-4000,-20000,56000,881160,
7228,716,15160,-697,-667,1370,-4000,-20000,56000,881162,
7320,660,15196,-568,-567,1377,-4000,-20000,56000,881165,
7688,840,15440,-606,-493,1398,-4000,-20000,56000,881177,
7680,888,15460,-527,-469,1331,-4000,-20000,56000,881179,
7748,892,15320,-575,-420,1358,-4000,-20000,56000,881182,
8060,1220,15220,-478,-109,1067,-4000,-20000,56000,881194,
8056,1212,15268,-420,23,1047,-4000,-20000,56000,881197,
8136,1332,15212,-443,8,948,-4000,-20000,56000,881199,
8252,1348,15176,-323,486,597,-4000,-20000,56000,881212,
8032,1248,15180,-435,467,510,-4000,-20000,56000,881214,
8216,1276,15120,-296,611,461,-4000,-20000,56000,881216,
7696,1204,14796,-448,723,288,-4000,-20000,56000,881229,
7572,1192,14972,-342,782,254,-4000,-20000,56000,881231,
7676,1240,14892,-475,758,214,-4000,-20000,56000,881233,
7316,1200,14700,-580,654,-46,-4000,-20000,56000,881246,
7480,1312,14692,-623,618,-73,-4000,-20000,56000,881248,
7332,1172,14740,-670,561,-154,-4000,-20000,56000,881250,
7044,848,14836,-755,287,-340,-4000,-20000,56000,881263,
6960,692,14852,-904,159,-367,-4000,-20000,56000,881265,
6872,632,14808,-837,162,-382,-4000,-20000,56000,881268,
7004,548,14824,-935,-50,-536,-4000,-20000,56000,881280,
7076,456,14900,-828,-15,-582,-4000,-20000,56000,881282,
7084,440,15100,-951,-82,-627,-4000,-20000,56000,881285,
6808,252,15020,-995,-60,-668,-4000,-20000,56000,881297,
6756,256,15052,-967,44,-653,-4000,-20000,56000,881300,
6824,248,14920,-1042,34,-687,-4000,-20000,56000,881302,
6952,320,15016,-1021,293,-731,-4000,-20000,56000,881314,
6804,348,14964,-1189,239,-766,-4000,-20000,56000,881317,
6652,348,14868,-1040,311,-761,-4000,-20000,56000,881319,
6204,372,15144,-1327,-64,-797,-4000,-20000,56000,881332,
6208,268,15300,-1234,-82,-798,-4000,-20000,56000,881334,
6232,220,15284,-1357,-253,-792,-4000,-20000,56000,881336,
6324,92,15368,-1324,-859,-793,-4000,-20000,56000,881349,
6452,24,15280,-1359,-919,-786,-4000,-20000,56000,881351,
6340,92,15516,-1262,-1038,-848,-4000,-20000,56000,881353,
6524,60,15828,-1123,-1313,-807,-4000,-20000,56000,881365,
6716,20,15832,-1169,-1346,-847,-4000,-20000,56000,881368,
6892,-80,15832,-1091,-1238,-794,-4000,-20000,56000,881370,
7384,28,16072,-943,-765,-925,-4000,-20000,55000,881383,
7352,-36,15988,-767,-550,-938,-4000,-20000,55000,881385,
7460,136,16028,-857,-458,-984,-4000,-20000,55000,881387,
7312,104,15756,-534,454,-1110,-4000,-20000,55000,881400,
7448,100,15780,-555,608,-1083,-4000,-20000,55000,881402,
7372,132,15808,-464,769,-1147,-4000,-20000,55000,881404,
6832,24,15332,-459,1316,-1167,-4000,-20000,55000,881417,
6744,108,15472,-518,1336,-1233,-4000,-20000,55000,881419,
6668,68,15200,-478,1375,-1186,-4000,-20000,55000,881422,
6056,124,15000,-686,1072,-1104,-4000,-20000,55000,881434,
6068,188,15004,-567,1027,-1033,-4000,-20000,55000,881436,
5900,216,15016,-738,873,-1068,-4000,-20000,55000,881439,
5824,228,14908,-744,245,-893,-4000,-20000,55000,881451,
5908,192,14952,-879,96,-863,-4000,-20000,55000,881454,
5892,296,14920,-805,14,-869,-4000,-20000,55000,881456,
6340,612,14988,-1035,-635,-631,-4000,-20000,55000,881468,
6276,504,14968,-1086,-758,-702,-4000,-20000,55000,881471,
6568,648,15008,-1085,-752,-650,-4000,-20000,55000,881473,
6936,712,15260,-1207,-982,-774,-4000,-20000,55000,881486,
7096,668,15180,-1084,-901,-761,-4000,-20000,54000,881488,
6980,772,15292,-1239,-943,-839,-4000,-20000,54000,881490,
7356,768,15320,-1141,-763,-887,-4000,-20000,54000,881503,
7484,792,15224,-1212,-768,-873,-4000,-20000,54000,881505,
7576,808,15280,-1110,-769,-940,-4000,-20000,54000,881507,
7732,1140,14756,-1089,-866,-1060,-4000,-21000,54000,881520,
7816,1356,14720,-1169,-909,-1122,-4000,-21000,54000,881522,
7816,1312,14732,-1144,-845,-1138,-4000,-21000,54000,881524,
8788,2012,14236,-1468,-799,-1242,-4000,-21000,54000,881537,
8920,2028,14140,-1390,-709,-1212,-4000,-21000,54000,881539,
9172,2160,14092,-1594,-744,-1295,-4000,-21000,54000,881542,
9784,2320,13836,-1983,-301,-1962,-4000,-21000,54000,881554,
9856,2260,13748,-2144,-224,-2090,-4000,-21000,54000,881557,
10068,2248,13772,-2163,-129,-2255,-4000,-21000,54000,881559,
9912,1708,14056,-2840,-9,-3091,-4000,-21000,53000,881572,
9620,1376,14192,-3050,-151,-3264,-4000,-21000,53000,881574,
9624,1252,14060,-3056,-177,-3328,-4000,-21000,53000,881576,
9060,356,15024,-3648,-1047,-3925,-5000,-21000,53000,881589,
9132,248,14948,-3575,-1188,-3988,-5000,-21000,53000,881591,
8952,152,14968,-3695,-1458,-3977,-5000,-22000,53000,881594,
9372,-400,15336,-3631,-2627,-4193,-5000,-22000,52000,881606,
9632,-296,15380,-3544,-2740,-4192,-5000,-22000,52000,881608,
9792,-456,15320,-3549,-2881,-4256,-5000,-22000,52000,881611,
10900,-616,15724,-3254,-2068,-4918,-5000,-22000,52000,881623,
11000,-688,15672,-3326,-1906,-5071,-5000,-22000,51000,881626,
11412,-728,15596,-3104,-1663,-5232,-5000,-22000,51000,881628,
11448,-1216,15772,-2882,67,-6406,-5000,-23000,51000,881641,
11588,-1348,15656,-2796,344,-6622,-5000,-23000,51000,881643,
11496,-1328,15700,-2829,402,-6705,-5000,-23000,50000,881645,
11452,-1652,15748,-2466,-402,-6121,-5000,-23000,50000,881658,
11444,-1824,15692,-2340,-522,-5732,-5000,-23000,50000,881660,
11440,-1992,15400,-2320,-629,-5416,-5000,-23000,50000,881663,
11636,-1980,15488,-2176,736,-4973,-5000,-23000,49000,881675,
11460,-1988,15416,-2261,595,-4996,-5000,-23000,49000,881677,
11716,-1864,15364,-2078,501,-5080,-5000,-23000,49000,881680,
10880,-2188,15488,-2021,-626,-5548,-5000,-23000,48000,881692,
10912,-2408,15552,-1975,-850,-5638,-5000,-23000,48000,881695,
10772,-2524,15556,-1913,-1047,-5542,-5000,-23000,48000,881697,
10944,-2484,15600,-1767,-2066,-5311,-5000,-24000,48000,881710,
11160,-2488,15780,-1597,-2173,-5220,-5000,-24000,47000,881712,
11816,-1920,15912,-1449,-3069,-5078,-5000,-24000,47000,881725,
11820,-1812,15896,-1326,-3210,-5183,-5000,-24000,47000,881727,
12020,-1724,15780,-1339,-3312,-5200,-5000,-24000,47000,881729,
12956,-1488,15648,-993,-3624,-5643,-5000,-25000,46000,881742,
13284,-1580,15608,-814,-3543,-5690,-5000,-25000,46000,881744,
13440,-1404,15512,-840,-3608,-5879,-5000,-25000,46000,881747,
14336,-948,15604,-482,-2593,-7219,-4000,-25000,45000,881759,
14372,-932,15552,-566,-2553,-7461,-4000,-25000,45000,881762,
14716,-892,15664,-416,-2614,-7592,-4000,-25000,45000,881764,
14404,-1116,15456,-453,-2201,-7869,-4000,-26000,44000,881777,
14168,-1280,15680,-500,-1864,-8041,-4000,-26000,44000,881779,
14096,-1300,15680,-504,-1603,-8090,-4000,-26000,44000,881781,
14116,-1288,15116,-410,-1041,-8917,-3000,-26000,43000,881794,
14152,-1340,15096,-271,-884,-9045,-3000,-26000,43000,881796,
13976,-1196,15144,-358,-904,-9326,-3000,-26000,42000,881799,
13432,-1108,14588,-278,-701,-10132,-3000,-26000,41000,881811,
13376,-948,14616,-419,-624,-10178,-3000,-27000,41000,881813,
13288,-328,14284,-882,-256,-10840,-2000,-27000,40000,881826,
13284,-184,14104,-834,-156,-10955,-2000,-27000,40000,881828,
13080,-252,14296,-1100,-214,-11081,-2000,-27000,40000,881831,
13172,64,14244,-1679,-240,-11906,-2000,-27000,38000,881843,
13444,124,14060,-1838,-262,-11971,-2000,-27000,38000,881846,
13312,140,14120,-1896,-290,-12333,-2000,-27000,38000,881848,
13328,-44,13672,-2205,-355,-13473,-1000,-27000,36000,881861,
12992,-228,13424,-2367,-429,-13731,-1000,-27000,36000,881863,
12892,-248,13376,-2306,-382,-13916,-1000,-27000,36000,881865,
12128,-580,13512,-2714,-987,-14980,0,-27000,34000,881878,
11824,-616,13528,-2650,-1143,-15169,0,-27000,34000,881880,
11712,-704,13448,-2838,-1422,-15317,0,-28000,34000,881882,
10640,-828,13864,-3130,-2877,-16013,0,-28000,32000,881895,
10468,-940,13824,-3227,-3158,-15966,0,-28000,31000,881897,
10444,-860,13948,-3229,-3441,-16080,0,-28000,31000,881900,
10196,-1376,14104,-3368,-4527,-15981,0,-28000,29000,881912,
10008,-1488,14372,-3422,-4682,-16123,0,-29000,29000,881914,
10352,-1508,14372,-3350,-4691,-16072,0,-29000,29000,881917,
10852,-1564,14288,-3379,-4524,-16408,1000,-29000,27000,881930,
11120,-1480,14380,-3238,-4282,-16497,1000,-29000,27000,881932,
11160,-1376,14396,-3397,-4071,-16606,1000,-29000,26000,881934,
10780,-1252,14248,-3403,-2243,-17172,1000,-29000,24000,881947,
10548,-1288,14192,-3391,-1943,-17113,2000,-30000,24000,881949,
10516,-1184,14408,-3446,-1705,-17234,2000,-30000,24000,881951,
9240,-1252,14448,-3482,-915,-17358,2000,-30000,22000,881964,
9072,-1204,14624,-3644,-994,-17441,2000,-30000,21000,881966,
8764,-1352,14652,-3519,-973,-17501,2000,-30000,21000,881969,
7908,-1612,15044,-3710,-1619,-17685,3000,-30000,19000,881981,
7924,-1568,15192,-3694,-1764,-17747,3000,-30000,19000,881984,
7508,-1728,15260,-3710,-1834,-17666,3000,-30000,18000,881986,
7332,-1500,14856,-3822,-2072,-17526,4000,-30000,16000,881999,
7308,-1284,14940,-3683,-1999,-17478,4000,-30000,16000,882001,
7276,-1428,14756,-3826,-2017,-17421,4000,-30000,16000,882004,
6932,-1252,14932,-3816,-1656,-17226,5000,-30000,14000,882016,
6836,-1216,15004,-3818,-1560,-17076,5000,-30000,13000,882019,
6664,-1348,15432,-3898,-1141,-16818,5000,-30000,12000,882031,
6796,-1308,15256,-3759,-1018,-16816,5000,-30000,11000,882034,
6632,-1440,15052,-3827,-1019,-16708,5000,-30000,11000,882036,
7040,-1144,14616,-3594,-604,-16743,6000,-29000,9000,882049,
7276,-964,14444,-3476,-422,-16719,6000,-29000,9000,882051,
7316,-1044,14228,-3512,-358,-16816,6000,-29000,8000,882053,
6608,-636,13724,-3327,581,-16861,7000,-29000,7000,882066,
6492,-472,13708,-3461,677,-16879,7000,-29000,6000,882068,
6364,-524,13464,-3369,912,-16863,7000,-29000,6000,882071,
5224,-16,13140,-3740,1418,-16588,7000,-29000,4000,882083,
5088,-36,13216,-3772,1429,-16590,7000,-29000,4000,882085,
4940,-12,13284,-3899,1366,-16405,7000,-28000,3000,882088,
4604,360,12760,-4235,480,-16074,8000,-28000,2000,882100,
4624,524,12764,-4255,361,-15951,8000,-28000,1000,882102,
4704,492,12924,-4512,196,-15974,8000,-28000,1000,882105,
5840,740,11800,-4661,-432,-15772,8000,-28000,359000,882117,
6228,828,11556,-4860,-470,-15793,8000,-28000,359000,882119,
6580,956,11240,-4784,-292,-15808,8000,-28000,359000,882122,
7736,1560,10312,-5558,736,-16244,9000,-28000,357000,882134,
7808,1620,10112,-5646,1016,-16454,9000,-27000,357000,882136,
8016,1692,9956,-5888,1275,-16442,9000,-27000,357000,882139,
9100,2284,8532,-6856,2561,-16871,9000,-27000,355000,882151,
9080,2280,8440,-6985,2853,-16972,9000,-27000,354000,882153,
8880,2376,8472,-7284,2883,-17211,9000,-27000,354000,882156,
8948,2528,9172,-8642,3888,-18829,9000,-26000,352000,882168,
8824,2332,9460,-9028,3976,-19233,9000,-26000,352000,882170,
8612,2268,9880,-9203,4172,-19612,9000,-26000,351000,882173,
6100,500,11320,-10625,3937,-21493,9000,-25000,349000,882185,
5632,16,11448,-10671,3747,-21814,9000,-25000,349000,882187,
5120,-428,11688,-10804,3436,-21893,9000,-25000,348000,882190,
3252,-2124,12052,-10716,1046,-22823,9000,-25000,346000,882202,
2912,-2312,12076,-10513,733,-22757,9000,-25000,346000,882204,
2448,-2424,11908,-10485,296,-22881,9000,-24000,345000,882207,
1008,-1884,12208,-9774,-649,-21717,9000,-24000,343000,882219,
704,-1964,12284,-9821,-575,-21473,9000,-24000,343000,882221,
-1032,-1524,13636,-9458,1189,-19397,8000,-23000,341000,882234,
-1296,-1400,13624,-9472,1490,-18898,8000,-23000,340000,882236,
-1376,-1276,13748,-9251,1819,-18460,8000,-23000,340000,882238,
-1848,-964,13312,-8843,3268,-15657,8000,-22000,339000,882251,
-1768,-1192,13532,-8763,3781,-15290,8000,-22000,338000,882253,
-2204,-1488,13912,-8693,3664,-14697,8000,-22000,338000,882256,
-2236,-2076,14324,-7641,1960,-12301,8000,-22000,337000,882268,
-2188,-1984,14620,-7377,1756,-11974,8000,-22000,337000,882270,
-1296,-2228,15056,-6648,25,-10744,7000,-21000,336000,882283,
-1120,-2036,15308,-6347,-432,-10535,7000,-21000,335000,882285,
-1076,-1992,15180,-6295,-947,-10327,7000,-21000,335000,882288,
164,-896,14612,-5616,-2724,-9930,7000,-21000,334000,882300,
604,-660,14568,-5489,-2919,-9808,7000,-21000,334000,882303,
828,-708,14464,-5459,-3108,-9820,7000,-21000,334000,882305,
1952,36,15136,-5284,-3561,-9629,7000,-21000,333000,882318,
1824,252,15444,-5478,-3683,-9707,7000,-21000,333000,882320,
2008,352,15764,-5397,-3660,-9747,7000,-21000,332000,882322,
2072,564,16340,-5914,-3707,-9882,6000,-22000,331000,882335,
2016,504,16340,-5955,-3719,-9907,6000,-22000,331000,882337,
1980,424,16532,-6017,-3685,-9797,6000,-22000,331000,882339,
2564,-136,16856,-6236,-3226,-9455,6000,-22000,330000,882352,
2828,8,16976,-6134,-3070,-9377,6000,-22000,330000,882354,
2900,-32,17164,-6222,-3091,-9408,6000,-22000,330000,882357,
3372,324,17092,-6269,-741,-9692,6000,-22000,329000,882369,
2960,288,17132,-6448,-355,-9747,6000,-22000,328000,882372,
2604,416,17320,-6336,-7,-9816,6000,-22000,328000,882374,
448,60,17436,-6711,1818,-9621,5000,-21000,327000,882386,
-1296,-48,18024,-6616,927,-9444,5000,-21000,327000,882389,
-1660,-184,18672,-6371,-226,-9100,5000,-21000,327000,882391,
-1524,-1028,18936,-6019,-2702,-8192,5000,-21000,326000,882404,
-1156,-1028,18848,-5757,-3276,-7954,5000,-21000,326000,882406,
-1044,-1132,18908,-5762,-3943,-7788,5000,-21000,326000,882408,
1468,-544,18628,-4940,-5839,-7192,4000,-22000,325000,882421,
1924,-284,18732,-4859,-5971,-7101,4000,-22000,325000,882423,
2868,-80,18636,-4739,-5775,-7186,4000,-22000,325000,882426,
4872,340,18764,-4324,-3495,-7711,4000,-22000,324000,882438,
5176,436,18004,-4582,-1764,-7962,4000,-22000,324000,882440,
3848,192,18688,-4482,-943,-8032,4000,-22000,324000,882443,
1384,40,18872,-4629,989,-8149,4000,-22000,323000,882455,
740,0,18852,-4459,1185,-8006,4000,-22000,323000,882458,
848,-168,18428,-4642,1483,-7900,4000,-22000,322000,882460,
-128,-448,19116,-4290,-1166,-7071,4000,-21000,322000,882472,
-1056,-744,19264,-4330,-1719,-6929,4000,-21000,322000,882475,
-832,-744,19332,-4255,-2442,-6900,4000,-21000,321000,882477,
840,-488,19244,-3864,-3608,-6009,4000,-22000,321000,882490,
1076,-420,19128,-3935,-3644,-5806,4000,-22000,321000,882492,
1364,-388,19312,-3700,-3543,-5587,3000,-22000,321000,882494,
3592,-444,18652,-3389,-1744,-5098,3000,-22000,320000,882507,
4224,-304,18304,-3264,-920,-5164,3000,-22000,320000,882509,
5440,-544,17168,-3355,1267,-5248,3000,-22000,320000,882512,
3020,200,18212,-3380,5377,-5242,3000,-21000,319000,882524,
2372,472,18188,-3272,6023,-5148,3000,-21000,319000,882527,
1872,456,17976,-3436,6414,-5090,3000,-21000,319000,882529,
-1852,-96,18148,-3524,7130,-4732,3000,-20000,319000,882541,
-2876,-232,19028,-3308,5001,-4493,3000,-20000,319000,882544,
-1884,-172,18204,-3054,4264,-4452,3000,-20000,319000,882546,
-1948,-428,18356,-2755,832,-3525,3000,-20000,318000,882558,
-1436,-268,18104,-2549,11,-3451,3000,-20000,318000,882561,
-988,-380,17920,-2550,-301,-3311,3000,-19000,318000,882563,
1132,192,17908,-1791,-2909,-3094,2000,-20000,318000,882575,
1984,116,17568,-1623,-2858,-3083,2000,-20000,318000,882578,
2352,436,17456,-1719,-2569,-3154,2000,-20000,318000,882580,
3572,1124,17264,-1299,-1912,-3250,2000,-20000,317000,882593,
4204,936,16704,-1486,-1030,-3379,2000,-20000,317000,882595,
4312,956,16464,-1494,205,-3532,2000,-20000,317000,882597,
2312,452,16924,-1670,801,-3979,2000,-20000,317000,882610,
2048,476,16824,-1705,882,-4034,2000,-20000,317000,882612,
1904,480,16744,-1744,931,-3938,2000,-20000,317000,882615,
-256,528,16780,-1738,-69,-3783,2000,-19000,316000,882627,
180,596,16556,-1587,-264,-3637,2000,-19000,316000,882629,
8,496,16428,-1777,-102,-3590,2000,-19000,316000,882632,
-1124,-116,17292,-1481,-1850,-2848,2000,-19000,316000,882644,
-716,-360,17316,-1554,-2154,-2701,2000,-19000,316000,882647,
-804,-528,17404,-1348,-2510,-2593,2000,-19000,316000,882649,
200,-880,16864,-925,-4160,-2089,2000,-20000,316000,882662,
624,-832,16716,-923,-4349,-2010,2000,-20000,315000,882664,
988,-768,16688,-810,-4256,-1889,2000,-20000,315000,882666,
3276,-420,15508,-633,-3500,-1528,2000,-20000,315000,882679,
3844,-240,15236,-511,-2608,-1587,2000,-20000,315000,882681,
5240,-72,13940,-934,-137,-1708,2000,-20000,315000,882684,
2560,-360,15112,-1471,4638,-1820,2000,-20000,315000,882696,
1912,-196,15116,-1612,5324,-1733,2000,-19000,315000,882699,
1352,-132,15088,-1793,6072,-1769,2000,-19000,315000,882701,
-2672,-228,15336,-2562,7930,-967,2000,-18000,315000,882713,
-4384,-484,16672,-2489,5023,-748,2000,-18000,315000,882716,
-3024,-204,15516,-2399,4528,-706,2000,-18000,315000,882718,
-5720,-600,17172,-2462,405,2422,1000,-18000,315000,882731,
-5820,-896,16936,-2393,-423,2928,1000,-18000,315000,882733,
-5720,-932,17052,-2516,-1107,3396,1000,-18000,315000,882735,
-3840,-2268,17744,-1875,-2827,4534,1000,-18000,316000,882748,
-3056,-2504,17860,-1699,-2899,4374,1000,-18000,316000,882750,
-2012,-2404,18440,-1470,-3230,4230,1000,-18000,316000,882753,
260,-1008,18392,199,-5248,4098,1000,-18000,316000,882765,
300,-540,18728,274,-5071,4017,1000,-19000,316000,882768,
404,-436,18952,640,-4707,3955,1000,-19000,317000,882770,
-560,-808,19300,1257,-1508,4418,0,-19000,317000,882782,
-992,-1188,19644,1390,-1338,4600,0,-19000,317000,882785,
-1336,-1180,20076,1601,-1087,4884,0,-19000,317000,882787,
-2708,-2024,20628,2207,-1616,5779,0,-19000,318000,882800,
-2856,-2056,20964,2513,-1958,6037,0,-19000,318000,882802,
-2992,-2120,21092,2503,-2469,6281,0,-19000,318000,882804,
-2788,-2016,21136,3455,-3715,7971,0,-19000,319000,882817,
-2728,-1752,21228,3604,-3669,8316,0,-19000,319000,882819,
-2232,-1688,21212,3764,-3693,8597,0,-19000,319000,882822,
-1000,-1744,20832,4640,-2551,9909,1000,-19000,320000,882834,
-1052,-1904,20356,4647,-2306,10037,1000,-19000,320000,882837,
-960,-1836,20460,4931,-1974,10231,1000,-19000,321000,882839,
-1260,-2760,20672,5639,-1151,11229,1000,-19000,322000,882851,
-1128,-2936,20548,5774,-1113,11421,1000,-19000,322000,882854,
-1204,-2896,20460,5891,-1038,11584,1000,-19000,322000,882856,
-836,-3112,20000,6456,-1139,12538,1000,-19000,323000,882869,
-780,-2992,19928,6699,-1110,12700,1000,-19000,324000,882871,
-360,-2848,19892,6627,-1178,12939,1000,-19000,324000,882874,
644,-2128,19288,7064,-383,13772,1000,-19000,325000,882886,
796,-1972,19168,7011,-126,13863,1000,-19000,326000,882888,
928,-1848,19376,7103,114,14017,1000,-19000,326000,882891,
656,-1504,19256,7156,1367,14471,1000,-19000,327000,882903,
712,-1568,19564,7033,1413,14551,1000,-19000,328000,882906,
516,-1620,19356,7148,1547,14676,1000,-19000,328000,882908,
-124,-2288,19752,7070,1234,15285,1000,-19000,330000,882921,
-72,-2296,19804,7085,1094,15437,1000,-19000,330000,882923,
8,-2324,19732,7114,1005,15562,1000,-18000,330000,882925,
588,-2608,19168,7490,540,16336,2000,-18000,332000,882938,
716,-2612,19180,7707,541,16413,2000,-18000,332000,882940,
796,-2676,18996,7753,454,16489,2000,-18000,332000,882942,
1772,-2684,18564,8611,528,16799,2000,-18000,334000,882955,
1864,-2676,18512,8623,523,16782,2000,-18000,334000,882957,
1856,-2616,18320,8883,587,16872,2000,-18000,335000,882960,
2604,-2616,18136,9452,905,17096,2000,-18000,337000,882972,
2744,-2692,18108,9543,974,17176,2000,-18000,337000,882974,
2868,-2624,17904,9618,1178,17184,2000,-18000,337000,882977,
2972,-2500,17616,9852,1648,17447,3000,-18000,339000,882989,
3068,-2376,17328,10042,1884,17481,3000,-18000,339000,882992,
3060,-2300,17312,9934,1966,17516,3000,-18000,340000,882994,
3400,-1548,16512,10097,2854,17626,3000,-18000,342000,883007,
3376,-1376,16400,9968,2971,17589,3000,-18000,342000,883009,
3312,-1352,16104,10045,3056,17646,3000,-18000,342000,883011,
3224,-604,15184,9680,3441,17684,4000,-17000,344000,883024,
3080,-760,15408,9519,3455,17662,4000,-17000,344000,883026,
2868,-660,15292,9484,3395,17676,4000,-17000,345000,883028,
3200,-860,14880,9000,2616,17525,4000,-17000,346000,883041,
3344,-956,14888,9108,2523,17551,4000,-17000,347000,883043,
3232,-1112,14620,8908,2402,17449,4000,-17000,347000,883046,
3632,-1488,14244,8784,2652,17220,4000,-17000,349000,883058,
3876,-1576,14156,8782,2743,17193,4000,-17000,349000,883060,
3848,-1552,14280,8790,2787,17219,4000,-17000,350000,883063,
3780,-1400,14220,8658,3336,17175,5000,-17000,351000,883075,
3432,-1336,14092,8512,3340,17189,5000,-17000,352000,883078,
3208,-1180,14200,8559,3447,17204,5000,-17000,352000,883080,
3028,-952,14652,8080,3245,17518,5000,-16000,354000,883093,
2920,-968,14972,8139,3177,17611,5000,-16000,354000,883095,
2932,-1020,14904,7880,2974,17607,5000,-16000,354000,883097,
3308,-1484,14680,7627,2202,17819,5000,-16000,356000,883110,
3424,-1592,14568,7550,2121,17829,5000,-16000,357000,883112,
3568,-1640,14492,7545,2038,17920,5000,-16000,357000,883114,
4744,-1644,13972,7389,2336,17994,5000,-16000,359000,883127,
4656,-1620,14036,7213,2383,17954,5000,-16000,359000,883129,
5012,-1536,13828,7325,2594,17994,5000,-16000,359000,883132,
5612,-1328,13588,6975,3436,17730,5000,-16000,1000,883144,
5640,-1108,13400,7045,3610,17753,5000,-16000,2000,883147,
5660,-1060,13512,6889,3757,17669,5000,-16000,2000,883149,
6088,-552,13504,6583,4551,17452,5000,-16000,4000,883161,
6236,-552,13436,6554,4745,17399,6000,-16000,4000,883164,
6388,-420,13448,6427,4840,17311,6000,-16000,4000,883166,
6380,-136,13352,6040,5523,16840,6000,-16000,6000,883178,
6228,-96,13352,5790,5486,16718,6000,-15000,6000,883181,
6232,-108,13168,5794,5646,16652,6000,-15000,7000,883183,
5780,-136,13264,4980,6033,16196,6000,-15000,8000,883196,
5808,-104,13524,4947,6150,16164,6000,-15000,9000,883198,
5804,-388,13440,4726,6167,16094,6000,-15000,9000,883200,
5464,-1708,13912,4210,6262,16101,5000,-14000,11000,883213,
5212,-1856,14180,4237,6304,16139,5000,-14000,11000,883215,
5380,-1988,14008,4069,6252,16167,5000,-14000,11000,883218,
5232,-2404,14384,4091,6646,16350,5000,-14000,13000,883230,
4868,-2444,14348,3949,6603,16374,5000,-14000,13000,883232,
4700,-2448,14380,4091,6635,16450,5000,-14000,14000,883235,
4352,-2560,14312,4044,5963,16981,5000,-13000,15000,883247,
4364,-2704,14248,4136,5801,17150,5000,-13000,16000,883250,
4312,-2792,14316,4031,5584,17222,5000,-13000,16000,883252,
4168,-3300,14684,4072,4245,17953,5000,-13000,18000,883264,
4072,-3260,14672,4178,4010,18106,5000,-13000,18000,883267,
4292,-3284,14880,4089,3607,18252,5000,-13000,19000,883269,
5512,-3512,14632,4364,2280,18856,5000,-13000,21000,883282,
5816,-3552,14824,4313,2083,18873,5000,-13000,21000,883284,
5788,-3568,14524,4501,1980,18939,5000,-13000,21000,883286,
6576,-3412,13920,4790,1776,19128,5000,-13000,23000,883299,
6796,-3440,13828,4831,1641,19152,5000,-13000,24000,883301,
6992,-3312,13452,4882,1741,19165,5000,-13000,24000,883303,
6664,-3456,13120,5054,1156,19235,5000,-13000,26000,883316,
6448,-3608,13164,5228,1032,19260,4000,-13000,26000,883318,
6332,-3740,13260,5129,739,19281,4000,-13000,27000,883321,
6144,-4180,13416,5223,-1195,19630,4000,-14000,28000,883333,
6376,-4128,13620,5177,-1598,19736,4000,-14000,29000,883335,
6464,-4156,13624,5285,-2031,19867,4000,-14000,29000,883338,
8648,-3760,13432,5290,-4055,20400,4000,-14000,31000,883350,
9208,-3576,13676,5259,-4356,20426,4000,-15000,32000,883353,
9476,-3508,13776,5294,-4534,20466,4000,-15000,32000,883355,
12132,-3228,13828,5111,-3729,19229,4000,-15000,34000,883368,
12276,-3136,13912,5247,-3546,18938,4000,-15000,34000,883370,
12632,-3088,14028,5127,-3456,18507,4000,-16000,35000,883372,
14084,-1744,13944,5411,-3073,16638,4000,-16000,36000,883385,
14156,-1592,14036,5497,-3034,16499,4000,-16000,37000,883387,
14104,-1420,13632,5514,-2921,16374,4000,-16000,37000,883390,
14832,-880,13232,5556,-872,16155,4000,-17000,38000,883402,
15080,-820,12976,5348,-355,15965,4000,-17000,39000,883404,
15416,-784,13012,5433,254,15843,4000,-17000,39000,883407,
15456,316,12380,5084,1646,15535,4000,-17000,41000,883419,
16720,232,11724,4990,1828,15363,4000,-17000,41000,883422,
18312,584,12016,4908,2294,14487,4000,-17000,41000,883424,
18124,2032,10980,4629,2880,13393,4000,-17000,43000,883436,
18292,1948,10652,4435,3323,13029,4000,-17000,43000,883438,
19092,2852,10980,4316,4068,12759,4000,-17000,43000,883441,
18136,4452,10552,3528,4222,11649,4000,-17000,44000,883453,
17268,4236,10700,3122,4355,11495,4000,-17000,44000,883455,
17172,4312,10816,2945,4963,11257,4000,-17000,45000,883458,
15680,3348,11596,1059,5502,9998,4000,-17000,46000,883470,
15272,2940,11836,870,5286,9712,4000,-17000,46000,883472,
15060,2596,11968,563,4852,9371,4000,-17000,46000,883475,
13464,1508,12820,-417,1638,8083,4000,-17000,47000,883487,
13272,1292,12900,-468,1041,8037,4000,-17000,47000,883489,
13520,1352,12888,-638,431,7916,4000,-17000,47000,883492,
15344,1228,13144,-845,-1044,7313,3000,-17000,48000,883504,
15548,1228,13104,-1014,-1009,7199,3000,-17000,48000,883507,
15720,1220,12960,-870,-850,7074,3000,-17000,48000,883509,
16392,812,12832,-789,918,6274,3000,-17000,49000,883521,
16504,924,12972,-721,1293,6100,3000,-17000,49000,883524,
16460,920,12960,-719,1671,5989,3000,-17000,49000,883526,
15612,1300,13496,-690,3266,4975,3000,-17000,49000,883538,
15384,1444,13652,-644,3475,4801,3000,-17000,50000,883541,
14988,1364,13784,-739,3528,4639,3000,-17000,50000,883543,
13368,1240,13948,-817,3258,3836,2000,-17000,50000,883555,
13268,1176,13924,-1008,2969,3693,2000,-17000,50000,883558,
13024,1160,14032,-902,2796,3532,2000,-17000,50000,883560,
12120,816,14196,-1157,1138,2872,2000,-17000,50000,883572,
11844,692,14156,-1106,852,2807,2000,-17000,50000,883575,
11728,596,14084,-1192,498,2755,2000,-17000,51000,883577,
11580,584,14432,-1296,-914,2370,2000,-17000,51000,883589,
11584,684,14528,-1237,-1040,2330,2000,-18000,51000,883592,
11756,592,14624,-1261,-1245,2188,2000,-18000,51000,883594,
11820,352,14952,-1104,-1763,1895,2000,-18000,51000,883607,
11684,204,14916,-1246,-1849,1831,2000,-18000,51000,883609,
11832,272,15076,-1088,-1816,1812,2000,-18000,51000,883611,
11932,344,15172,-969,-1593,1454,1000,-18000,51000,883624,
11872,328,15160,-891,-1489,1305,1000,-18000,51000,883626,
11968,408,14964,-898,-1334,1219,1000,-18000,51000,883629,
11448,656,14948,-817,-446,856,1000,-19000,51000,883641,
11376,784,14752,-687,-178,853,1000,-19000,51000,883643,
11268,744,14888,-804,-104,781,1000,-19000,51000,883646,
10120,780,14780,-757,293,609,1000,-19000,51000,883658,
9848,876,14804,-903,251,582,1000,-19000,51000,883661,
9644,684,14636,-789,264,566,1000,-19000,51000,883663,
9584,668,14644,-931,141,510,1000,-19000,52000,883665,
8844,540,14640,-911,-571,433,1000,-19000,52000,883678,
8772,500,14768,-887,-753,492,1000,-19000,52000,883680,
8748,376,14648,-887,-1030,520,1000,-19000,52000,883682,
9292,800,14756,-794,-1698,461,1000,-19000,52000,883695,
9576,976,14768,-892,-1778,326,1000,-19000,52000,883697,
9736,1004,14740,-785,-1709,274,1000,-19000,52000,883700,
10288,1480,14680,-937,-1210,-254,1000,-19000,52000,883712,
10256,1424,14756,-862,-996,-354,1000,-19000,52000,883714,
10204,1460,14756,-989,-851,-434,1000,-19000,52000,883717,
9564,1360,14544,-1127,99,-898,1000,-20000,51000,883729,
9396,1480,14544,-1183,240,-926,1000,-20000,51000,883731,
9208,1436,14528,-1199,318,-1019,1000,-20000,51000,883734,
8060,1556,14408,-1312,725,-1110,1000,-20000,51000,883746,
8152,1644,14532,-1474,681,-1170,1000,-20000,51000,883748,
8004,1600,14428,-1385,775,-1094,1000,-20000,51000,883751,
7380,1524,14632,-1640,545,-1009,0,-20000,51000,883763,
7244,1472,14692,-1516,521,-1004,0,-20000,51000,883766,
7280,1420,14616,-1665,372,-978,0,-20000,51000,883768,
7312,1308,14784,-1521,380,-956,0,-20000,51000,883770,
7172,944,14808,-1598,-92,-984,0,-20000,51000,883783,
7232,912,14936,-1514,-127,-1030,0,-20000,51000,883785,
