Ax,Ay,Az,Gx,Gy,Gz,Roll,Pitch,Yaw,Timestamp,Target
-260,4360,15380,-1578,87,424,8000,2000,319000,401146,
-416,4160,15556,-1599,214,416,8000,2000,319000,401158,
-512,4136,15616,-1572,248,476,8000,2000,319000,401160,
-504,4108,15780,-1569,187,409,8000,2000,319000,401163,
-252,4016,15568,-1578,26,354,8000,2000,319000,401175,
-352,4008,15872,-1687,-22,334,8000,2000,319000,401177,
-372,4116,15708,-1591,-7,364,8000,2000,319000,401180,
-364,4168,15776,-1744,-91,336,8000,2000,319000,401182,
-464,4244,15788,-1676,-333,323,8000,2000,319000,401194,
-572,4316,15864,-1671,-353,346,8000,2000,319000,401197,
-480,4308,15844,-1713,-433,345,8000,2000,319000,401199,
-332,4460,15924,-1621,-715,293,7000,2000,319000,401211,
-400,4480,15856,-1752,-853,252,7000,2000,319000,401213,
-216,4476,15964,-1635,-839,280,7000,2000,319000,401216,
-388,4432,15920,-1748,-1142,172,7000,2000,319000,401228,
-388,4452,15912,-1758,-1228,116,7000,2000,319000,401231,
-364,4564,15832,-1728,-1290,139,70,5288,15340,-363,
-632,5000,15408,-249,273,194,10000,3000,320000,403156,
-564,5140,15492,-107,582,215,10000,3000,320000,403136,
-720,5196,15512,-239,5,4804,15872,-1705,-1491,6,
152,4792,15972,-1752,-1495,7,7000,1000,319000,401269,
232,4756,15992,-1682,-1427,-115,7000,1000,319000,401282,
348,4612,16100,-1569,-1345,-78,7000,1000,319000,401284,
256,4528,16028,-1680,-1369,-150,7000,1000,319000,401286,
116,4332,16068,-1452,-1252,-285,7000,1000,319000,401299,
100,4268,15916,-1482,-1239,-270,7000,1000,319000,401301,
232,4276,16120,-1386,-1208,-319,7000,1000,319000,401303,
608,4184,16124,-1236,-901,-283,7000,1000,319000,401316,
504,4312,16016,-1331,-949,-277,7000,1000,319000,401318,
528,4340,16092,-1201,-834,-266,7000,1000,319000,401321,
416,4216,16164,-1175,-478,-327,6000,1000,319000,401333,
464,4132,16168,-1090,-376,-366,6000,1000,319000,401335,
416,4140,16244,-1135,-281,-357,6000,1000,319000,401338,
404,4016,16308,-1022,-90,-373,6000,1000,319000,401350,
260,4080,16340,-896,-72,-299,6000,1000,319000,401352,
332,4072,16164,-947,-128,-314,6000,1000,319000,401355,
84,4432,16128,-695,-117,-133,6000,1000,319000,401367,
40,4600,16276,-815,-145,-129,6000,1000,319000,401369,
196,4448,15948,-703,-139,-110,6000,1000,319000,401372,
108,4540,15988,-830,-109,-107,6000,1000,319000,401374,
352,4200,16044,-845,-193,-284,6000,1000,319000,401387,
432,4048,16008,-749,-133,-275,6000,1000,319000,401389,
412,4048,16096,-803,-262,-321,6000,1000,319000,401391,
388,4028,16012,-651,-199,-150,6000,0,319000,401404,
464,4052,16064,-719,-174,-101,6000,0,319000,401406,
292,4036,15948,-652,-141,-39,6000,0,319000,401408,
488,4140,16128,-731,-143,-25,6000,0,319000,401410,
544,4152,16272,-732,16,-34,6000,0,319000,401423,
648,4172,16112,-574,59,-54,6000,0,319000,401425,
540,4228,16120,-725,-59,-90,6000,0,319000,401427,
540,4080,16220,-575,0,-79,6000,0,319000,401430,
352,3876,16172,-681,-231,-108,6000,0,319000,401442,
408,3864,16260,-618,-280,-104,6000,0,319000,401444,
436,3912,16276,-658,-340,-56,6000,0,319000,401447,
648,4124,16144,-643,-490,-38,6000,0,319000,401459,
756,4112,16084,-489,-393,10,6000,0,319000,401461,
736,4236,16100,-627,-471,2,6000,0,319000,401463,
800,4240,16252,-507,-389,-6,6000,0,319000,401466,
680,4240,16260,-602,-445,-55,6000,0,319000,401478,
748,4204,16116,-537,-429,-102,6000,0,319000,401481,
716,4112,16168,-620,-439,-115,6000,0,319000,401483,
708,4116,16136,-566,-396,-174,6000,0,319000,401485,
712,3928,16244,-474,-331,-197,6000,0,319000,401498,
652,3944,16380,-588,-405,-215,6000,0,319000,401500,
580,3952,16288,-475,-343,-233,6000,0,319000,401502,
512,3920,16196,-509,-367,-146,6000,0,319000,401515,
488,3864,16244,-506,-389,-216,6000,0,319000,401517,
472,3872,16320,-499,-378,-167,6000,0,319000,401519,
632,3788,16372,-445,-398,-216,6000,0,319000,401521,
636,3792,16288,-294,-160,-231,6000,0,319000,401534,
572,3780,16256,-436,-191,-245,6000,0,319000,401536,
568,3832,16232,-279,-128,-209,6000,0,319000,401538,
520,3908,16020,-258,-46,-208,6000,0,319000,401551,
520,3948,16212,-245,-54,-251,6000,0,319000,401553,
492,3936,16120,-230,21,-232,6000,0,319000,401555,
500,3872,16196,-206,57,-235,6000,0,319000,401558,
572,4120,16008,-39,331,-241,6000,0,319000,401570,
440,4168,15944,-161,270,-268,6000,0,319000,401572,
536,4200,15916,-22,367,-211,6000,0,319000,401575,
460,4064,16008,-149,304,-243,6000,0,319000,401577,
412,4352,16036,-10,372,-158,6000,0,319000,401589,
92,4288,15864,-70,399,-100,6000,0,319000,401592,
284,4212,15808,2,397,-154,6000,0,319000,401594,
220,4256,15816,-88,420,-128,6000,0,319000,401596,
240,4320,15868,-11,383,-162,6000,0,319000,401608,
312,4280,15804,57,412,-82,6000,0,319000,401611,
168,4248,15780,-7,367,-151,6000,0,319000,401613,
188,4280,15840,62,383,-88,6000,0,319000,401615,
80,4324,15924,38,220,-50,6000,0,319000,401628,
156,4428,15820,160,265,-65,7000,0,319000,401630,
312,4304,15880,50,186,-50,7000,0,319000,401632,
228,4336,15844,208,180,-71,7000,0,319000,401635,
412,4440,15656,260,344,-70,7000,0,319000,401647,
412,4372,15684,188,289,-102,7000,0,319000,401649,
572,4436,15652,294,413,-54,7000,0,319000,401652,
488,4368,15640,191,385,-55,7000,0,319000,401654,
248,4424,15420,334,679,63,7000,0,319000,401666,
244,4464,15568,243,679,88,7000,0,319000,401669,
380,4524,15396,341,753,63,7000,0,319000,401671,
396,4448,15588,259,759,88,7000,0,319000,401673,
264,4444,15380,256,885,70,7000,0,319000,401686,
136,4388,15432,378,946,144,7000,0,319000,401688,
172,4384,15516,262,887,99,7000,0,319000,401690,
244,4396,15360,361,958,163,7000,0,319000,401693,
40,4212,15324,240,952,165,7000,0,319000,401705,
4,4148,15328,326,978,146,7000,0,319000,401707,
20,4116,15200,218,985,178,7000,0,319000,401710,
36,4248,15212,319,1052,167,7000,1000,319000,401712,
208,4292,15128,295,1028,221,7000,1000,319000,401724,
224,4284,14976,150,1001,151,7000,1000,319000,401727,
284,4228,15056,244,1090,211,7000,1000,319000,401729,
116,4324,15068,145,1034,180,7000,1000,319000,401731,
-120,4112,15144,128,1066,228,7000,1000,319000,401744,
-104,4160,15140,45,1097,264,7000,1000,319000,401746,
-164,4216,14976,69,1103,251,7000,1000,319000,401748,
-48,4296,14880,102,985,444,7000,1000,319000,401761,
-104,4324,14992,-52,917,453,7000,1000,319000,401763,
-124,4372,15032,78,959,443,7000,1000,319000,401765,
-108,4424,14980,-115,851,456,7000,1000,319000,401768,
-16,4436,14868,-175,690,467,7000,1000,319000,401780,
-124,4520,14948,-206,661,482,7000,1000,319000,401782,
-84,4396,14896,-187,608,434,7000,1000,319000,401785,
16,4364,14872,-214,454,484,7000,1000,319000,401797,
56,4428,14812,-359,347,436,7000,1000,319000,401799,
180,4416,14896,-247,352,500,7000,1000,319000,401802,
112,4348,14776,-398,266,463,7000,1000,319000,401804,
136,4504,14984,-466,71,515,7000,1000,319000,401816,
80,4484,15152,-508,78,519,7000,1000,319000,401819,
152,4632,15144,-532,39,476,7000,1000,319000,401821,
332,4612,15212,-555,-65,350,7000,1000,319000,401833,
240,4580,15256,-726,-132,348,7000,1000,319000,401836,
240,4528,15188,-599,-92,326,7000,1000,319000,401838,
284,4476,15316,-743,-189,315,7000,1000,319000,401840,
300,4568,15280,-780,-349,291,7000,1000,319000,401853,
216,4524,15140,-751,-322,379,7000,1000,319000,401855,
308,4528,15368,-798,-375,313,7000,1000,319000,401857,
724,4680,15536,-683,-182,259,7000,1000,319000,401870,
684,4596,15396,-827,-239,262,7000,1000,319000,401872,
668,4676,15356,-693,-168,248,7000,1000,319000,401874,
736,4596,15492,-826,-189,213,7000,1000,319000,401877,
612,4684,15516,-768,-23,255,7000,1000,319000,401889,
516,4540,15540,-738,31,283,7000,1000,319000,401891,
456,4652,15552,-793,40,265,7000,1000,319000,401894,
568,4484,15504,-635,215,292,7000,1000,319000,401906,
624,4528,15656,-756,121,261,7000,1000,319000,401908,
624,4580,15632,-632,203,248,7000,1000,319000,401911,
520,4484,15700,-751,135,262,7000,1000,319000,401913,
368,4428,15736,-670,179,286,7000,1000,319000,401926,
352,4460,15688,-625,240,339,7000,1000,319000,401928,
464,4592,15652,-659,207,300,7000,1000,319000,401930,
632,4524,15620,-522,326,430,7000,1000,320000,401943,
544,4432,15608,-675,298,424,7000,1000,320000,401945,
480,4532,15684,-515,359,421,7000,1000,320000,401947,
604,4476,15648,-646,331,417,7000,1000,320000,401949,
236,4364,15784,-525,380,440,7000,1000,320000,401962,
296,4344,15860,-508,411,484,7000,1000,320000,401964,
196,4372,15788,-533,388,419,7000,1000,320000,401966,
412,4356,15796,-413,379,475,7000,1000,320000,401979,
276,4284,15652,-557,333,480,7000,1000,320000,401981,
376,4288,15756,-411,369,506,7000,1000,320000,401983,
400,4260,15744,-543,268,495,7000,1000,320000,401986,
460,4264,15524,-429,215,413,7000,1000,320000,401998,
420,4192,15640,-539,167,461,7000,1000,320000,402000,
328,4316,15532,-470,162,368,7000,1000,320000,402003,
464,4304,15640,-484,148,310,7000,1000,320000,402015,
492,4312,15708,-580,60,247,7000,1000,320000,402017,
508,4368,15936,-480,127,283,7000,1000,320000,402020,
520,4356,15692,-603,36,221,7000,1000,320000,402022,
336,4276,15864,-501,-6,146,7000,1000,320000,402035,
376,4192,15696,-609,-14,150,7000,1000,320000,402037,
616,4300,15756,-540,-7,112,7000,1000,320000,402039,
796,4364,15652,-515,64,32,7000,1000,320000,402052,
752,4308,15612,-640,2,-34,7000,1000,320000,402054,
636,4296,15476,-510,111,-30,7000,1000,320000,402056,
752,4380,15608,-658,36,-82,7000,1000,320000,402059,
532,4116,15796,-572,108,-268,7000,1000,320000,402071,
632,4192,15588,-592,125,-261,7000,1000,320000,402073,
564,4164,15812,-540,161,-276,7000,1000,320000,402076,
692,4380,15728,-452,330,-290,7000,1000,320000,402088,
556,4376,15856,-597,272,-334,7000,1000,320000,402090,
676,4412,15732,-475,368,-290,7000,1000,320000,402092,
572,4340,15720,-567,317,-336,7000,1000,320000,402095,
452,4488,15620,-450,435,-390,7000,1000,320000,402107,
388,4564,15736,-584,435,-419,7000,1000,320000,402109,
304,4556,15684,-467,463,-399,7000,1000,320000,402112,
392,4648,15856,-497,413,-443,7000,1000,320000,402124,
480,4612,15760,-580,334,-508,7000,1000,320000,402127,
412,4660,15892,-498,329,-473,7000,1000,320000,402129,
140,4576,15748,-624,122,-562,7000,1000,320000,402141,
68,4532,15768,-487,157,-588,7000,1000,320000,402143,
92,4444,15760,-627,57,-638,7000,1000,320000,402146,
100,4444,15888,-488,133,-623,7000,1000,320000,402148,
128,4552,15764,-548,-36,-635,7000,1000,320000,402160,
128,4532,15848,-570,-74,-679,7000,1000,320000,402163,
180,4504,15864,-506,-64,-646,7000,1000,319000,402165,
-48,4596,15876,-562,-77,-601,7000,1000,319000,402177,
-16,4560,15620,-414,-27,-661,7000,1000,319000,402180,
168,4616,15664,-519,-47,-595,7000,1000,319000,402182,
20,4632,15892,-420,48,-657,7000,1000,319000,402184,
76,4640,15784,-367,255,-556,7000,1000,319000,402197,
72,4636,15708,-426,220,-596,7000,1000,319000,402199,
112,4644,15708,-355,322,-561,7000,1000,319000,402202,
-8,4600,15536,-364,521,-486,7000,1000,319000,402214,
-40,4564,15488,-278,610,-456,7000,1000,319000,402216,
64,4676,15480,-362,615,-457,7000,1000,319000,402219,
-84,4760,15672,-255,720,-421,7000,1000,319000,402221,
-88,4836,15508,-219,976,-325,7000,1000,319000,402233,
-12,4800,15528,-333,981,-334,7000,1000,319000,402236,
-124,4752,15568,-211,1052,-310,7000,1000,319000,402238,
-364,4688,15428,-313,1096,-339,7000,1000,319000,402250,
-404,4608,15556,-200,1111,-371,7000,1000,319000,402253,
-392,4664,15668,-319,1051,-354,7000,1000,319000,402255,
-472,4516,15732,-316,903,-382,7000,1000,319000,402267,
-564,4584,15684,-274,908,-379,7000,1000,319000,402270,
-524,4612,15720,-281,857,-402,7000,1000,319000,402272,
-688,4392,15804,-162,772,-348,8000,1000,319000,402284,
-620,4332,15584,-284,731,-349,8000,1000,319000,402287,
-676,4308,15508,-199,748,-355,8000,1000,319000,402289,
-552,4360,15648,-254,727,-334,8000,1000,319000,402291,
-424,4324,15560,-257,924,-256,8000,2000,319000,402304,
-604,4144,15520,-197,1063,-182,8000,2000,319000,402306,
-392,4160,15468,-259,1071,-213,8000,2000,319000,402308,
-656,4108,15540,-161,1434,-67,8000,2000,319000,402321,
-576,4000,15480,-260,1408,-59,8000,2000,319000,402323,
-624,4096,15424,-175,1462,-44,8000,2000,319000,402325,
-924,3940,15508,-192,1390,70,8000,2000,319000,402338,
-1068,3836,15584,-249,1311,58,8000,2000,319000,402340,
-1132,3808,15528,-205,1327,148,8000,2000,319000,402342,
-1164,3908,15640,-247,1008,213,8000,2000,319000,402355,
-1104,3792,15672,-115,1013,255,8000,2000,319000,402357,
-1032,3992,15760,-224,878,300,8000,2000,319000,402359,
-752,4296,15824,-223,725,457,8000,2000,319000,402372,
-728,4348,15744,-188,716,525,8000,2000,319000,402374,
-704,4292,15948,-215,666,507,8000,2000,319000,402376,
-640,4412,15832,-134,693,595,8000,2000,319000,402379,
-564,4572,15856,-242,493,724,8000,2000,319000,402391,
-748,4556,15808,-83,548,780,8000,2000,319000,402393,
-644,4628,15744,-210,470,793,8000,2000,319000,402396,
-468,4920,15608,-173,161,1017,8000,2000,320000,402408,
-312,4972,15624,-177,115,1100,8000,2000,320000,402410,
-200,4980,15600,-149,68,1057,8000,2000,320000,402413,
-232,4952,15680,-195,54,1113,8000,2000,320000,402415,
-128,4872,15544,-200,-236,1084,8000,2000,320000,402427,
-80,5000,15512,-77,-178,1115,8000,2000,320000,402430,
-84,4928,15484,-207,-268,1124,8000,2000,320000,402432,
428,5004,15696,-196,-246,1085,8000,2000,320000,402444,
472,5064,15648,-243,-249,1072,8000,2000,320000,402447,
412,5076,15656,-205,-242,1030,8000,2000,320000,402449,
472,4776,15560,-136,-146,829,8000,2000,320000,402462,
596,4880,15616,-278,-159,776,8000,2000,320000,402464,
680,4692,15724,-104,-78,752,8000,2000,320000,402466,
672,4724,15920,-250,-102,686,8000,2000,320000,402468,
872,4704,15624,-129,113,527,8000,2000,320000,402481,
836,4664,15664,-174,130,557,8000,2000,320000,402483,
840,4616,15608,-146,196,485,8000,2000,320000,402485,
672,4640,15760,-58,502,341,8000,2000,320000,402498,
800,4676,15696,-165,471,280,8000,2000,320000,402500,
724,4608,15512,-3,610,239,8000,2000,320000,402502,
804,4576,15508,-154,598,213,8000,2000,320000,402505,
616,4520,15600,-69,812,8,8000,2000,320000,402517,
548,4516,15424,-73,841,9,8000,2000,320000,402519,
580,4516,15556,-35,874,-54,8000,2000,320000,402522,
444,4572,15576,-45,885,-62,8000,2000,320000,402524,
160,4416,15480,-84,986,-95,8000,2000,320000,402536,
156,4324,15452,81,1056,-60,8000,2000,320000,402539,
168,4436,15456,-83,1030,-123,8000,2000,320000,402541,
284,4436,15420,47,1198,-154,8000,2000,320000,402553,
188,4472,15516,2,1206,-119,8000,2000,320000,402556,
164,4444,15404,59,1206,-141,8000,2000,320000,402558,
116,4356,15408,29,1231,-88,8000,2000,320000,402560,
-324,4396,15444,-27,1229,-22,8000,2000,320000,402573,
-316,4452,15380,99,1297,14,8000,2000,320000,402575,
-376,4440,15320,-19,1226,16,8000,2000,320000,402577,
-516,4680,15548,20,1100,132,8000,3000,320000,402590,
-640,4616,15684,-2,1049,199,8000,3000,320000,402592,
-728,4544,15580,14,998,192,8000,3000,320000,402594,
-708,4584,15624,-6,914,248,8000,3000,320000,402597,
-916,4512,15796,-54,410,265,8000,3000,320000,402609,
-952,4520,15532,85,377,251,8000,3000,320000,402611,
-1036,4512,15800,-88,249,303,8000,3000,320000,402613,
-744,4548,15576,44,-127,277,9000,3000,320000,402626,
-576,4552,15652,41,-185,320,9000,3000,320000,402628,
-556,4648,15584,46,-232,323,9000,3000,320000,402631,
-460,4624,15612,24,-253,362,9000,3000,320000,402633,
-388,4788,15872,-40,-260,401,9000,3000,320000,402645,
-420,4808,15700,149,-189,429,9000,3000,320000,402648,
-144,4784,15676,19,-245,446,9000,3000,320000,402650,
-80,4848,15780,130,-143,375,9000,2000,320000,402662,
-100,4864,15756,170,-78,427,9000,2000,320000,402665,
-44,5040,15592,137,-126,336,9000,2000,320000,402667,
-136,4928,15752,147,-76,363,9000,2000,320000,402669,
-92,5132,15796,213,-95,175,9000,2000,320000,402686,
-372,5244,15260,-409,328,-22,10000,3000,320000,403437,
-484,5316,15224,-390,395,12,10000,3000,320000,403440,
-268,5376,15124,-544,389,7,10000,3000,320000,403452,
-392,5352,15240,-418,407,-4,10000,3000,320000,403455,
-440,5320,15364,-529,378,-20,10000,3000,320000,403457,
-680,5160,15240,-579,231,-48,10000,3000,320000,403469,
-644,5088,15268,-470,232,4,10000,3000,320000,403472,
-828,5116,15156,-552,152,-13,10000,3000,320000,403474,
-856,5204,15328,-508,175,77,10000,3000,320000,403476,
-584,5336,15244,-632,-79,54,10000,3000,320000,403489,
-488,5212,15212,-508,-43,8,10000,3000,320000,403491,
-376,5188,15424,-644,-97,-25,10000,3000,320000,403493,
-552,5084,15304,-615,-123,-121,10000,3000,320000,403506,
-532,5012,15440,-553,-93,-61,10000,3000,320000,403508,
-572,5000,15424,-610,-134,-149,10000,3000,320000,403510,
-412,5040,15356,-518,-56,-41,10000,3000,320000,403523,
-356,5168,15504,-600,-78,-36,10000,3000,320000,403525,
-240,5104,15292,-561,-58,-39,10000,3000,320000,403527,
-436,5124,15336,-506,88,43,10000,3000,320000,403540,
-488,5116,15200,-618,57,2,10000,3000,320000,403542,
-548,4912,15252,-503,147,2,10000,3000,320000,403544,
-404,5024,15276,-639,107,-6,10000,3000,320000,403547,
-464,5056,15392,-511,142,-51,10000,3000,320000,403559,
-400,5004,15364,-574,78,-45,10000,3000,320000,403561,
-512,5032,15560,-530,96,-84,10000,3000,320000,403564,
-776,4940,15540,-476,40,-20,10000,3000,320000,403576,
-532,5064,15548,-567,-41,-40,10000,3000,320000,403578,
-612,4996,15536,-470,40,-16,10000,3000,320000,403581,
-456,5048,15524,-575,-62,-56,10000,3000,320000,403583,
-140,5072,15512,-446,65,-9,10000,3000,320000,403595,
-248,5056,15504,-548,61,22,10000,3000,320000,403598,
-164,5128,15504,-447,136,9,10000,3000,320000,403600,
-228,5084,15648,-469,389,101,10000,3000,320000,403612,
-132,5172,15456,-536,358,40,10000,3000,320000,403615,
-288,5052,15292,-480,422,104,10000,3000,320000,403617,
-392,5152,15408,-594,321,102,10000,3000,320000,403629,
-348,5160,15464,-455,354,59,10000,3000,320000,403632,
-428,5260,15436,-588,246,142,10000,3000,320000,403634,
-552,5328,15352,-655,7,141,10000,3000,320000,403646,
-436,5240,15468,-582,-45,154,10000,3000,320000,403649,
-624,5240,15364,-667,-127,120,10000,3000,320000,403651,
-472,5252,15312,-582,-152,167,10000,3000,320000,403653,
-264,5328,15616,-723,-475,75,10000,3000,320000,403666,
-92,5304,15512,-606,-487,69,10000,3000,320000,403668,
-228,5280,15480,-705,-523,112,10000,3000,320000,403670,
-256,5140,15628,-706,-593,11,10000,3000,320000,403683,
-292,5056,15616,-585,-549,89,10000,3000,320000,403685,
-232,5128,15476,-644,-648,70,10000,3000,320000,403687,
84,5260,15588,-521,-685,45,10000,3000,320000,403700,
-32,5248,15596,-631,-718,14,10000,3000,320000,403702,
60,5228,15628,-512,-646,16,10000,3000,320000,403704,
184,5220,15644,-600,-688,33,10000,3000,320000,403707,
168,5276,15836,-546,-538,-48,10000,2000,320000,403719,
148,5292,15712,-417,-424,-30,10000,2000,320000,403721,
180,5200,15824,-540,-473,-85,10000,2000,320000,403724,
244,5200,15680,-299,-164,-59,10000,2000,320000,403736,
72,5088,15764,-409,-209,-75,10000,2000,320000,403738,
204,5024,15576,-270,-168,-69,10000,2000,320000,403741,
-44,5080,15520,-260,-117,-118,10000,2000,320000,403753,
12,5152,15608,-251,-148,-160,10000,2000,320000,403755,
20,5172,15648,-234,-89,-151,10000,2000,320000,403758,
-96,5124,15528,-229,-138,-180,10000,2000,320000,403760,
276,5192,15812,-82,-41,-230,10000,2000,320000,403773,
172,5212,15876,-194,-102,-234,10000,2000,320000,403775,
400,5216,15688,-83,-54,-249,10000,2000,320000,403777,
448,5160,15780,-65,79,-248,10000,2000,320000,403790,
312,5160,15816,-77,105,-325,10000,2000,320000,403792,
360,5132,15792,14,217,-280,10000,2000,320000,403794,
424,5316,15904,50,409,-337,10000,2000,320000,403807,
532,5396,15900,171,461,-317,10000,2000,320000,403809,
488,5412,16064,68,424,-310,10000,2000,320000,403811,
448,5420,16016,200,509,-321,10000,2000,320000,403813,
436,5360,16288,190,465,-427,10000,2000,320000,403826,
460,5348,16300,200,404,-513,10000,2000,320000,403828,
344,5368,16284,258,396,-522,10000,2000,320000,403831,
588,5396,16488,290,276,-692,10000,2000,320000,403843,
740,5436,16512,473,318,-704,10000,2000,320000,403845,
528,5312,16476,349,243,-745,10000,2000,320000,403848,
724,5440,16548,523,298,-784,10000,2000,320000,403850,
800,5324,16616,519,91,-977,10000,2000,320000,403862,
1064,5468,16604,517,26,-1094,10000,2000,320000,403865,
1084,5380,16588,603,30,-1139,10000,2000,320000,403867,
1368,5392,16828,601,-140,-1590,11000,2000,320000,403880,
1332,5428,16756,788,-76,-1682,11000,2000,320000,403882,
1400,5448,16916,669,-159,-1747,11000,2000,320000,403884,
1560,5168,16940,832,-137,-2072,11000,2000,319000,403897,
1616,5152,17004,866,-73,-2086,11000,2000,319000,403899,
1560,5116,16932,872,-98,-2151,11000,2000,319000,403901,
1348,4932,16996,1120,290,-2364,11000,2000,319000,403914,
1356,4980,16880,1001,275,-2407,11000,2000,319000,403916,
1540,4964,16756,1166,342,-2463,11000,2000,319000,403918,
1480,4992,16636,1212,276,-2695,11000,2000,319000,403931,
1452,4932,16660,1173,204,-2789,11000,2000,319000,403933,
1324,4784,16576,1225,210,-2778,11000,2000,319000,403935,
1088,4788,16416,1200,154,-3134,11000,2000,318000,403948,
1240,4836,16376,1327,158,-3193,11000,2000,318000,403950,
1436,4652,16340,1239,121,-3203,11000,2000,318000,403952,
1244,4708,16272,1354,-221,-3398,11000,2000,318000,403965,
1164,4628,16100,1445,-211,-3376,11000,2000,318000,403967,
1260,4680,16084,1350,-365,-3477,11000,2000,318000,403970,
1316,4780,15920,1524,-633,-3695,12000,2000,318000,403982,
1280,4824,15984,1445,-728,-3703,12000,2000,317000,403984,
1312,4732,16016,1522,-728,-3768,12000,2000,317000,403987,
1540,4796,15620,1605,-846,-3868,12000,2000,317000,403999,
1616,4760,15512,1536,-935,-3957,12000,2000,317000,404001,
1792,4796,15484,1633,-911,-3906,12000,2000,317000,404004,
1776,4976,15212,1519,-1015,-4066,12000,2000,316000,404016,
1716,4928,14976,1595,-955,-4136,12000,2000,316000,404018,
1848,5032,14940,1449,-1003,-4154,12000,2000,316000,404021,
2032,4900,14472,1420,-988,-4498,12000,2000,316000,404033,
2236,5016,14576,1460,-892,-4486,12000,2000,316000,404036,
2180,4896,14432,1385,-962,-4603,12000,2000,316000,404038,
2204,4888,14236,1389,-940,-4821,12000,2000,315000,404050,
2332,4880,14056,1230,-1051,-4862,12000,2000,315000,404052,
2212,4876,14144,1341,-1013,-4935,13000,2000,315000,404055,
2608,4788,13796,1102,-993,-5233,13000,2000,315000,404067,
2472,4732,13464,1178,-1003,-5290,13000,2000,315000,404069,
2632,4768,13528,1067,-1017,-5352,13000,2000,314000,404072,
2604,4848,13136,861,-1050,-5615,13000,2000,314000,404084,
2556,4860,12936,905,-983,-5665,13000,2000,314000,404087,
2584,4776,12796,744,-1093,-5720,13000,2000,314000,404089,
2820,4840,12628,523,-1269,-6163,13000,2000,313000,404101,
2944,4956,12680,398,-1275,-6196,13000,2000,313000,404104,
2936,4984,12544,370,-1304,-6273,13000,2000,313000,404106,
2640,4736,12040,79,-1355,-6739,13000,2000,312000,404119,
2728,4772,12044,-110,-1460,-6780,13000,2000,312000,404121,
2660,4796,12064,-27,-1492,-6833,13000,2000,312000,404123,
2620,4880,11648,-517,-1702,-7213,13000,2000,311000,404136,
2624,4816,11692,-637,-1764,-7345,13000,2000,311000,404138,
2536,4832,11744,-670,-1765,-7362,13000,2000,311000,404140,
2304,4524,11388,-1144,-1913,-7907,13000,1000,310000,404153,
2116,4612,11376,-1088,-1865,-7994,13000,1000,310000,404155,
2108,4632,11336,-1285,-1871,-8082,13000,1000,310000,404157,
1944,4324,11112,-1611,-1672,-8623,13000,1000,309000,404170,
1860,4328,11140,-1684,-1625,-8622,13000,1000,309000,404172,
1740,4224,10948,-1771,-1615,-8760,13000,1000,309000,404174,
1104,4140,10920,-2058,-1337,-9149,12000,1000,308000,404187,
920,4140,10636,-2275,-1324,-9185,12000,1000,308000,404189,
924,4120,10644,-2190,-1190,-9237,12000,1000,308000,404192,
464,4028,10076,-2698,-729,-9430,12000,2000,307000,404204,
276,3948,10060,-2818,-727,-9557,12000,2000,306000,404206,
56,3864,10052,-2894,-631,-9513,12000,2000,306000,404209,
-604,3636,9192,-3474,-345,-9665,12000,2000,305000,404221,
-640,3636,9056,-3484,-227,-9679,12000,2000,305000,404223,
-728,3652,8904,-3737,-265,-9646,12000,2000,305000,404226,
-1572,3636,8972,-4294,-5,-9777,11000,2000,304000,404238,
-1956,3496,8908,-4366,74,-9741,11000,2000,304000,404240,
-2132,3404,8712,-4513,97,-9820,11000,2000,304000,404243,
-3192,2884,8744,-5028,189,-9816,11000,2000,303000,404255,
-3228,2748,8284,-5255,100,-9789,10000,3000,303000,404257,
-3464,2788,8348,-5250,123,-9712,10000,3000,303000,404260,
-4088,3032,8668,-5859,-110,-9168,10000,3000,302000,404272,
-4524,3168,8716,-6088,-167,-9103,10000,3000,302000,404274,
-4464,3260,8572,-6079,-125,-8904,10000,3000,301000,404277,
-5260,3836,8780,-6830,-258,-8352,9000,3000,301000,404289,
-5444,3916,8868,-6977,-244,-8299,9000,3000,300000,404292,
-5596,3976,8616,-7112,-153,-8137,9000,3000,300000,404294,
-6688,3720,8928,-7979,-99,-7466,8000,4000,300000,404306,
-6820,3832,8680,-7992,-62,-7344,8000,4000,300000,404309,
-6668,3524,8740,-8309,-66,-7276,8000,4000,299000,404311,
-7072,2728,8528,-8934,-134,-6521,7000,4000,299000,404323,
-7240,2564,8768,-9046,-149,-6266,7000,4000,299000,404326,
-7364,2560,8640,-9154,-185,-6089,7000,4000,299000,404328,
-7976,2840,9168,-9644,127,-4789,6000,4000,298000,404340,
-8052,3060,9108,-9902,99,-4565,5000,4000,298000,404343,
-7928,2944,9324,-9883,218,-4302,5000,4000,298000,404345,
-9008,2804,10728,-10520,807,-3209,4000,5000,298000,404358,
-9384,2720,10724,-10630,958,-3050,4000,5000,298000,404360,
-9576,2640,10716,-10682,1091,-2809,4000,5000,298000,404362,
-10664,1920,10760,-11217,1419,-1637,3000,5000,297000,404375,
-10616,1928,10780,-11180,1478,-1399,3000,5000,297000,404377,
-10536,1808,10808,-11386,1411,-1197,3000,5000,297000,404379,
-11252,1584,11876,-11749,1226,72,1000,6000,297000,404392,
-11344,1600,12188,-11756,1284,315,1000,6000,297000,404394,
-11428,1576,12344,-11854,1239,591,1000,6000,297000,404396,
-12080,1768,13908,-11969,1331,2014,0,6000,298000,404409,
-12240,1888,14380,-12058,1289,2258,0,6000,298000,404411,
-12144,1700,14520,-12015,1290,2508,0,6000,298000,404414,
-11908,2028,15112,-11981,1218,3624,-1000,7000,298000,404426,
-12048,2060,15292,-12100,1160,3762,-1000,7000,298000,404429,
-12052,1944,15356,-11942,1301,3960,-1000,7000,298000,404431,
-12796,1304,16292,-11947,1511,5104,-2000,7000,299000,404443,
-12936,1180,16344,-11897,1568,5364,-2000,7000,299000,404446,
-12944,1052,16312,-11925,1559,5629,-2000,7000,299000,404448,
-13384,716,17156,-11645,1372,7162,-3000,8000,300000,404461,
-13252,876,17300,-11496,1374,7473,-4000,8000,300000,404463,
-13268,924,17448,-11554,1269,7687,-4000,8000,300000,404465,
-13556,1032,18660,-11324,1023,9034,-5000,8000,301000,404478,
-13492,1112,18948,-11277,946,9238,-5000,8000,301000,404480,
-13504,1140,19396,-11198,873,9473,-5000,8000,301000,404483,
-13492,600,21228,-10716,8,10523,-6000,8000,302000,404495,
-13604,516,21332,-10773,-301,10691,-6000,8000,302000,404497,
-13524,396,21576,-10512,-437,10958,-6000,8000,302000,404500,
-12816,-260,22664,-9883,-1390,12057,-7000,9000,304000,404512,
-12600,-344,22756,-9770,-1557,12256,-7000,9000,304000,404515,
-12360,-428,23012,-9567,-1593,12490,-7000,9000,304000,404517,
-11796,-1124,23452,-8800,-1725,13528,-8000,9000,305000,404529,
-11732,-1264,23444,-8556,-1675,13727,-8000,9000,306000,404532,
-11392,-1280,23368,-8466,-1698,13881,-8000,9000,306000,404534,
-10672,-1328,23680,-7706,-1776,15009,-8000,9000,307000,404547,
-10404,-1344,23808,-7428,-1764,15236,-9000,9000,308000,404549,
-9620,-1700,24828,-6698,-2336,16130,-9000,9000,309000,404562,
-9500,-1776,25120,-6524,-2448,16252,-9000,9000,310000,404564,
-9380,-1984,25164,-6350,-2490,16356,-9000,9000,310000,404566,
-8288,-2580,25144,-5393,-2889,17018,-9000,9000,312000,404579,
-8232,-2680,25136,-5026,-2923,17239,-9000,9000,312000,404581,
-8224,-2972,24900,-4973,-3037,17318,-9000,9000,312000,404583,
-7100,-3476,24584,-3976,-3309,17954,-9000,9000,314000,404596,
-6752,-3392,24500,-3784,-3322,17995,-9000,9000,314000,404598,
-6728,-3500,24432,-3669,-3443,18135,-9000,9000,315000,404601,
-5540,-3308,23480,-2741,-3640,18475,-9000,9000,316000,404613,
-5568,-3184,23532,-2705,-3671,18462,-9000,9000,317000,404616,
-5520,-3144,23644,-2463,-3682,18546,-9000,9000,317000,404618,
-4348,-3112,23720,-1861,-3937,18625,-9000,9000,319000,404631,
-4172,-3144,23756,-1809,-4062,18582,-9000,9000,319000,404633,
-3208,-3644,24012,-995,-4262,18358,-9000,9000,321000,404645,
-3064,-3712,24024,-911,-4286,18252,-9000,9000,322000,404648,
-2900,-3716,24028,-686,-4284,18221,-9000,9000,322000,404650,
-1460,-3736,23288,80,-3851,17942,-8000,9000,324000,404663,
-1204,-3892,23152,74,-3829,17901,-8000,9000,324000,404665,
-1116,-3712,22940,349,-3607,17867,-8000,9000,324000,404667,
32,-3608,22620,979,-2816,17561,-8000,9000,326000,404680,
80,-3568,22640,1091,-2764,17506,-8000,9000,326000,404682,
576,-3416,22440,1155,-2587,17381,-8000,9000,327000,404684,
1344,-3312,22292,1644,-2341,16846,-7000,9000,328000,404697,
1688,-3324,22304,1780,-2290,16719,-7000,9000,329000,404699,
1704,-3284,22372,1916,-2254,16578,-7000,9000,329000,404702,
2500,-3196,22324,2413,-2352,15765,-7000,8000,330000,404714,
2792,-3104,22472,2625,-2316,15640,-7000,8000,331000,404716,
2876,-3180,22492,2600,-2355,15445,-7000,8000,331000,404719,
3516,-3312,22728,3275,-2436,14659,-6000,8000,332000,404731,
3488,-3340,22776,3443,-2395,14494,-6000,8000,333000,404734,
3756,-3232,22720,3523,-2465,14330,-6000,8000,333000,404736,
4712,-3300,22800,4224,-2483,13464,-5000,8000,334000,404749,
4836,-3292,22784,4216,-2490,13278,-5000,8000,335000,404751,
4976,-3308,22816,4431,-2445,13121,-5000,8000,335000,404753,
5800,-3384,22408,4965,-2246,12074,-4000,8000,336000,404766,
5896,-3288,22348,4994,-2275,11797,-4000,8000,336000,404768,
6104,-3236,22196,5186,-2201,11590,-4000,8000,336000,404770,
6752,-3288,21984,5634,-2039,10383,-4000,7000,337000,404783,
6692,-3364,22084,5828,-2037,10190,-3000,7000,338000,404785,
6768,-3260,22092,5819,-2048,9958,-3000,7000,338000,404787,
6800,-3660,21888,6377,-2287,8857,-3000,7000,339000,404800,
6984,-3632,21556,6559,-2287,8689,-3000,7000,339000,404802,
7048,-3692,21680,6571,-2389,8474,-2000,7000,339000,404805,
7400,-3660,21396,7140,-2668,7408,-2000,6000,340000,404817,
7436,-3636,21336,7129,-2701,7219,-2000,6000,340000,404819,
7468,-3560,21204,7308,-2796,6985,-1000,6000,340000,404822,
7532,-3552,20572,7815,-2819,5957,-1000,6000,340000,404834,
7976,-3492,20528,7765,-2905,5721,-1000,6000,341000,404836,
7876,-3420,20592,7986,-2840,5569,0,6000,341000,404839,
8400,-3128,20108,8265,-2551,4546,0,5000,341000,404851,
8320,-3152,20076,8359,-2524,4318,0,5000,341000,404853,
8492,-3052,20132,8426,-2351,4162,0,5000,341000,404856,
8336,-2776,19700,8645,-1771,3089,1000,5000,342000,404868,
8452,-2720,19460,8828,-1642,2918,1000,5000,342000,404870,
8448,-2740,19400,8716,-1656,2740,1000,5000,342000,404873,
8508,-2508,18916,9000,-1084,1856,2000,4000,342000,404885,
8476,-2352,18716,9047,-897,1687,2000,4000,342000,404887,
8568,-2380,18584,9053,-892,1521,2000,4000,342000,404890,
8132,-2020,18036,9250,-584,615,3000,4000,342000,404902,
8064,-2084,17948,9156,-622,476,3000,4000,342000,404904,
7832,-2040,17932,9312,-574,338,3000,4000,342000,404907,
7996,-1792,17144,9410,-659,-522,4000,4000,342000,404919,
7976,-1604,17076,9352,-767,-749,4000,4000,342000,404921,
8016,-1572,16968,9428,-773,-861,4000,4000,342000,404924,
7764,-1112,16224,9388,-899,-1860,5000,3000,342000,404936,
7808,-1168,16060,9524,-849,-2040,5000,3000,342000,404938,
7820,-1004,15956,9397,-818,-2196,5000,3000,342000,404941,
7892,-560,15584,9332,-693,-3118,6000,3000,341000,404953,
7856,-404,15392,9327,-643,-3229,6000,3000,341000,404955,
7820,-328,15404,9250,-627,-3435,6000,3000,341000,404958,
7448,-32,14740,9163,-393,-4219,7000,3000,341000,404970,
7396,52,14464,8977,-397,-4328,7000,3000,341000,404972,
7340,168,14532,9070,-332,-4488,8000,3000,341000,404975,
7116,608,14092,8781,-383,-5239,8000,3000,340000,404987,
7092,612,13864,8678,-469,-5473,8000,3000,340000,404989,
7000,816,13660,8720,-449,-5541,9000,3000,340000,404992,
6720,1140,13356,8358,-1002,-6439,9000,2000,339000,405004,
6532,1260,13352,8398,-1110,-6706,10000,2000,339000,405007,
6608,1264,13332,8262,-1251,-6821,10000,2000,339000,405009,
6644,1608,12900,7972,-1598,-7754,10000,2000,338000,405021,
6680,1744,12908,8051,-1486,-7899,10000,2000,338000,405024,
6628,1812,12852,7863,-1484,-8059,11000,2000,338000,405026,
6392,1996,12368,7656,-1040,-8849,11000,2000,337000,405038,
6396,2044,12492,7588,-967,-8884,11000,2000,337000,405041,
6420,2060,12500,7581,-962,-9110,12000,2000,337000,405043,
5880,2560,12480,7346,-669,-9804,12000,2000,336000,405055,
5872,2604,12552,7195,-697,-9930,12000,2000,336000,405058,
5872,2624,12364,7259,-550,-9958,12000,2000,336000,405060,
4972,2780,12240,7091,-447,-10586,13000,2000,335000,405072,
4792,2840,11968,6992,-537,-10777,13000,2000,334000,405075,
4656,2840,11996,7060,-465,-10832,13000,2000,334000,405077,
3904,3084,11680,6742,-709,-11325,14000,2000,333000,405089,
3900,3212,11604,6791,-757,-11592,14000,2000,333000,405092,
3780,3192,11524,6701,-830,-11413,14000,2000,333000,405094,
3180,3304,11200,6510,-1096,-11946,15000,2000,332000,405106,
2980,3364,11280,6615,-1079,-12128,15000,2000,331000,405109,
3100,3388,11060,6465,-1152,-12323,15000,2000,331000,405111,
2800,3680,10744,6331,-929,-12861,15000,2000,330000,405124,
2592,3692,10628,6222,-841,-12837,16000,2000,330000,405126,
2324,3676,10484,6256,-695,-12987,16000,2000,329000,405128,
1524,3644,10024,6104,40,-13189,16000,3000,328000,405141,
1420,3768,9924,5888,80,-13226,16000,3000,328000,405143,
1224,3816,9912,6014,281,-13212,16000,3000,328000,405145,
304,4324,9280,5586,921,-13249,17000,3000,327000,405158,
224,4308,9188,5575,1063,-13319,17000,3000,326000,405160,
-24,4352,9152,5482,1200,-13227,17000,3000,326000,405162,
-1336,4620,8496,5072,1729,-13232,18000,4000,325000,405174,
-1756,4544,8504,5142,1867,-13220,18000,4000,325000,405177,
-1848,4696,8240,4927,1904,-13227,18000,4000,325000,405179,
-3024,4648,7572,4610,2427,-13156,18000,5000,324000,405192,
-3344,4796,7608,4442,2456,-13064,18000,5000,323000,405194,
-3664,4804,7520,4447,2547,-13067,18000,5000,323000,405196,
-4804,5512,7100,3878,2880,-12499,19000,6000,322000,405209,
-4808,5648,7008,3691,2929,-12421,19000,6000,322000,405211,
-5000,5900,6808,3622,3113,-12338,19000,6000,322000,405213,
-6024,6556,6108,2791,3689,-11748,19000,7000,321000,405226,
-6280,6676,6292,2706,3783,-11788,19000,7000,321000,405228,
-6396,6904,6076,2438,3882,-11575,19000,7000,320000,405230,
-7824,7100,6268,1718,4424,-10715,19000,8000,320000,405243,
-8156,6860,6364,1680,4321,-10530,19000,9000,320000,405245,
-8468,7068,6196,1411,4186,-10394,19000,9000,319000,405247,
-9816,7284,6036,744,3503,-9304,19000,10000,319000,405260,
-9940,7276,6084,542,3236,-9022,19000,10000,319000,405262,
-10376,7508,6076,488,2952,-8839,20000,10000,318000,405264,
-11656,7660,6540,-542,849,-7277,19000,10000,318000,405277,
-10696,8820,6992,-818,1126,-7244,19000,10000,318000,405279,
-11696,8156,6652,-754,202,-6943,19000,11000,318000,405281,
-11220,8988,7704,-1852,-1640,-6394,19000,11000,317000,405294,
-11348,9060,7960,-2002,-1900,-6308,19000,11000,317000,405296,
-11196,9172,7952,-2166,-2111,-6066,19000,11000,317000,405299,
-10812,9408,8840,-2894,-2889,-4797,19000,11000,316000,405311,
-10640,9352,9208,-2893,-2904,-4488,19000,11000,316000,405314,
-10624,9440,9372,-3114,-3007,-4233,19000,11000,316000,405316,
-9980,9192,11388,-3310,-2618,-2974,19000,11000,316000,405329,
-9680,9284,11128,-3366,-2599,-2702,18000,11000,316000,405331,
-9752,8992,11432,-3372,-2552,-2563,18000,11000,316000,405333,
-9292,8848,12392,-3324,-2019,-1477,18000,11000,315000,405346,
-9524,8744,12508,-3427,-2054,-1299,18000,11000,315000,405348,
-9060,9024,12808,-3298,-1801,-1095,18000,11000,315000,405350,
-8896,9108,14152,-3369,-1704,-238,18000,11000,315000,405363,
-8656,8988,14264,-3441,-1712,-182,18000,11000,315000,405365,
-7904,8256,15148,-3119,-1772,113,18000,11000,315000,405378,
-8296,8312,14228,-3323,-2048,84,17000,11000,315000,405380,
-8604,7864,16224,-3063,-1589,249,17000,11000,315000,405382,
-7044,7432,16020,-2721,-1067,825,17000,11000,315000,405395,
-6844,7496,16044,-2738,-1007,886,17000,11000,315000,405397,
-6584,7400,16348,-2596,-807,1008,17000,11000,315000,405399,
-5660,7360,16756,-2254,42,1396,17000,11000,315000,405412,
-5536,7268,16872,-2068,243,1435,17000,11000,315000,405414,
-5356,7284,16724,-2107,332,1430,17000,11000,316000,405416,
-4972,7120,16656,-1750,1292,1622,17000,11000,316000,405429,
-4776,6992,16768,-1628,1526,1699,17000,11000,316000,405431,
-4744,6940,16920,-1622,1631,1711,17000,11000,316000,405433,
-4328,6668,16960,-1198,2380,2034,17000,11000,316000,405446,
-4556,6672,17092,-1249,2337,2048,17000,11000,316000,405448,
-4320,6472,17112,-1042,2495,2083,17000,11000,316000,405451,
-4232,6160,17260,-729,2673,2235,17000,11000,316000,405463,
-4332,6160,17320,-692,2614,2193,17000,11000,317000,405465,
-4336,6164,17228,-569,2656,2261,17000,11000,317000,405468,
-4080,6192,17152,-315,2428,2281,17000,12000,317000,405480,
-3868,6220,17000,-141,2417,2278,17000,12000,317000,405483,
-3712,6220,16924,-219,2331,2288,17000,12000,317000,405485,
-3156,6136,16592,56,2221,2162,17000,12000,317000,405497,
-3288,6028,16568,148,2253,2183,17000,12000,317000,405500,
-3280,6048,16580,113,2245,2156,17000,12000,317000,405502,
-2812,6172,16148,353,2522,2155,17000,12000,318000,405514,
-2864,6096,16108,281,2473,2192,17000,12000,318000,405517,
-2644,6148,15964,389,2555,2182,17000,12000,318000,405519,
-2544,6116,15348,453,2560,2120,17000,12000,318000,405531,
-2680,6132,15192,376,2492,2089,17000,12000,318000,405534,
-2468,6216,15116,448,2491,2111,17000,12000,318000,405536,
-2788,6284,15048,361,2121,1931,17000,12000,318000,405548,
-2636,6308,14976,467,2061,1912,17000,12000,318000,405551,
-2908,6164,14988,353,1905,1905,17000,12000,318000,405553,
-2732,6180,14688,363,1324,1768,18000,12000,319000,405566,
-2728,6148,14716,459,1321,1786,18000,12000,319000,405568,
-2624,6268,14568,360,1174,1727,18000,12000,319000,405570,
-2396,6148,14276,419,1005,1770,18000,12000,319000,405583,
-2372,6212,14220,358,946,1800,18000,12000,319000,405585,
-2504,6304,14272,438,972,1848,18000,12000,319000,405587,
-2116,6436,13864,425,1014,1939,18000,12000,319000,405600,
-2048,6552,13876,282,969,1881,18000,12000,319000,405602,
-1848,6600,13800,377,1053,1955,18000,12000,319000,405604,
-1796,6864,13592,250,1045,1893,18000,12000,320000,405617,
-1876,6820,13560,307,1091,1871,18000,12000,320000,405619,
-2028,6928,13528,190,1098,1892,18000,12000,320000,405621,
-2124,6920,13292,157,1031,1801,18000,12000,320000,405634,
-1984,6896,13284,214,991,1835,18000,12000,320000,405636,
-1744,7088,13200,125,888,1815,18000,12000,320000,405638,
-1724,7572,13516,169,543,1587,18000,12000,320000,405651,
-1860,7452,13368,84,503,1549,18000,12000,320000,405653,
-1696,7572,13380,152,513,1453,18000,12000,320000,405655,
-1664,7400,13516,108,491,1186,19000,12000,320000,405668,
-1564,7512,13520,-8,416,1109,19000,12000,320000,405670,
-1584,7488,13596,91,441,1107,19000,12000,320000,405672,
-1780,7536,13580,-5,496,1021,19000,12000,320000,405685,
-1832,7540,13696,46,500,922,19000,12000,320000,405687,
-1916,7572,13720,4,490,946,19000,12000,320000,405690,
-1764,7492,13692,31,459,857,19000,12000,320000,405692,
-1704,7404,13968,42,496,588,19000,12000,321000,405704,
-1868,7216,13904,-38,452,471,19000,12000,321000,405707,
-1724,7456,13856,89,583,453,19000,12000,321000,405709,
-1844,7372,13544,-102,751,276,19000,12000,321000,405722,
-1860,7388,13588,8,756,269,19000,12000,321000,405724,
-1812,7352,13484,-66,741,282,19000,12000,321000,405726,
-2136,7388,13592,-60,790,79,19000,12000,321000,405738,
-2152,7460,13692,45,820,96,19000,12000,321000,405741,
-2224,7408,13704,-52,729,21,19000,12000,321000,405743,
-2556,7400,13944,2,403,-200,19000,12000,321000,405755,
-2652,7484,14056,-67,352,-191,19000,12000,321000,405758,
-2700,7388,14108,-13,327,-231,19000,12000,321000,405760,
-2664,7276,14168,66,140,-368,19000,12000,321000,405772,
-2768,7164,14204,-68,40,-442,19000,12000,321000,405775,
-2600,7320,14084,22,43,-401,19000,12000,321000,405777,
-2992,7224,14184,-99,-326,-460,19000,12000,321000,405790,
-2884,7272,14156,-106,-318,-514,19000,12000,321000,405792,
-3056,7280,14160,-171,-351,-521,19000,12000,321000,405794,
-2876,7080,13992,-254,-421,-687,19000,12000,321000,405807,
-2920,7036,13984,-163,-330,-656,19000,12000,321000,405809,
-2832,7012,13880,-278,-397,-678,19000,12000,321000,405811,
-2980,6916,13768,-248,-360,-579,19000,12000,321000,405824,
-2920,6960,13708,-325,-357,-532,19000,12000,321000,405826,
-3216,6988,13628,-283,-354,-514,19000,12000,321000,405828,
-2992,6944,13904,-243,-275,-463,19000,12000,320000,405841,
-2960,7104,13864,-397,-337,-483,19000,12000,320000,405843,
-3020,7028,14036,-259,-284,-458,19000,12000,320000,405845,
-3408,6884,13768,-396,-337,-383,19000,12000,320000,405858,
-3288,7012,13924,-420,-399,-427,19000,12000,320000,405860,
-3408,7028,13996,-362,-344,-381,19000,12000,320000,405862,
-3072,7020,13876,-437,-361,-284,19000,12000,320000,405875,
-3032,7080,13884,-341,-314,-230,19000,12000,320000,405877,
-3020,7040,13956,-445,-354,-207,19000,12000,320000,405879,
-2932,7040,13832,-475,-207,-73,19000,12000,320000,405892,
-3052,7128,13796,-447,-169,-39,19000,12000,320000,405894,
-2924,7184,13832,-465,-182,-101,19000,12000,320000,405896,
-2744,7232,13756,-461,70,-47,19000,12000,320000,405909,
-2696,7356,13780,-653,87,-37,19000,12000,320000,405911,
-2744,7476,13932,-506,169,-8,19000,12000,320000,405913,
-2872,7492,13884,-777,301,-70,19000,12000,320000,405926,
-2996,7460,13892,-692,307,-102,19000,12000,320000,405928,
-2952,7360,13908,-816,325,-95,19000,12000,320000,405930,
-2928,7588,13888,-1010,405,-200,19000,12000,320000,405943,
-3044,7608,13904,-913,545,-158,19000,12000,320000,405945,
-3104,7620,13928,-1080,526,-212,19000,12000,320000,405948,
-3360,7616,13976,-1151,1004,-140,19000,12000,320000,405960,
-3336,7812,14080,-1238,1025,-90,19000,12000,320000,405962,
-3352,7788,14056,-1187,1125,-95,19000,12000,320000,405965,
-3196,7896,14220,-1322,1274,-20,19000,12000,320000,405977,
-3288,7732,14248,-1402,1230,-62,19000,12000,321000,405979,
-3256,7740,14252,-1354,1274,-50,19000,12000,321000,405982,
-3744,7676,14612,-1482,1032,-80,19000,13000,321000,405994,
-3892,7632,14480,-1340,990,-79,19000,13000,321000,405996,
-3884,7576,14564,-1451,863,-75,19000,13000,321000,405998,
-3832,7584,14428,-1375,109,-162,19000,13000,321000,406011,
-3860,7552,14476,-1269,17,-125,19000,13000,321000,406013,
-3892,7540,14408,-1347,-204,-208,19000,13000,321000,406016,
-4016,7396,14440,-1083,-774,-344,19000,13000,321000,406028,
-3964,7488,14356,-1192,-934,-381,19000,13000,321000,406030,
-4008,7556,14196,-1075,-999,-411,19000,13000,320000,406033,
-3676,7556,14300,-996,-1466,-374,19000,12000,320000,406045,
-3696,7536,14288,-1067,-1608,-423,19000,12000,320000,406047,
-3688,7608,14280,-950,-1640,-378,19000,12000,320000,406050,
-3652,7584,14440,-973,-2016,-411,18000,12000,320000,406062,
-3628,7696,14388,-860,-2057,-469,18000,12000,320000,406064,
-3572,7808,14324,-935,-2101,-417,18000,12000,320000,406067,
-3208,7484,14492,-791,-2155,-431,18000,12000,320000,406079,
-3204,7616,14368,-704,-2110,-412,18000,12000,320000,406081,
-3252,7468,14496,-717,-2069,-420,18000,12000,320000,406084,
-3144,7448,14524,-456,-1432,-235,18000,12000,320000,406096,
-3136,7344,14604,-561,-1345,-170,18000,12000,320000,406099,
-3032,7268,14420,-414,-1186,-172,18000,12000,320000,406101,
-2980,7336,14548,-357,-554,-90,18000,12000,320000,406113,
-3028,7160,14300,-421,-558,-74,18000,12000,320000,406116,
-3108,7340,14376,-289,-412,-41,18000,12000,320000,406118,
-3236,7300,14372,-330,-243,-28,18000,12000,320000,406131,
-3164,7264,14420,-197,-151,-12,18000,12000,320000,406133,
-3116,7260,14440,-323,-166,-21,18000,12000,320000,406135,
-3020,7364,14276,-252,-44,-19,18000,12000,320000,406148,
-3136,7292,14236,-216,13,1,18000,12000,320000,406150,
