Ax,Ay,Az,Gx,Gy,Gz,Roll,Pitch,Yaw,Timestamp,Target
-644,-1220,16816,-190,1081,-145,-12000,4000,269000,1016448,
-540,-1376,16224,-282,1188,-128,-12000,4000,269000,1016460,
-464,-1284,16252,-212,1210,-95,-12000,4000,269000,1016462,
-624,-1420,16220,-242,1178,-173,-12000,4000,269000,1016464,
-804,-1376,16332,-248,978,-61,-12000,4000,269000,1016477,
-760,-1420,16268,-311,957,-75,-12000,4000,269000,1016479,
-736,-1460,16428,-258,986,13,-12000,4000,269000,1016482,
-508,-1552,16264,-276,1045,-47,-12000,4000,269000,1016494,
-616,-1468,16424,-175,1108,-15,-12000,4000,269000,1016496,
-544,-1504,16420,-228,1089,-80,-12000,4000,269000,1016499,
-344,-1424,16508,-113,1535,61,-12000,5000,269000,1016511,
-232,-1400,16376,-198,1566,3,-12000,5000,269000,1016513,
-272,-1448,16432,-107,1715,77,-12000,5000,269000,1016515,
-364,-1320,16312,-166,1915,80,-12000,5000,269000,1016528,
-520,-1384,16288,-56,1928,128,-12000,5000,269000,1016530,
-536,-1284,16548,-135,1826,81,-12000,5000,269000,16108,
660,664,16652,-634,939,-608,-5000,-1000,271000,1018041,
788,656,16696,-749,899,-602,-5000,-1000,271000,1018044,
412,752,16652,-674,807,-561,-5000,-1000,271000,1018056,
416,792,16528,-692,799,-494,-5000,-1,5000,269000,
-656,-1248,16428,-137,2228,-77,-12000,5000,269000,1016567,
-1156,-1180,16432,-162,2439,-86,-12000,5000,269000,1016579,
-1140,-1240,16492,-141,2477,-9,-12000,6000,269000,1016582,
-1204,-1108,16488,-154,2439,-70,-12000,6000,269000,1016584,
-1492,-1100,16232,-121,2266,104,-12000,6000,269000,1016596,
-1404,-1100,16332,-234,2114,41,-12000,6000,269000,1016599,
-1676,-1112,16320,-144,2148,57,-12000,6000,269000,1016601,
-1588,-1048,16236,-262,1843,-115,-12000,6000,269000,1016614,
-1496,-1044,16364,-114,1822,-107,-12000,6000,269000,1016616,
-1528,-1104,16368,-265,1740,-112,-12000,6000,269000,1016618,
-1372,-1040,16180,-153,1558,-123,-11000,6000,269000,1016631,
-1356,-1020,16264,-292,1478,-120,-11000,6000,269000,1016633,
-1284,-980,16432,-185,1523,-129,-11000,6000,269000,1016635,
-1320,-1024,16236,-286,1240,-45,-11000,6000,269000,1016648,
-1584,-900,16276,-215,1202,-48,-11000,6000,269000,1016650,
-1524,-908,16456,-313,1094,5,-11000,6000,269000,1016653,
-1268,-952,16616,-275,1008,4,-11000,6000,269000,1016665,
-1176,-824,16492,-302,1069,30,-11000,6000,269000,1016667,
-1140,-1008,16496,-246,1073,-39,-11000,7000,269000,1016670,
-1504,-876,16536,-286,1016,-28,-11000,7000,269000,1016682,
-1568,-916,16488,-350,926,-78,-11000,7000,269000,1016685,
-1628,-876,16580,-319,915,-13,-11000,7000,269000,1016687,
-1536,-932,16468,-430,508,5,-11000,7000,269000,1016699,
-1576,-1032,16444,-356,474,55,-11000,7000,269000,1016702,
-1696,-984,16356,-444,355,-15,-11000,7000,269000,1016704,
-1624,-964,16336,-409,72,39,-11000,7000,269000,1016716,
-1548,-1000,16412,-557,-11,1,-11000,7000,269000,1016719,
-1372,-1044,16404,-437,-11,21,-11000,7000,269000,1016721,
-1284,-1112,16216,-576,-98,-35,-11000,7000,269000,1016733,
-1392,-1156,16228,-417,-25,-49,-11000,7000,269000,1016736,
-1260,-1112,16484,-542,-87,-44,-11000,7000,269000,1016738,
-1232,-1256,16164,-415,23,4,-11000,7000,269000,1016750,
-1188,-1192,16048,-516,-14,-21,-11000,7000,269000,1016753,
-1196,-1312,16196,-377,2,-13,-11000,7000,269000,1016755,
-1116,-1248,16324,-472,240,-48,-11000,7000,269000,1016768,
-1132,-1244,16308,-419,303,-98,-11000,7000,269000,1016770,
-1144,-1148,16512,-518,300,-94,-11000,7000,269000,1016772,
-1272,-1180,16288,-479,360,-138,-11000,7000,269000,1016785,
-1564,-1196,16276,-536,415,-62,-11000,7000,269000,1016787,
-1388,-1240,16304,-492,423,-101,-11000,7000,269000,1016789,
-1488,-1192,16280,-474,396,-121,-11000,7000,269000,1016802,
-1580,-1248,15996,-545,264,-159,-11000,7000,269000,1016804,
-1764,-1252,16068,-451,282,-126,-11000,7000,269000,1016807,
-1628,-1296,16080,-552,88,-67,-11000,7000,269000,1016819,
-1456,-1136,16204,-431,135,-15,-11000,7000,269000,1016821,
-1504,-1196,16372,-517,57,-78,-11000,7000,269000,1016824,
-1556,-1252,16284,-378,143,-56,-11000,7000,269000,1016836,
-1576,-1144,16268,-493,105,-48,-11000,7000,269000,1016839,
-1428,-1200,16124,-370,138,-52,-11000,7000,269000,1016841,
-1404,-1012,16264,-522,42,0,-11000,7000,269000,1016853,
-1272,-1132,16100,-444,27,-14,-11000,7000,269000,1016856,
-1488,-1172,16176,-518,17,-8,-11000,7000,269000,1016858,
-1464,-1164,16428,-463,140,-80,-11000,7000,269000,1016870,
-1536,-1124,16492,-481,122,-3,-11000,7000,269000,1016873,
-1452,-1232,16456,-400,179,-33,-11000,7000,269000,1016875,
-1288,-1028,16412,-473,311,-14,-11000,7000,269000,1016887,
-1332,-1108,16336,-414,353,-85,-11000,7000,269000,1016890,
-1340,-948,16416,-454,376,-32,-11000,7000,269000,1016892,
-1716,-1028,16340,-492,355,-116,-11000,7000,269000,1016904,
-1576,-1088,16188,-441,399,-33,-11000,7000,269000,1016907,
-1748,-1188,16100,-471,335,-70,-11000,7000,269000,1016909,
-1716,-1076,16356,-416,343,12,-11000,7000,269000,1016922,
-1664,-1132,16416,-515,243,-21,-11000,7000,269000,1016924,
-1572,-960,16356,-434,282,23,-11000,7000,269000,1016927,
-1628,-1136,16284,-527,25,-23,-11000,7000,269000,1016939,
-1756,-1164,16348,-408,36,4,-11000,7000,269000,1016941,
-1592,-1096,16260,-534,-47,-28,-11000,7000,269000,1016944,
-1272,-952,16428,-447,-132,49,-11000,7000,269000,1016956,
-1264,-980,17036,-505,-196,-5,-11000,7000,269000,1016959,
-1316,-1084,17104,-310,-141,5,-11000,7000,269000,1016961,
-1268,-764,16188,-555,-156,5,-11000,7000,269000,1016973,
-1116,-684,15976,-425,-130,2,-11000,7000,269000,1016976,
-1004,-668,16288,-554,-180,-30,-11000,7000,269000,1016978,
-1000,-876,16560,-446,91,-112,-11000,7000,269000,1016990,
-1192,-984,16424,-543,126,-79,-11000,7000,269000,1016993,
-988,-952,16456,-425,207,-76,-11000,7000,269000,1016995,
-1392,-1012,16396,-452,189,-53,-11000,7000,269000,1017008,
-1316,-1052,16376,-499,121,-88,-11000,7000,269000,1017010,
-1592,-1032,16288,-503,117,-20,-11000,7000,269000,1017012,
-1740,-1152,16332,-535,11,-78,-11000,7000,269000,1017025,
-1544,-1124,16276,-455,13,-54,-11000,7000,269000,1017027,
-1508,-1108,16092,-521,-94,-69,-11000,7000,269000,1017029,
-1556,-1084,16444,-391,-121,11,-11000,7000,269000,1017042,
-1516,-1120,16232,-506,-239,5,-11000,7000,269000,1017044,
-1448,-1096,16264,-362,-164,-5,-11000,7000,269000,1017047,
-1184,-1052,16424,-518,-295,11,-11000,7000,269000,1017059,
-1172,-1044,16364,-411,-219,-37,-11000,7000,269000,1017061,
-1272,-1216,16232,-551,-266,-25,-11000,7000,269000,1017064,
-1244,-1212,16256,-476,-131,-142,-11000,6000,269000,1017076,
-1228,-1156,16324,-538,-66,-108,-11000,6000,269000,1017079,
-1304,-1340,16208,-479,-40,-153,-11000,6000,269000,1017081,
-1388,-1200,16500,-530,108,-88,-11000,6000,269000,1017093,
-1492,-1180,16540,-574,88,-141,-11000,6000,269000,1017096,
-1428,-1204,16516,-560,150,-93,-11000,6000,269000,1017098,
-1704,-1160,16404,-670,-110,-66,-11000,6000,269000,1017111,
-1644,-1068,16500,-624,-122,-6,-11000,6000,269000,1017113,
-1940,-1016,16452,-690,-246,-40,-11000,6000,269000,1017115,
-2016,-1048,16468,-769,-621,53,-11000,6000,269000,1017128,
-1900,-924,16372,-876,-755,-7,-11000,6000,269000,1017130,
-1700,-1132,16292,-831,-772,16,-11000,6000,269000,1017132,
-1540,-1056,16264,-935,-1147,-43,-11000,6000,269000,1017145,
-1652,-1164,16116,-806,-1116,34,-11000,6000,269000,1017147,
-1672,-1052,16316,-961,-1231,12,-11000,6000,269000,1017149,
-1912,-612,16600,-979,-1634,204,-11000,6000,269000,1017162,
-1856,-532,16824,-1189,-1880,186,-11000,6000,269000,1017164,
-1876,-468,17032,-1086,-2016,208,-11000,6000,269000,1017166,
-1660,-56,17144,-1697,-2999,77,-11000,6000,269000,1017179,
-1292,-136,17020,-1674,-3108,-44,-12000,6000,269000,1017181,
-1212,-88,17116,-1836,-3243,-54,-12000,6000,269000,1017184,
-708,-412,17084,-2154,-3547,-387,-12000,5000,269000,1017196,
-692,-244,17212,-2305,-3500,-423,-12000,5000,269000,1017199,
-408,-368,17288,-2339,-3408,-459,-12000,5000,269000,1017201,
80,-184,17280,-2744,-2805,-520,-12000,5000,269000,1017213,
76,-128,17436,-2845,-2752,-591,-12000,5000,269000,1017216,
-96,-44,17284,-2951,-2605,-521,-12000,5000,269000,1017218,
-656,248,17636,-3597,-2581,-546,-12000,4000,269000,1017230,
-664,284,17616,-3668,-2583,-529,-12000,4000,269000,1017233,
-692,348,17788,-3848,-2782,-586,-12000,4000,269000,1017235,
-1280,216,19024,-4396,-4246,-658,-13000,4000,269000,1017248,
-1524,4,19612,-4578,-4821,-726,-13000,4000,269000,1017250,
-1612,-116,19796,-4471,-5322,-685,-13000,4000,269000,1017252,
-2308,-1284,21336,-4557,-8626,-926,-13000,3000,269000,1017265,
-2568,-1384,21300,-4339,-9077,-1046,-13000,3000,269000,1017267,
-2376,-1764,21148,-4408,-9603,-1208,-13000,3000,269000,1017269,
-1568,-2148,21980,-3541,-9683,-2032,-14000,2000,269000,1017282,
-1272,-2296,21836,-3421,-9164,-2082,-14000,1000,269000,1017284,
-1000,-2408,21784,-3194,-8526,-2138,-14000,1000,269000,1017287,
-624,-2444,21608,-1840,-6417,-2182,-14000,1000,269000,1017299,
-724,-2440,21700,-1517,-6156,-2103,-14000,1000,269000,1017302,
-1012,-2312,19168,-543,-3542,-803,-14000,0,269000,1017314,
-1064,-2312,18840,-443,-3530,-669,-14000,0,269000,1017316,
-1144,-2280,18560,-241,-3432,-441,-14000,0,269000,1017319,
-1216,-1980,16848,74,-3866,-322,-14000,0,269000,1017331,
-1232,-1824,17032,192,-3959,-393,-14000,0,269000,1017334,
-996,-1936,16892,73,-4094,-545,-14000,0,269000,1017336,
164,-2312,15932,229,-3295,-1289,-14000,0,269000,1017348,
300,-2272,15740,148,-3034,-1407,-14000,0,269000,1017351,
616,-2324,15388,325,-2685,-1440,-14000,0,269000,1017353,
548,-2784,16240,1099,-1745,-911,-14000,0,269000,1017366,
256,-3180,16784,1473,-1600,-641,-14000,0,269000,1017368,
36,-3344,17008,1642,-1627,-356,-13000,0,269000,1017370,
-1924,-3936,17232,2982,-3095,1255,-13000,0,269000,1017383,
-2072,-3788,17252,3050,-3523,1509,-13000,0,269000,1017385,
-2132,-3596,17396,3295,-3867,1707,-13000,0,269000,1017387,
-20,-2592,17600,3647,-4441,1512,-13000,-1000,270000,1017400,
196,-2560,17776,3820,-4273,1384,-13000,-1000,270000,1017402,
564,-2340,17740,3771,-4033,1205,-13000,-1000,270000,1017404,
1616,-2352,17972,4297,-2571,762,-12000,-1000,270000,1017417,
1996,-2412,17892,4353,-2259,876,-12000,-1000,270000,1017419,
1948,-2512,18208,4519,-1884,917,-12000,-1000,270000,1017422,
1624,-2696,17996,4632,547,1842,-11000,-1000,270000,1017434,
1768,-2624,17820,4592,779,1913,-11000,-1000,270000,1017436,
1788,-2552,17936,4609,1098,2077,-11000,-1000,270000,1017439,
1272,-1988,18188,4758,1420,2190,-11000,-1000,270000,1017451,
1148,-1876,18164,4810,1436,2201,-11000,-1000,270000,1017454,
1080,-1716,18012,4763,1367,2126,-11000,-1000,270000,1017456,
916,-1356,17668,4722,979,2016,-10000,-1000,270000,1017468,
964,-1252,17480,4568,846,1934,-10000,-1000,271000,1017471,
940,-1372,17428,4626,846,1949,-10000,-1000,271000,1017473,
1308,-1492,16588,4449,623,1612,-10000,-1000,271000,1017485,
1324,-1472,16564,4575,640,1568,-9000,-1000,271000,1017488,
1448,-1432,16564,4452,493,1501,-9000,-1000,271000,1017490,
1516,-1152,15896,4571,136,1414,-9000,-1000,271000,1017502,
1452,-984,15960,4379,39,1396,-9000,-1000,271000,1017505,
1456,-932,15804,4476,23,1341,-9000,-1000,271000,1017507,
1680,-632,15552,4159,-105,1108,-8000,-1000,271000,1017520,
1836,-696,15732,4242,-18,1035,-8000,-1000,271000,1017522,
1856,-760,15716,4140,-39,999,-8000,-1000,271000,1017524,
1896,-940,15464,4094,144,828,-8000,-1000,271000,1017537,
1748,-920,15348,4072,173,853,-8000,-1000,271000,1017539,
1712,-960,15216,4120,209,844,-8000,-1000,271000,1017541,
1712,-1172,15004,4030,390,899,-7000,-1000,271000,1017554,
1756,-1012,14844,3955,387,806,-7000,-1000,271000,1017556,
1740,-1052,14772,3968,460,864,-7000,-1000,271000,1017558,
1820,-644,14724,3746,703,838,-7000,-1000,271000,1017571,
1908,-496,14632,3828,858,868,-7000,-1000,271000,1017573,
1852,-448,14376,3691,819,870,-6000,-1000,271000,1017575,
1544,-596,13880,3627,1083,973,-6000,-1000,271000,1017588,
1472,-680,13800,3471,1019,976,-6000,-1000,271000,1017590,
1424,-600,13676,3566,1069,1032,-6000,-1000,271000,1017592,
1540,-224,13252,3198,995,1200,-6000,0,272000,1017605,
1612,-100,13148,3298,1023,1275,-6000,0,272000,1017607,
1736,-64,13300,3083,979,1262,-6000,0,272000,1017609,
1432,40,13048,3175,1010,1286,-5000,0,272000,1017612,
1568,344,12704,2629,996,1172,-5000,0,272000,1017624,
1548,452,12696,2670,1009,1215,-5000,0,272000,1017626,
1304,400,12532,2425,906,1166,-5000,0,272000,1017629,
1328,476,12584,2107,619,1043,-5000,0,272000,1017641,
1364,620,12544,1936,490,1023,-5000,0,272000,1017644,
1468,792,12552,1999,406,1014,-5000,0,272000,1017646,
1328,896,12704,1802,259,1002,-5000,0,272000,1017648,
1720,1560,13020,1528,-50,839,-4000,0,272000,1017661,
1648,1548,13120,1347,-124,808,-4000,0,272000,1017663,
1848,1544,13184,1355,-121,765,-4000,0,272000,1017665,
1664,1944,13704,886,-389,638,-4000,0,272000,1017678,
1540,1836,13400,866,-374,563,-4000,0,272000,1017680,
1604,1952,13476,688,-412,553,-4000,0,272000,1017683,
1696,1896,13724,682,-461,488,-4000,0,272000,1017685,
1856,1796,14172,342,-709,312,-4000,-1000,272000,1017697,
1944,1904,14296,209,-765,220,-4000,-1000,272000,1017700,
1876,1744,14056,206,-693,206,-4000,-1000,272000,1017702,
1828,1476,14184,-57,-569,49,-4000,-1000,272000,1017714,
1876,1496,13912,-60,-523,74,-4000,-1000,272000,1017717,
1928,1416,14104,-139,-467,43,-4000,-1000,272000,1017719,
2024,1204,14196,-319,-172,38,-4000,-1000,272000,1017731,
1980,1096,14092,-502,-161,-42,-4000,-1000,272000,1017734,
1960,1116,14340,-402,-22,-39,-4000,-1000,272000,1017736,
1520,960,14544,-695,-257,-134,-4000,-1000,272000,1017749,
1364,960,14796,-604,-218,-120,-4000,-1000,272000,1017751,
1260,976,14904,-684,-261,-118,-4000,-1000,272000,1017753,
1508,708,15352,-829,-533,-66,-4000,-1000,272000,1017766,
1632,776,15232,-690,-452,-37,-4000,-1000,272000,1017768,
1640,696,15336,-826,-504,-78,-4000,-1000,272000,1017770,
1888,660,15164,-639,-151,-92,-4000,-1000,272000,1017783,
1956,856,15236,-801,-166,-106,-4000,-1000,272000,1017785,
1944,840,15216,-643,-28,-98,-4000,-1000,272000,1017788,
1688,1044,15452,-870,82,-153,-4000,-1000,272000,1017800,
1736,1072,15392,-781,134,-164,-4000,-1000,272000,1017802,
1568,1068,15380,-942,91,-214,-4000,-1000,272000,1017805,
1528,824,15872,-1027,79,-543,-4000,-1000,272000,1017817,
1600,972,15720,-1128,88,-586,-4000,-1000,272000,1017819,
1800,784,15792,-1095,70,-684,-4000,-1000,272000,1017822,
1632,424,15956,-1189,165,-860,-4000,-1000,272000,1017834,
1504,456,15968,-1228,128,-885,-4000,-1000,272000,1017837,
1604,504,16048,-1215,167,-871,-4000,-1000,272000,1017839,
1572,724,15984,-1305,393,-913,-4000,-1000,272000,1017851,
1456,656,16040,-1239,508,-897,-4000,-1000,272000,1017854,
1392,624,16080,-1302,463,-949,-4000,-1000,272000,1017856,
1192,744,16120,-1276,612,-1008,-4000,-1000,272000,1017868,
1056,700,16376,-1389,566,-1049,-4000,-1000,272000,1017871,
1040,768,16200,-1353,563,-983,-4000,-1000,272000,1017873,
1044,700,16348,-1525,405,-956,-4000,-1000,272000,1017885,
1096,824,16508,-1413,449,-918,-5000,-1000,272000,1017888,
1012,664,16432,-1544,399,-959,-5000,-1000,272000,1017890,
624,532,16632,-1362,272,-926,-5000,-1000,271000,1017902,
636,484,16824,-1506,117,-914,-5000,-1000,271000,1017905,
648,396,16668,-1382,139,-881,-5000,-1000,271000,1017907,
700,652,16912,-1464,-327,-860,-5000,-1000,271000,1017920,
932,748,16908,-1320,-331,-878,-5000,-1000,271000,1017922,
932,688,16896,-1445,-395,-874,-5000,-1000,271000,1017924,
952,664,17048,-1236,-212,-937,-5000,-1000,271000,1017937,
940,556,16904,-1277,-195,-911,-5000,-1000,271000,1017939,
884,636,16920,-1161,-140,-930,-5000,-1000,271000,1017941,
992,572,16716,-1032,109,-827,-5000,-1000,271000,1017954,
1012,672,16688,-1033,139,-873,-5000,-1000,271000,1017956,
1048,688,16588,-1016,171,-796,-5000,-1000,271000,1017958,
920,560,16456,-932,528,-751,-5000,-1000,271000,1017971,
836,748,16652,-869,660,-639,-5000,-1000,271000,1017973,
1072,644,16556,-876,689,-687,-5000,-1000,271000,1017975,
636,524,16228,-709,438,-55,-6000,0,270000,1018596,
488,464,16436,-747,433,13,-6000,0,270000,1018599,
716,424,16444,-659,457,-16,-6000,0,270000,1018601,
704,448,16424,-767,422,5,-6000,0,270000,1018603,
576,344,16180,-696,470,18,-6000,0,270000,1018616,
464,476,16220,-756,473,41,-6000,0,270000,1018618,
404,480,16316,-689,489,6,-6000,0,270000,1018620,
492,592,16276,-787,497,30,-6000,0,270000,1018622,
684,432,16256,-772,542,-86,-6000,0,270000,1018635,
604,396,16444,-802,572,-77,-6000,0,270000,1018637,
592,400,16304,-727,546,-85,-6000,0,270000,1018640,
636,340,16316,-808,457,-52,-6000,0,270000,1018642,
280,344,16352,-767,209,-54,-6000,0,270000,1018654,
288,296,16472,-688,215,-4,-6000,0,270000,1018657,
268,360,16300,-755,171,-75,-6000,0,270000,1018659,
304,380,16272,-705,201,-45,-6000,0,270000,1018661,
616,416,16196,-778,180,-194,-6000,0,270000,1018674,
604,376,16112,-664,235,-163,-6000,0,270000,1018676,
512,412,16032,-757,204,-199,-6000,0,270000,1018678,
228,332,16232,-700,308,-29,-6000,0,270000,1018691,
348,384,16392,-828,191,-16,-6000,0,270000,1018693,
388,460,16296,-718,262,17,-6000,0,270000,1018695,
224,368,16296,-847,150,-22,-6000,0,270000,1018698,
152,360,16300,-759,-23,7,-6000,0,270000,1018710,
112,192,16172,-941,-160,-28,-6000,0,270000,1018712,
208,380,16244,-827,-185,6,-6000,0,270000,1018715,
20,272,16224,-984,-325,22,-6000,0,270000,1018717,
-272,212,16456,-924,-979,122,-6000,0,270000,1018730,
-124,268,16236,-1076,-1124,107,-6000,0,270000,1018732,
16,248,16500,-985,-1182,119,-6000,0,270000,1018734,
96,304,16432,-1113,-1343,100,-6000,0,270000,1018736,
-68,264,16536,-983,-1866,39,-6000,0,270000,1018749,
-148,296,16620,-1106,-2099,48,-6000,0,270000,1018751,
-140,284,16564,-964,-2233,50,-6000,0,270000,1018754,
-1800,52,16180,-1041,-3740,540,-6000,0,270000,1018766,
-2572,-132,17560,-699,-5443,709,-6000,0,270000,1018768,
-2304,12,16452,-672,-6915,762,-6000,0,270000,1018771,
-3088,-108,16912,-791,-11045,1330,-6000,-1000,270000,1018783,
-3008,-24,17000,-774,-12171,1422,-6000,-1000,270000,1018785,
-3108,-52,16720,-755,-13385,1348,-6000,-1000,270000,1018788,
-2620,240,16548,-1273,-18511,1336,-6000,-3000,270000,1018800,
-2100,228,16644,-1401,-19157,1307,-7000,-3000,271000,1018803,
-1644,328,16652,-1491,-19678,1332,-7000,-4000,271000,1018805,
-128,100,16296,-1758,-22807,1456,-7000,-6000,271000,1018817,
376,84,16492,-1693,-22962,1621,-7000,-6000,271000,1018820,
852,128,16360,-1789,-23162,1653,-7000,-7000,271000,1018822,
4284,124,15876,-1652,-20807,1514,-7000,-9000,272000,1018835,
4304,60,16360,-1691,-20057,1619,-7000,-9000,272000,1018837,
4328,-32,16460,-1567,-19722,1615,-7000,-9000,272000,1018839,
6292,236,16424,-1147,-15403,1571,-7000,-11000,272000,1018852,
6496,352,16348,-955,-14452,1558,-7000,-11000,272000,1018854,
6812,304,16368,-1009,-13417,1574,-7000,-11000,272000,1018856,
7700,464,16732,-361,-8397,1737,-7000,-12000,272000,1018869,
7468,480,16620,-381,-7498,1734,-7000,-12000,273000,1018871,
7488,392,16680,-135,-6621,1746,-7000,-13000,273000,1018873,
7360,60,16768,178,-2169,1535,-7000,-13000,273000,1018886,
7332,16,16672,302,-1507,1476,-7000,-13000,273000,1018888,
7200,-60,16376,303,-844,1435,-7000,-13000,273000,1018891,
7260,204,16388,620,2654,1018,-7000,-13000,273000,1018903,
7504,416,16428,615,3398,963,-7000,-13000,273000,1018905,
7752,436,16412,701,4110,844,-7000,-13000,273000,1018908,
7976,676,16364,892,8122,302,-7000,-12000,273000,1018920,
7960,668,16420,798,8975,184,-7000,-12000,273000,1018923,
8152,836,16432,853,9971,160,-7000,-12000,273000,1018925,
9240,860,16852,1018,16381,-83,-7000,-10000,272000,1018937,
9796,880,16784,1151,17699,-126,-7000,-10000,272000,1018940,
10004,788,16760,1127,19080,-245,-7000,-10000,272000,1018942,
11604,1008,16272,1565,29506,-929,-6000,-7000,272000,1018954,
11684,912,16160,1522,31606,-1132,-6000,-6000,272000,1018957,
11760,940,15912,1697,32767,-1275,-6000,-6000,272000,1018959,
11508,736,14272,1725,32767,-1798,-6000,-3000,271000,1018972,
11308,408,14476,1952,32767,-1841,-6000,-2000,271000,1018974,
10996,492,14284,1881,32767,-1883,-6000,-2000,271000,1018976,
9124,-28,11320,2148,32767,-2563,-6000,0,270000,1018989,
9216,-120,11732,2101,32767,-2724,-6000,1000,270000,1018991,
8728,-200,11028,2318,32767,-2831,-6000,1000,270000,1018993,
4588,-676,8944,3017,32767,-3773,-5000,4000,270000,1019006,
3844,-616,8612,3409,32767,-3827,-5000,5000,269000,1019008,
2524,-728,8048,3472,32767,-3851,-5000,5000,269000,1019010,
-4124,-872,6764,5186,32767,-3290,-5000,8000,269000,1019023,
-5080,164,7072,5484,32767,-2736,-5000,9000,269000,1019025,
-7468,-1012,5480,5700,32767,-2498,-5000,10000,268000,1019027,
-11400,2312,-812,5078,32767,610,-4000,13000,268000,1019040,
-12400,-4420,8588,6319,32767,653,-4000,14000,268000,1019042,
-9328,-1744,3732,7102,32767,1723,-4000,14000,268000,1019045,
-12300,-804,2764,8353,32767,2584,-3000,18000,268000,1019057,
-13508,-956,3800,8489,32767,2927,-3000,18000,268000,1019060,
-14812,-1028,4312,8650,32767,3054,-3000,19000,268000,1019062,
-15928,292,-80,6964,32767,2212,-2000,23000,268000,1019074,
-16864,668,412,6395,32767,1456,-2000,23000,268000,1019077,
-17032,576,620,6087,32767,772,-2000,24000,268000,1019079,
-21056,2024,1216,4488,32767,-3027,-2000,27000,268000,1019092,
-21956,2456,996,4204,32767,-3400,-2000,28000,268000,1019094,
-21432,2284,2080,3907,32767,-3637,-1000,28000,268000,1019096,
-26836,3460,1872,2301,32767,-4343,-2000,32000,267000,1019109,
-27748,3620,2016,2026,32767,-4081,-2000,33000,267000,1019111,
-28288,3408,1836,1983,32767,-3653,-2000,33000,267000,1019113,
-26580,2480,1876,911,22219,-836,-2000,36000,267000,1019126,
-26080,2116,1028,879,19087,-428,-2000,36000,267000,1019128,
-25136,1948,1104,601,15993,-275,-2000,36000,267000,1019131,
-21212,1300,648,70,3118,-668,-2000,37000,267000,1019143,
-20788,1196,668,-122,1319,-710,-2000,37000,267000,1019146,
-20440,1192,776,-137,-267,-708,-2000,37000,267000,1019148,
-18224,1328,716,-986,-6032,-239,-2000,37000,267000,1019161,
-17728,1224,424,-1099,-6748,-116,-2000,37000,267000,1019163,
-17460,1216,572,-1277,-7158,29,-2000,37000,267000,1019165,
-15448,972,640,-1651,-7829,888,-2000,36000,267000,1019178,
-15260,900,664,-1607,-7570,1023,-2000,36000,267000,1019180,
-14620,1024,660,-1733,-7359,1090,-2000,36000,267000,1019183,
-12928,672,660,-1684,-4669,1356,-2000,36000,267000,1019195,
-12864,620,676,-1841,-4055,1278,-2000,36000,267000,1019198,
-12672,528,792,-1672,-3237,1229,-2000,36000,267000,1019200,
-12500,844,788,-1715,540,703,-2000,36000,267000,1019213,
-12752,776,688,-1680,1289,607,-2000,36000,267000,1019215,
-13048,944,1016,-1732,1995,517,-2000,36000,267000,1019217,
-14120,1352,1552,-1679,5479,382,-2000,37000,267000,1019230,
-14312,1360,1316,-1636,5788,401,-2000,37000,267000,1019232,
-14704,1364,1428,-1626,5989,392,-2000,37000,267000,1019235,
-15860,1432,1176,-1540,6291,411,-2000,38000,267000,1019247,
-16028,1612,1060,-1624,6187,395,-2000,38000,267000,1019250,
-16096,1536,920,-1494,6082,451,-2000,39000,267000,1019252,
-16736,1656,780,-1767,4073,597,-2000,39000,267000,1019265,
-16648,1704,940,-1627,3603,574,-2000,39000,268000,1019267,
-16656,1800,580,-1775,2828,456,-2000,39000,268000,1019269,
-17336,1960,592,-1704,-1251,15,-2000,40000,268000,1019282,
-17672,1860,448,-1908,-2233,-5,-2000,40000,268000,1019284,
-17892,1932,152,-1823,-3266,-30,-2000,40000,268000,1019287,
-19268,1908,416,-2265,-10878,334,-3000,39000,268000,1019299,
-19784,1836,380,-2247,-12816,430,-3000,39000,268000,1019302,
-20112,1844,312,-2354,-14817,533,-3000,38000,268000,1019304,
-23596,1808,1000,-2642,-29815,1472,-3000,36000,268000,1019317,
-24440,1696,1376,-2555,-32768,1836,-3000,35000,268000,1019319,
-25400,1688,1800,-2567,-32768,2248,-3000,35000,268000,1019321,
-32188,1128,1264,-3182,-32768,5499,-2000,32000,269000,1019334,
-32768,1140,1800,-3479,-32768,6172,-2000,31000,269000,1019336,
-32768,1124,1784,-3362,-32768,6756,-2000,31000,270000,1019339,
-31652,-152,5212,-2642,-32768,8400,-2000,28000,271000,1019351,
-30736,-576,3868,-1962,-32768,8836,-2000,27000,271000,1019354,
-29420,-1040,1408,-1906,-32768,9064,-2000,27000,271000,1019356,
-24392,980,-12768,-6913,-32768,8550,-2000,24000,272000,1019369,
-22660,1596,-12484,-8658,-32768,8085,-2000,24000,272000,1019371,
-11372,6688,-12736,-20514,-32768,2397,-4000,21000,273000,1019383,
-9492,3696,-14704,-22200,-32768,1486,-4000,20000,273000,1019386,
-9488,8420,-16008,-24855,-32768,630,-5000,20000,273000,1019388,
3344,8288,-11808,-23455,-32768,-3956,-7000,17000,273000,1019401,
4664,6576,-5700,-23139,-32768,-4456,-7000,16000,273000,1019403,
15628,-1964,-1448,-16871,-32768,-7856,-9000,13000,273000,1019415,
10252,-5208,-1420,-18011,-32768,-4457,-9000,12000,273000,1019418,
14800,-6852,476,-17702,-32768,-5191,-9000,11000,273000,1019420,
30756,-7640,11096,-3100,-32768,-1677,-10000,8000,273000,1019433,
30324,-6140,3428,-3803,-32768,-2189,-10000,7000,273000,1019435,
29540,-3640,3664,-5363,-32768,-260,-10000,6000,273000,1019437,
32767,-3356,13284,-307,-12784,2113,-10000,5000,274000,1019450,
32767,-1184,14532,1923,-7507,2550,-10000,5000,274000,1019452,
25296,2804,13664,-2526,18801,811,-10000,6000,274000,1019465,
22764,2332,14408,-2053,21490,442,-10000,7000,273000,1019467,
19728,1520,14368,-1537,23522,-311,-10000,7000,273000,1019469,
8232,-404,15148,-127,30059,-2719,-10000,9000,273000,1019482,
6048,-744,15404,-195,30616,-2561,-10000,10000,272000,1019484,
3508,-1592,16584,-91,29970,-2201,-10000,10000,272000,1019487,
-1668,-1820,16216,879,24883,-1214,-10000,13000,272000,1019499,
-3312,-1708,15988,959,24522,-640,-10000,13000,272000,1019501,
-5400,-3868,19448,1024,21735,-945,-10000,14000,272000,1019504,
540,-788,19304,1877,13834,2423,-10000,15000,272000,1019516,
-12000,-668,16308,161,9071,1835,-10000,15000,272000,1019518,
-4312,1352,15860,-441,10379,2067,-10000,15000,272000,1019521,
-2612,800,19532,-1328,-765,206,-10000,15000,272000,1019533,
-1412,996,17712,-1584,-1643,-129,-10000,15000,272000,1019535,
2696,944,18192,-1818,-8731,-858,-10000,14000,272000,1019548,
-3052,996,15812,-1568,-13364,-323,-10000,14000,272000,1019550,
5512,1312,17892,-2351,-8423,274,-10000,14000,272000,1019552,
6348,-136,16332,-2220,-8689,-23,-10000,13000,272000,1019565,
6904,-348,15556,-2202,-7561,-35,-10000,12000,272000,1019567,
6704,-540,16024,-2288,-6627,-49,-10000,12000,272000,1019570,
7436,-468,15856,-2009,-2652,-362,-10000,12000,272000,1019582,
7260,-316,16076,-2059,-1912,-454,-10000,12000,272000,1019585,
7352,-340,16012,-1911,-969,-452,-10000,12000,272000,1019587,
6460,-408,16340,-1741,2604,-539,-11000,12000,272000,1019599,
5780,-568,16468,-1611,3086,-508,-11000,12000,272000,1019602,
5632,-456,16532,-1648,3453,-513,-11000,12000,272000,1019604,
4476,-596,17272,-1223,4602,-411,-11000,12000,272000,1019616,
4312,-652,17380,-1295,4581,-458,-11000,12000,272000,1019619,
4132,-708,17428,-1108,4669,-439,-11000,12000,272000,1019621,
3064,-980,17740,-951,4152,-347,-11000,12000,272000,1019634,
2912,-996,17620,-808,3993,-210,-11000,12000,272000,1019636,
2708,-880,17696,-944,3646,-112,-11000,12000,272000,1019638,
2120,-608,17900,-625,1660,349,-11000,12000,272000,1019651,
2004,-764,18004,-673,1324,407,-11000,12000,272000,1019653,
2288,-628,17752,-531,1122,375,-11000,12000,272000,1019655,
2816,-620,17168,-584,-382,-162,-11000,12000,272000,1019668,
2988,-720,17372,-486,-504,-243,-11000,12000,272000,1019670,
3148,-728,16952,-538,-630,-250,-11000,12000,272000,1019672,
4012,-456,16856,-501,-664,-85,-11000,12000,272000,1019685,
4244,-412,16948,-437,-588,-28,-11000,12000,272000,1019687,
4484,-364,16804,-414,-508,-17,-11000,12000,272000,1019689,
5228,-396,16636,-231,1343,-52,-11000,12000,272000,1019702,
5356,-488,16632,-212,1720,-78,-11000,12000,272000,1019704,
5036,-608,16572,-187,2141,-58,-11000,12000,272000,1019707,
4276,-756,16064,100,3985,106,-11000,12000,272000,1019719,
4192,-872,15836,194,4157,165,-11000,12000,272000,1019721,
3852,-868,15960,151,4166,191,-11000,12000,272000,1019724,
3152,-428,16252,218,4246,393,-11000,12000,272000,1019736,
2884,-188,16236,146,4052,290,-11000,12000,272000,1019738,
2972,-168,16248,198,3982,232,-11000,13000,272000,1019741,
2732,-104,16328,-75,3453,-331,-11000,13000,271000,1019753,
2716,-132,16476,-37,3449,-333,-11000,13000,271000,1019755,
2392,-304,16368,-95,3266,-416,-11000,13000,271000,1019758,
1700,-420,16224,-164,2169,-24,-11000,13000,271000,1019770,
1544,-472,16148,-228,1847,-10,-11000,13000,271000,1019772,
1708,-368,16244,-182,1614,119,-11000,13000,271000,1019775,
2108,-92,16136,-342,220,4,-10000,13000,271000,1019787,
1900,-96,15856,-282,122,-19,-10000,13000,271000,1019789,
2116,-88,15832,-392,-66,-121,-10000,13000,271000,1019792,
2064,32,15756,-426,-602,-39,-10000,13000,271000,1019804,
2376,148,15800,-526,-750,4,-10000,12000,271000,1019806,
2396,168,15996,-462,-766,113,-10000,12000,271000,1019809,
3196,232,16336,-658,-1037,262,-10000,12000,272000,1019821,
3240,136,16224,-557,-840,315,-10000,12000,272000,1019823,
3412,208,16332,-689,-773,247,-10000,12000,272000,1019826,
3764,-432,16200,-489,183,244,-10000,12000,272000,1019838,
3868,-268,16136,-604,239,228,-10000,12000,272000,1019840,
3732,-448,16172,-452,441,284,-10000,12000,272000,1019843,
3464,-548,15984,-263,1059,331,-10000,12000,272000,1019855,
3492,-356,15920,-129,1222,348,-10000,12000,272000,1019857,
3488,-400,15808,-242,1309,313,-10000,12000,272000,1019860,
3272,-112,15732,-28,2068,181,-10000,12000,272000,1019872,
3292,-348,15736,-81,2152,160,-10000,12000,272000,1019874,
3152,-248,15576,-5,2299,111,-10000,12000,272000,1019877,
3268,-136,15456,-140,2673,66,-10000,12000,272000,1019889,
3316,68,15700,-190,2590,43,-10000,12000,272000,1019891,
3084,104,15836,-194,2614,89,-10000,12000,272000,1019894,
2884,272,16528,-523,2410,-7,-10000,12000,272000,1019906,
2640,64,16660,-460,2433,-34,-10000,12000,272000,1019908,
2796,96,16688,-628,2331,-142,-10000,12000,272000,1019911,
2612,-448,16756,-565,2119,-325,-10000,12000,271000,1019923,
2492,-488,16728,-715,2002,-352,-10000,12000,271000,1019926,
2340,-560,16680,-564,1968,-350,-10000,12000,271000,1019928,
2312,-384,16232,-641,1592,-242,-10000,12000,271000,1019940,
2316,-452,16368,-574,1610,-302,-10000,12000,271000,1019943,
2500,-328,16092,-660,1534,-251,-10000,12000,271000,1019945,
2640,-408,15732,-611,1777,-267,-10000,12000,271000,1019958,
2656,-360,15488,-661,1869,-207,-10000,12000,271000,1019960,
2552,-456,15592,-568,2025,-217,-10000,12000,271000,1019962,
3132,-1004,15092,-509,2944,123,-10000,13000,271000,1019975,
3136,-1008,14964,-537,3102,176,-10000,13000,271000,1019977,
3172,-1068,14748,-472,3313,276,-10000,13000,271000,1019979,
3096,-732,15196,-568,4017,462,-10000,13000,271000,1019992,
2932,-440,15128,-449,4095,496,-10000,13000,271000,1019994,
2924,-268,15412,-574,4002,506,-10000,13000,271000,1019996,
2460,44,16012,-662,3651,468,-10000,13000,271000,1020009,
2376,120,16080,-888,3458,419,-10000,13000,271000,1020011,
2096,44,16312,-756,3321,372,-10000,13000,271000,1020013,
1356,-452,16468,-991,1986,-1,-10000,13000,271000,1020026,
1444,-468,16576,-862,1777,-37,-10000,13000,271000,1020028,
1216,-572,16660,-1015,1396,-82,-10000,13000,271000,1020030,
1500,-144,16492,-922,101,-127,-10000,13000,271000,1020043,
1536,-44,16416,-1073,-119,-122,-10000,13000,271000,1020045,
1840,128,16416,-983,-251,-203,-10000,13000,271000,1020047,
2312,312,16248,-1306,-960,-633,-10000,13000,271000,1020060,
2384,220,16364,-1263,-1019,-711,-10000,13000,271000,1020062,
2212,104,16412,-1398,-1107,-729,-10000,13000,271000,1020064,
2176,-128,16480,-1540,-1520,-702,-11000,13000,271000,1020077,
2520,-200,16416,-1588,-1524,-663,-11000,12000,271000,1020079,
2380,-424,16500,-1573,-1535,-686,-11000,12000,271000,1020082,
2740,-652,16324,-1474,-1390,-721,-11000,12000,271000,1020094,
2556,-620,16368,-1570,-1453,-744,-11000,12000,271000,1020096,
2552,-616,16468,-1442,-1329,-747,-11000,12000,271000,1020099,
2052,-604,16456,-1540,-1301,-715,-11000,12000,271000,1020111,
1848,-528,16360,-1446,-1235,-652,-11000,12000,271000,1020113,
1812,-492,16468,-1523,-1328,-660,-11000,12000,271000,1020116,
1908,-284,16900,-1448,-1535,-569,-11000,11000,271000,1020128,
1876,-248,17176,-1590,-1675,-598,-11000,11000,271000,1020130,
2284,-276,17636,-1458,-1806,-599,-11000,11000,271000,1020143,
2300,-272,17560,-1546,-1896,-636,-11000,11000,271000,1020145,
2288,-344,17680,-1385,-1827,-605,-11000,11000,271000,1020147,
2568,-748,17308,-1223,-1451,-412,-11000,11000,271000,1020160,
2652,-784,17188,-1026,-1318,-371,-11000,11000,271000,1020162,
2816,-744,16968,-1092,-1246,-306,-11000,11000,271000,1020164,
2544,-724,16716,-634,-592,-38,-11000,10000,271000,1020177,
2412,-824,16404,-635,-484,35,-11000,10000,271000,1020179,
2516,-656,16396,-516,-344,44,-11000,10000,271000,1020182,
2716,-496,16544,-387,251,94,-11000,10000,271000,1020194,
2992,-500,16556,-321,334,23,-11000,10000,271000,1020196,
2868,-500,16480,-354,481,29,-11000,10000,271000,1020199,
2884,-864,16724,-201,1036,-87,-11000,10000,271000,1020211,
2580,-960,16728,-122,1179,-10,-11000,10000,271000,1020213,
2672,-1016,16704,-111,1201,-53,-11000,10000,271000,1020216,
2428,-876,16508,8,1547,141,-11000,10000,271000,1020228,
2528,-764,16516,-29,1532,110,-11000,10000,271000,1020230,
2420,-788,16468,26,1603,117,-11000,10000,271000,1020233,
2324,-256,16404,-191,1402,-49,-11000,10000,271000,1020245,
2332,-320,16412,-144,1410,-19,-11000,10000,271000,1020248,
2304,-360,16276,-250,1301,-96,-11000,10000,271000,1020250,
2076,-584,15988,-270,1219,-96,-11000,10000,271000,1020262,
2160,-728,15900,-407,1089,-115,-11000,10000,271000,1020265,
2068,-732,15792,-294,1140,-42,-11000,10000,271000,1020267,
2232,-448,16092,-523,677,137,-11000,10000,271000,1020280,
2300,-336,16020,-397,641,108,-11000,10000,271000,1020282,
2132,-320,16000,-579,502,98,-11000,10000,271000,1020284,
1948,-504,16156,-529,257,-134,-11000,10000,271000,1020297,
1960,-520,16112,-685,186,-165,-11000,10000,271000,1020299,
