Ax,Ay,Az,Gx,Gy,Gz,Roll,Pitch,Yaw,Timestamp,Target
-2648,-6756,14812,-4,-240,-572,-22000,9000,287000,580919,
-2600,-6616,14804,120,201,-460,-22000,9000,287000,580932,
-2744,-6632,14944,148,279,-455,-22000,9000,287000,580934,
-2796,-6496,14960,168,303,-394,-22000,9000,287000,580936,
-3048,-6276,14864,32,364,-218,-22000,9000,287000,580949,
-3188,-6316,14896,29,296,-156,-22000,9000,287000,580951,
-3272,-6300,14924,-29,240,-137,-22000,9000,287000,580953,
-3400,-6376,15012,-137,-470,28,-22000,9000,287000,580966,
-3436,-6396,15128,-152,-663,48,-22000,9000,287000,580968,
-3316,-6496,15020,-176,-779,48,-22000,9000,287000,580971,
-2932,-6544,15168,-101,-1322,96,-22000,9000,287000,580983,
-2820,-6532,15096,-121,-1315,124,-22000,9000,287000,580985,
-2620,-6540,14984,-99,-1304,171,-22000,9000,287000,580988,
-2392,-6700,15152,-53,-980,248,-22000,9000,287000,581000,
-2204,-6692,15108,-48,-904,271,-22000,9000,287000,581003,
-2204,-6740,14940,-61,-809,272,-22000,9000,287000,58100,
-3600,-196,15524,-631,401,-807,0,8000,268000,584114,
-3720,-132,15636,-637,363,-795,0,8000,268000,584116,
-2416,-6340,15176,-66,-62,-269,-22000,9000,287000,581052,
-2352,-6348,15184,-66,-53,-300,-22000,9000,287000,581054,
-2368,-6332,15220,-49,-13,-312,-22000,9000,287000,581056,
-2508,-6504,14792,-37,73,-332,-22000,9000,287000,581069,
-2592,-6468,15072,-30,105,-341,-22000,9000,287000,581071,
-2620,-6532,15032,-28,135,-340,-22000,9000,287000,581074,
-2760,-6576,14744,-25,14,-368,-22000,9000,287000,581086,
-2856,-6608,14968,-38,-57,-383,-22000,9000,287000,581089,
-2840,-6788,14820,-67,-51,-425,-22000,9000,287000,581091,
-2956,-6728,14832,-153,-245,-469,-22000,9000,287000,581103,
-2844,-6616,14944,-173,-253,-476,-22000,9000,287000,581106,
-2920,-6692,14808,-185,-260,-481,-22000,9000,287000,581108,
-2864,-6628,14736,-196,-159,-410,-22000,9000,287000,581121,
-2692,-6724,14840,-229,-75,-366,-22000,9000,287000,581123,
-2768,-6732,14772,-194,-33,-350,-22000,9000,287000,581125,
-2800,-6944,14552,-167,209,-218,-22000,9000,287000,581138,
-2848,-6868,14584,-186,246,-201,-22000,9000,287000,581140,
-2920,-6900,14620,-183,268,-158,-22000,9000,287000,581142,
-3116,-6840,14876,-229,85,-159,-22000,9000,287000,581155,
-3168,-7004,14708,-228,35,-174,-22000,9000,287000,581157,
-3220,-6956,14800,-225,-18,-169,-22000,9000,287000,581160,
-3180,-6964,14684,-291,-300,-195,-23000,9000,287000,581172,
-3032,-6988,14720,-321,-341,-186,-23000,9000,287000,581175,
-3000,-6936,14504,-308,-351,-203,-23000,9000,287000,581177,
-2908,-6768,14604,-316,-410,-102,-23000,9000,287000,581190,
-2816,-6740,14752,-324,-369,-50,-23000,9000,287000,581192,
-2900,-6748,14780,-325,-365,-27,-23000,9000,287000,581194,
-2956,-6852,14640,-328,-338,172,-23000,9000,287000,581207,
-2924,-6860,14592,-328,-351,208,-23000,9000,287000,581209,
-2920,-6848,14732,-328,-337,232,-23000,9000,287000,581211,
-2856,-6888,14688,-366,-390,228,-23000,9000,287000,581224,
-2808,-6916,14628,-354,-404,239,-23000,9000,287000,581226,
-2760,-6908,14928,-340,-392,233,-23000,9000,287000,581228,
-2728,-7052,14876,-363,-331,188,-23000,9000,287000,581241,
-2560,-6980,14776,-361,-324,170,-23000,9000,287000,581243,
-2640,-7052,14772,-373,-295,147,-23000,9000,287000,581246,
-2436,-6856,14808,-363,19,89,-23000,9000,287000,581258,
-2440,-6872,14876,-367,84,82,-23000,9000,287000,581261,
-2456,-6844,14768,-381,141,103,-23000,9000,287000,581263,
-2564,-6732,14768,-363,318,150,-23000,9000,287000,581275,
-2568,-6740,14916,-338,314,138,-23000,9000,287000,581278,
-2676,-6776,14944,-349,330,120,-23000,9000,287000,581280,
-2764,-6824,15084,-368,186,63,-23000,9000,287000,581293,
-2752,-6676,15164,-393,159,15,-23000,9000,287000,581295,
-2936,-6848,15256,-369,77,16,-23000,9000,287000,581297,
-2804,-6848,15276,-450,-186,-116,-23000,9000,287000,581310,
-2748,-6836,15184,-457,-240,-146,-23000,9000,287000,581312,
-2708,-6840,15152,-450,-251,-161,-23000,9000,287000,581315,
-2640,-6976,14928,-406,-209,-137,-23000,9000,287000,581327,
-2540,-6884,15156,-406,-163,-126,-23000,9000,287000,581330,
-2584,-6848,15068,-391,-145,-83,-23000,9000,287000,581332,
-2572,-6920,15104,-369,95,3,-23000,9000,287000,581344,
-2600,-6892,15044,-362,91,12,-23000,9000,287000,581347,
-2748,-7004,15256,-333,128,24,-23000,9000,287000,581349,
-2916,-6936,15344,-355,-13,41,-23000,9000,287000,581362,
-2876,-7004,15112,-371,-59,49,-23000,9000,287000,581364,
-2944,-7024,15332,-367,-114,43,-23000,9000,287000,581366,
-2820,-7052,15096,-403,-365,-4,-23000,9000,287000,581379,
-2804,-7080,15244,-409,-405,6,-23000,9000,287000,581381,
-2784,-7248,15296,-396,-409,5,-23000,9000,287000,581383,
-2560,-7160,15292,-343,-422,64,-23000,8000,287000,581396,
-2600,-7096,15232,-337,-378,62,-23000,8000,287000,581398,
-2556,-7220,15220,-323,-357,84,-23000,8000,287000,581401,
-2448,-7148,15308,-265,-79,143,-23000,8000,287000,581413,
-2532,-7124,15008,-248,-15,157,-23000,8000,287000,581415,
-2540,-7128,15208,-226,32,157,-23000,8000,287000,581418,
-2500,-7088,15540,-172,331,168,-23000,9000,287000,581430,
-2528,-7076,15572,-159,341,130,-23000,9000,287000,581433,
-2468,-7072,15728,-176,385,127,-23000,9000,287000,581435,
-2700,-7208,15536,-131,347,83,-23000,9000,287000,581447,
-2744,-7196,15692,-121,337,80,-23000,9000,287000,581450,
-2756,-7168,15552,-112,307,87,-23000,9000,287000,581452,
-2756,-7056,15488,30,246,91,-23000,9000,287000,581465,
-2604,-7064,15560,46,220,71,-23000,9000,287000,581467,
-2644,-7156,15588,91,201,118,-23000,9000,287000,581469,
-2804,-6944,15500,161,68,161,-23000,9000,287000,581482,
-2804,-6972,15216,162,24,189,-23000,9000,287000,581484,
-2760,-6928,15292,177,-42,213,-23000,9000,287000,581486,
-2804,-6988,15356,117,-463,209,-23000,9000,287000,581499,
-2860,-6992,15204,156,-571,199,-23000,9000,287000,581501,
-2996,-7032,15088,153,-638,242,-23000,9000,287000,581503,
-2844,-7260,15152,66,-972,298,-23000,8000,287000,581516,
-2680,-7324,14904,66,-1002,294,-23000,8000,287000,581518,
-2644,-7236,14952,39,-1017,276,-23000,8000,287000,581521,
-2464,-7332,15096,33,-888,263,-23000,8000,287000,581533,
-2440,-7256,14988,31,-840,251,-23000,8000,287000,581536,
-2544,-7224,14932,54,-804,246,-23000,8000,287000,581538,
-2280,-7340,14972,120,-487,186,-23000,8000,287000,581551,
-2284,-7268,14944,142,-449,186,-23000,8000,287000,581553,
-2356,-7192,14932,157,-375,176,-23000,8000,287000,581555,
-2444,-7056,15156,179,-218,144,-23000,8000,287000,581568,
-2488,-6996,14908,203,-216,121,-23000,8000,287000,581570,
-2440,-7052,14820,211,-214,152,-23000,8000,287000,581572,
-2656,-6904,14960,196,-320,113,-23000,8000,287000,581585,
-2760,-7084,14976,189,-334,123,-23000,8000,287000,581587,
-2668,-6992,14904,161,-374,108,-23000,8000,287000,581590,
-2608,-7044,14684,140,-546,71,-23000,8000,287000,581602,
-2688,-7044,14804,124,-574,72,-23000,8000,287000,581605,
-2624,-7008,14900,139,-553,63,-23000,8000,287000,581607,
-2384,-7028,14748,144,-520,65,-23000,8000,287000,581619,
-2388,-7132,14776,146,-508,42,-23000,8000,287000,581622,
-2468,-7068,14736,160,-465,21,-23000,8000,287000,581624,
-2232,-7080,14644,181,-120,19,-23000,8000,287000,581637,
-2168,-7096,14800,205,-54,0,-23000,8000,287000,581639,
-2244,-7084,14692,197,26,7,-23000,8000,287000,581641,
-2344,-7020,14676,189,311,-20,-23000,8000,287000,581654,
-2472,-7004,14716,167,350,-28,-23000,8000,287000,581656,
-2336,-7016,14824,152,387,-36,-23000,8000,287000,581658,
-2632,-6940,14876,118,315,-41,-23000,8000,287000,581671,
-2600,-6780,14720,137,287,-25,-23000,8000,287000,581673,
-2708,-6796,14896,139,252,-32,-23000,8000,287000,581676,
-2612,-6976,14832,95,8,-36,-23000,8000,287000,581688,
-2664,-6968,14756,100,-27,-45,-23000,8000,287000,581690,
-2668,-6968,14780,82,-51,-42,-23000,8000,287000,581693,
-2540,-7016,14852,98,-158,-77,-23000,8000,287000,581705,
-2552,-7004,14636,89,-137,-64,-23000,8000,287000,581708,
-2628,-7052,14736,97,-147,-74,-23000,8000,287000,581710,
-2512,-7060,14796,60,-62,-87,-23000,8000,287000,581723,
-2464,-6980,14812,57,-20,-88,-23000,8000,287000,581725,
-2424,-6988,14816,49,-28,-91,-23000,8000,287000,581727,
-2448,-7016,14908,-6,77,-78,-23000,8000,287000,581740,
-2456,-7048,14804,0,125,-66,-23000,8000,287000,581742,
-2488,-7060,14872,-4,145,-62,-23000,8000,287000,581744,
-2352,-7092,14796,21,317,-60,-23000,8000,287000,581757,
-2252,-7064,15008,12,367,-84,-23000,8000,287000,581759,
-2444,-6964,14736,40,395,-89,-23000,8000,287000,581762,
-2296,-6900,14788,52,488,-61,-23000,8000,287000,581774,
-2424,-6912,14732,74,486,-30,-23000,8000,287000,581776,
-2568,-6828,14668,64,485,-33,-23000,8000,287000,581779,
-2656,-7000,14932,18,230,-46,-23000,8000,287000,581791,
-2620,-6920,14828,11,173,-96,-23000,8000,287000,581794,
-2704,-6892,14768,7,90,-87,-23000,8000,287000,581796,
-2760,-7104,14796,-110,-287,-259,-23000,8000,287000,581809,
-2740,-7148,14892,-120,-334,-277,-23000,8000,287000,581811,
-2720,-7140,14824,-139,-348,-335,-23000,8000,287000,581813,
-2544,-7136,14776,-143,-392,-479,-23000,8000,287000,581826,
-2524,-7096,14996,-144,-359,-467,-23000,8000,287000,581828,
-2464,-7044,14856,-176,-338,-486,-23000,8000,287000,581830,
-2464,-7056,14768,-106,-145,-376,-23000,8000,287000,581843,
-2408,-7108,14840,-117,-116,-379,-23000,8000,287000,581845,
-2388,-7064,14820,-96,-126,-333,-23000,8000,287000,581848,
-2708,-6980,14904,-87,-77,-264,-23000,8000,287000,581860,
-2768,-7140,14808,-87,-72,-241,-23000,8000,287000,581863,
-2668,-7100,14988,-77,-107,-223,-23000,8000,287000,581865,
-2824,-7100,14956,-94,-302,-220,-23000,8000,287000,581878,
-2760,-7136,14920,-103,-329,-229,-23000,8000,287000,581880,
-2740,-7156,14900,-94,-362,-200,-23000,8000,287000,581882,
-2636,-7248,14804,-79,-428,-197,-24000,8000,287000,581895,
-2600,-7176,14760,-93,-394,-163,-24000,8000,287000,581897,
-2608,-7284,14584,-76,-363,-179,-24000,8000,287000,581899,
-2392,-7116,14656,-57,23,-116,-24000,8000,287000,581912,
-2464,-7092,14740,-85,94,-86,-24000,8000,287000,581914,
-2472,-7108,14808,-53,162,-61,-24000,8000,287000,581917,
-2768,-7116,14944,-66,335,-18,-24000,8000,287000,581929,
-2712,-7116,14880,-49,322,-35,-24000,8000,287000,581931,
-2680,-7156,14784,-80,308,-58,-24000,8000,287000,581934,
-2816,-7136,15008,-45,145,-74,-24000,8000,287000,581946,
-2676,-7180,14924,-61,94,-71,-24000,8000,287000,581949,
-2748,-7196,14916,-48,71,-101,-24000,8000,287000,581951,
-2784,-7204,14956,-60,-47,-115,-24000,8000,287000,581964,
-2740,-7236,15104,-85,-29,-109,-24000,8000,287000,581966,
-2592,-7176,14976,-76,-51,-116,-24000,8000,287000,581968,
-2672,-7088,15100,-44,-65,-110,-24000,8000,287000,581981,
-2656,-7064,15076,-55,-53,-115,-24000,8000,287000,581983,
-2668,-7076,14952,-55,-5,-98,-24000,8000,287000,581985,
-2464,-7008,14912,-59,44,-44,-24000,8000,287000,581998,
-2632,-6932,14968,-62,18,-23,-24000,8000,287000,582000,
-2560,-6936,14840,-43,35,-18,-24000,8000,287000,582003,
-2724,-7068,15240,-44,33,38,-24000,8000,287000,582015,
-2728,-7072,15144,-44,23,48,-24000,8000,287000,582018,
-2684,-7072,15036,-47,2,53,-24000,8000,287000,582020,
-2628,-7124,15072,-21,13,55,-24000,8000,287000,582022,
-2496,-7160,15316,-6,-63,-18,-24000,8000,287000,582035,
-2680,-7192,15204,10,-76,-15,-24000,8000,287000,582037,
-2496,-7204,15244,2,-116,-31,-24000,8000,287000,582039,
-2420,-7060,15308,99,-69,-74,-24000,8000,287000,582052,
-2380,-7080,15252,73,-61,-66,-24000,8000,287000,582054,
-2380,-7076,15272,120,-20,-74,-24000,8000,287000,582057,
-2436,-7172,15104,152,74,-93,-24000,8000,287000,582069,
-2420,-7140,15236,196,123,-111,-24000,8000,287000,582071,
-2428,-7096,15080,185,142,-127,-24000,8000,287000,582074,
-2404,-7088,15268,233,296,-150,-24000,8000,287000,582086,
-2352,-7068,15216,241,310,-157,-24000,8000,287000,582089,
-2456,-7116,15192,228,303,-153,-24000,8000,287000,582091,
-2532,-7168,15208,240,311,-176,-24000,8000,287000,582104,
-2528,-7020,15072,236,274,-184,-24000,8000,287000,582106,
-2548,-7180,15056,243,239,-176,-24000,8000,287000,582108,
-2712,-7064,15036,215,67,-198,-24000,8000,287000,582121,
-2576,-7128,14992,227,59,-198,-24000,8000,287000,582123,
-2680,-7188,15112,217,21,-195,-24000,8000,287000,582125,
-2748,-7140,15168,192,-119,-185,-24000,8000,287000,582138,
-2680,-7184,15224,168,-142,-168,-24000,8000,287000,582140,
-2712,-7128,15136,170,-167,-155,-24000,8000,287000,582143,
-2628,-7148,15092,200,-200,-149,-24000,8000,287000,582155,
-2504,-7208,15024,224,-207,-134,-24000,8000,287000,582158,
-2588,-7172,15000,219,-181,-134,-24000,8000,287000,582160,
-2684,-7260,15144,267,-191,-89,-24000,8000,287000,582172,
-2668,-7140,15000,247,-175,-74,-24000,8000,287000,582175,
-2596,-7240,15000,252,-160,-73,-24000,8000,287000,582177,
-2636,-7248,14960,294,-74,-74,-24000,8000,287000,582190,
-2556,-7232,15076,324,-58,-89,-24000,8000,287000,582192,
-2560,-7296,15084,305,-57,-73,-24000,8000,287000,582194,
-2648,-7140,14896,331,37,-80,-24000,8000,287000,582207,
-2504,-7060,14904,338,67,-67,-24000,8000,287000,582209,
-2644,-7088,14976,365,79,-74,-24000,8000,287000,582211,
-2760,-7108,15064,349,96,-81,-23000,8000,287000,582224,
-2704,-7016,14936,336,103,-58,-23000,8000,287000,582226,
-2816,-7080,14932,332,87,-75,-23000,8000,287000,582229,
-2692,-7148,14792,321,47,-82,-23000,8000,287000,582241,
-2792,-7180,14636,295,41,-75,-23000,8000,287000,582243,
-2780,-7172,14904,292,44,-73,-23000,8000,287000,582246,
-2776,-7016,14784,319,-7,8,-23000,8000,287000,582258,
-2760,-7104,14868,312,-40,10,-23000,8000,287000,582261,
-2712,-6908,14820,307,-42,30,-23000,8000,287000,582263,
-2768,-6916,14612,308,-65,103,-23000,8000,287000,582276,
-2800,-6972,14872,320,-85,124,-23000,8000,287000,582278,
-2700,-7068,14768,317,-81,113,-23000,8000,287000,582280,
-2676,-6876,14640,263,-92,89,-23000,8000,287000,582293,
-2672,-7004,14680,253,-119,123,-23000,8000,287000,582295,
-2732,-6976,14700,246,-96,115,-23000,8000,287000,582297,
-2604,-7016,14672,225,-146,117,-23000,8000,287000,582310,
-2580,-6972,14664,180,-129,124,-23000,8000,287000,582312,
-2680,-7084,14744,168,-152,116,-23000,8000,287000,582315,
-2516,-7072,14692,150,-74,151,-23000,8000,287000,582327,
-2492,-7152,14752,152,-60,157,-23000,8000,287000,582330,
-2380,-7064,14536,164,-8,171,-23000,8000,287000,582332,
-2364,-7016,14660,160,191,174,-23000,8000,287000,582344,
-2388,-6984,14932,159,219,157,-23000,8000,287000,582347,
-2436,-6976,14584,157,223,168,-23000,8000,287000,582349,
-2548,-6984,14660,173,115,167,-23000,8000,287000,582362,
-2584,-6884,14812,177,99,157,-23000,8000,287000,582364,
-2588,-6948,14788,173,48,174,-23000,8000,287000,582366,
-2556,-7032,14852,148,-192,139,-23000,8000,287000,582379,
-2512,-7108,14584,161,-201,120,-23000,8000,287000,582381,
-2472,-7012,14888,150,-216,108,-23000,8000,287000,582383,
-2336,-6976,14600,115,-103,93,-23000,8000,287000,582396,
-2348,-6936,14784,84,-69,79,-23000,8000,287000,582398,
-2232,-7140,14636,79,-55,65,-23000,8000,287000,582401,
-2408,-6992,14700,28,60,37,-23000,8000,287000,582413,
-2480,-7020,14584,40,92,41,-23000,8000,287000,582416,
-2440,-7076,14664,10,73,9,-23000,8000,287000,582418,
-2560,-7008,14908,37,91,16,-23000,8000,287000,582420,
-2432,-7048,14984,-11,89,-21,-23000,8000,287000,582433,
-2544,-7100,14972,-9,91,-16,-23000,8000,287000,582435,
-2492,-7128,14988,-10,84,-7,-23000,8000,287000,582437,
-2452,-7076,14920,-14,143,10,-23000,8000,287000,582450,
-2456,-6916,14780,33,173,27,-23000,8000,287000,582452,
-2508,-6964,14956,27,199,-1,-23000,8000,287000,582455,
-2508,-6944,14916,34,179,25,-23000,8000,287000,582467,
-2492,-7036,14944,20,160,39,-23000,8000,287000,582470,
-2556,-6928,14912,16,134,34,-23000,8000,287000,582472,
-2592,-7036,14876,20,92,51,-23000,8000,287000,582474,
-2660,-604,17160,-579,210,221,0,8000,268000,584284,
-2580,-420,17064,-530,410,288,0,8000,268000,584297,
-2660,-480,16964,-507,418,326,0,8000,268000,584299,
-2748,-444,17184,-494,433,329,0,8000,268000,584301,
-2700,-376,16992,-497,406,375,0,8000,268000,584304,
-2860,-468,16960,-469,221,435,0,8000,268000,584316,
-2920,-616,16940,-450,151,455,0,8000,268000,584318,
-2996,-632,16952,-459,113,431,0,8000,268000,584321,
-2696,-664,16796,-432,-165,391,0,8000,268000,584333,
-2628,-612,16784,-420,-192,381,0,8000,268000,584336,
-2600,-596,16884,-423,-178,368,0,8000,268000,584338,
-2600,-464,16820,-385,-141,340,0,8000,268000,584340,
-2024,-556,17096,-273,159,300,0,8000,268000,584353,
-1912,-564,17016,-246,246,323,0,8000,268000,584355,
-1856,-500,17168,-252,340,297,0,8000,268000,584357,
-1996,-732,17268,-240,614,278,0,8000,268000,584370,
-2052,-756,17296,-256,650,246,0,8000,268000,584372,
-1992,-604,17224,-231,672,242,0,8000,268000,584374,
-2072,-624,17208,-211,683,210,0,8000,268000,584377,
-2156,-684,17468,-123,468,-3,0,8000,268000,584389,
-2256,-572,17352,-112,375,-22,0,8000,268000,584391,
-2172,-740,17332,-92,318,-53,0,8000,268000,584394,
-2032,-600,17316,-86,110,-94,0,8000,268000,584406,
-2060,-576,17332,-76,60,-119,0,8000,268000,584408,
-1988,-596,17260,-81,47,-105,0,8000,268000,584411,
-2076,-596,17116,-67,35,-108,0,8000,268000,584413,
-2160,-828,17364,-34,-70,-149,0,8000,268000,584426,
-2176,-772,17304,-22,-66,-143,0,8000,268000,584428,
-2300,-796,17252,-10,-125,-133,0,8000,268000,584430,
-2320,-944,17344,10,-162,-139,0,8000,268000,584432,
-2212,-1044,17328,62,-354,-195,0,8000,268000,584445,
-2280,-1112,17412,101,-368,-202,0,8000,268000,584447,
-2252,-1132,17200,112,-398,-231,0,8000,268000,584450,
-2188,-860,17148,235,-483,-230,0,8000,268000,584462,
-2196,-956,17052,223,-493,-233,0,8000,268000,584465,
-2228,-900,17072,253,-478,-207,0,8000,268000,584467,
-2100,-960,17328,232,-482,-190,0,8000,268000,584469,
-2240,-944,17028,240,-406,-136,0,8000,268000,584482,
-2360,-944,17044,258,-393,-123,0,8000,268000,584484,
-2252,-988,17056,247,-408,-116,0,8000,268000,584486,
-2292,-796,16836,237,-427,-97,0,8000,268000,584499,
-2208,-900,16872,258,-428,-69,0,8000,268000,584501,
-2232,-1052,16944,238,-426,-85,0,8000,268000,584503,
-2212,-972,16816,282,-438,-113,0,8000,268000,584506,
-1960,-1012,16636,331,-335,-143,0,8000,268000,584518,
-2084,-1000,16776,356,-309,-158,0,8000,268000,584521,
-2044,-1084,16640,359,-272,-154,0,8000,268000,584523,
-2144,-936,16788,435,-288,-196,0,8000,268000,584535,
-2196,-944,16792,453,-318,-189,0,8000,268000,584538,
-2052,-900,16732,433,-316,-207,0,8000,268000,584540,
-2100,-816,16608,441,-339,-226,0,8000,268000,584542,
-1984,-684,16736,469,-352,-236,0,8000,268000,584555,
-2096,-720,16852,467,-327,-243,0,8000,268000,584557,
-2100,-732,16740,459,-314,-258,0,8000,268000,584559,
-1768,-776,16668,467,-127,-256,0,8000,267000,584572,
-1884,-772,16804,466,-78,-264,0,8000,267000,584574,
-1812,-768,16776,498,-73,-287,0,8000,267000,584577,
-1892,-740,16752,489,-3,-310,0,8000,267000,584579,
-1868,-756,16792,542,63,-434,0,8000,267000,584592,
-1776,-816,16616,552,41,-475,0,8000,267000,584594,
-1832,-736,16584,576,27,-476,0,8000,267000,584596,
-1812,-728,16676,573,22,-520,0,8000,267000,584598,
-1904,-640,16664,553,-91,-721,0,8000,267000,584611,
-1876,-636,16648,568,-110,-768,0,8000,267000,584613,
-1940,-540,16768,563,-157,-805,0,8000,267000,584616,
-1900,-580,16784,522,-266,-1035,0,8000,267000,584628,
-2008,-608,16896,529,-268,-1057,0,8000,267000,584631,
-1972,-704,16720,516,-289,-1108,0,8000,267000,584633,
-1896,-568,16744,493,-292,-1129,0,8000,267000,584635,
-1748,-340,16940,525,-243,-1265,0,8000,267000,584648,
-1736,-264,16760,533,-230,-1288,0,8000,267000,584650,
-1924,-300,16732,539,-210,-1298,0,8000,267000,584652,
-1960,-424,16928,584,-95,-1357,0,8000,267000,584665,
-1908,-588,17068,572,-31,-1347,0,8000,267000,584667,
-1908,-616,17028,569,-4,-1365,0,8000,267000,584670,
-1756,-636,17032,579,92,-1399,0,8000,267000,584672,
-1976,-620,17012,642,391,-1465,0,8000,267000,584684,
-2032,-608,16920,666,429,-1469,0,8000,267000,584687,
-2000,-428,17040,656,435,-1503,0,8000,267000,584689,
-2360,-396,17240,691,270,-1631,0,8000,266000,584701,
-2568,-396,17276,718,202,-1622,0,8000,266000,584704,
-2716,-292,17328,735,129,-1640,0,8000,266000,584706,
-2668,-348,17368,720,46,-1611,0,8000,266000,584708,
-3116,-280,17672,737,-425,-1577,0,8000,266000,584721,
-3048,-324,17904,743,-470,-1574,0,8000,266000,584723,
-3156,-420,18088,756,-513,-1611,0,8000,266000,584726,
-3528,-180,18060,837,-571,-1468,0,8000,266000,584738,
-3504,-168,18232,883,-574,-1387,0,8000,266000,584741,
-3484,-124,18352,911,-579,-1367,0,8000,266000,584743,
-3424,-124,18480,920,-521,-1309,0,8000,266000,584745,
-3444,148,18776,1125,-221,-1207,0,8000,266000,584758,
-3512,132,18944,1163,-137,-1187,0,8000,266000,584760,
-3572,188,19004,1174,-71,-1174,0,8000,266000,584762,
-3916,284,19396,1381,540,-988,0,8000,266000,584775,
-4028,448,19552,1428,673,-915,0,8000,266000,584777,
-3968,336,19360,1464,851,-876,0,8000,266000,584779,
-4076,432,19520,1526,975,-813,0,8000,266000,584782,
-4548,364,19824,1935,1999,-384,0,8000,266000,584794,
-4744,424,19828,2020,2186,-308,0,8000,266000,584797,
-5016,400,19648,2107,2402,-233,0,8000,266000,584799,
-5784,192,19728,2522,3415,413,0,8000,266000,584811,
-6100,168,19960,2591,3592,511,0,9000,266000,584814,
-6364,36,19884,2674,3701,634,0,9000,266000,584816,
-6448,172,20080,2710,3845,756,0,9000,266000,584818,
-7528,156,19700,3141,4156,1431,1000,9000,266000,584831,
-7684,76,19644,3197,4175,1513,1000,9000,266000,584833,
-7644,252,19688,3241,4159,1642,1000,9000,266000,584835,
-8660,288,19152,3519,3620,2336,1000,10000,266000,584848,
-8792,460,19228,3578,3465,2515,1000,10000,266000,584850,
-8784,448,19120,3615,3296,2663,1000,10000,266000,584852,
-9004,516,18876,3793,2312,3294,2000,10000,266000,584865,
-9032,604,18788,3827,2142,3398,2000,10000,267000,584867,
-9044,668,18688,3804,1977,3532,2000,10000,267000,584870,
-8932,548,17980,3870,1143,4275,2000,11000,267000,584882,
-9076,520,17892,3880,1062,4402,2000,11000,267000,584885,
-8960,500,17824,3934,934,4551,3000,11000,267000,584887,
-8740,440,16968,4102,623,5201,3000,11000,268000,584899,
-8652,344,16992,4143,583,5338,3000,11000,268000,584902,
-8632,224,16972,4140,537,5473,3000,11000,268000,584904,
-8308,588,16368,4163,435,6199,4000,11000,269000,584916,
-8228,604,16164,4148,437,6341,4000,11000,269000,584919,
-8108,548,16028,4163,453,6487,4000,11000,269000,584921,
-7704,680,15616,4089,612,7190,4000,11000,269000,584934,
-7728,808,15312,4073,622,7317,5000,11000,270000,584936,
-7720,792,15296,4053,611,7437,5000,11000,270000,584938,
-7432,908,14560,3859,534,7994,5000,11000,270000,584951,
-7216,860,14608,3846,471,8099,5000,11000,271000,584953,
-7128,940,14636,3782,424,8199,5000,11000,271000,584955,
-6644,820,14140,3533,280,8753,6000,11000,272000,584968,
-6468,840,13980,3493,286,8838,6000,11000,272000,584970,
-6428,920,13708,3447,315,8910,6000,11000,272000,584973,
-5396,856,13512,3166,693,9340,7000,11000,273000,584985,
-5248,932,13392,3105,773,9453,7000,11000,273000,584987,
-5356,916,13296,3059,866,9520,7000,11000,273000,584990,
-5152,840,12792,2659,1036,10120,7000,11000,274000,585002,
-5144,924,12824,2590,974,10212,7000,11000,274000,585005,
-5040,860,12868,2517,922,10292,7000,11000,275000,585007,
-5024,652,12908,2242,196,10532,8000,11000,276000,585020,
-5064,532,12484,2194,15,10544,8000,11000,276000,585022,
-5044,448,12576,2142,-182,10561,8000,11000,276000,585024,
-4232,92,11840,1696,-1247,10560,8000,11000,277000,585037,
-4020,232,11664,1610,-1460,10558,8000,11000,277000,585039,
-3960,148,11696,1527,-1608,10572,8000,11000,277000,585041,
-2936,416,10948,970,-2173,10689,8000,10000,278000,585054,
-2688,260,10864,877,-2213,10726,9000,10000,279000,585056,
-2600,340,10780,762,-2304,10749,9000,10000,279000,585058,
-1712,292,10368,92,-2531,10792,9000,10000,280000,585071,
-1744,256,10248,-27,-2579,10764,9000,10000,280000,585073,
-1628,228,10128,-165,-2652,10732,9000,10000,280000,585076,
-1316,-184,10320,-822,-3114,10641,9000,9000,281000,585088,
-1204,-204,10288,-935,-3170,10619,9000,9000,281000,585090,
-1128,-332,10260,-1079,-3273,10583,9000,9000,281000,585093,
252,-620,10116,-1622,-3283,10295,9000,9000,282000,585105,
316,-620,9936,-1715,-3183,10265,9000,8000,282000,585108,
560,-632,10108,-1814,-3087,10213,9000,8000,283000,585110,
1644,-268,9828,-2355,-2113,10077,9000,8000,284000,585122,
1768,-172,9824,-2447,-1867,10059,8000,8000,284000,585125,
1828,-136,9976,-2561,-1655,10034,8000,8000,284000,585127,
1544,60,10564,-3159,-961,9923,8000,7000,285000,585140,
1548,8,10604,-3240,-977,9853,8000,7000,285000,585142,
1464,72,10792,-3336,-1041,9751,8000,7000,285000,585144,
1364,64,11156,-3459,-1109,9638,8000,7000,285000,585147,
1408,-384,11236,-4008,-2183,8874,8000,7000,286000,585159,
1396,-388,11560,-4106,-2457,8697,8000,7000,286000,585161,
1608,-452,11560,-4189,-2696,8540,8000,7000,286000,585164,
2824,-584,12064,-4497,-3878,7527,7000,6000,287000,585176,
3000,-532,12320,-4580,-4016,7340,7000,6000,287000,585179,
3192,-456,12240,-4578,-4161,7153,7000,6000,287000,585181,
4364,-432,12580,-4809,-4304,6376,7000,5000,288000,585193,
4708,-452,12472,-4839,-4233,6279,6000,5000,288000,585196,
4984,-400,12552,-4934,-4098,6164,6000,5000,288000,585198,
5688,-324,12876,-5305,-3204,5636,6000,4000,289000,585211,
5796,-324,13008,-5368,-3019,5557,6000,4000,289000,585213,
5968,-224,13224,-5451,-2816,5464,6000,4000,289000,585215,
5344,-440,13916,-5897,-2154,4863,5000,4000,289000,585228,
5052,-708,14308,-5928,-2154,4776,5000,4000,289000,585230,
4888,-876,14312,-6017,-2154,4690,5000,4000,289000,585232,
4612,-1636,15148,-6300,-2926,3721,4000,3000,290000,585245,
4624,-1736,15424,-6291,-3119,3517,4000,3000,290000,585247,
4780,-1784,15300,-6305,-3336,3223,4000,3000,290000,585250,
5892,-2016,15328,-6131,-4097,2020,3000,2000,290000,585262,
6364,-1964,15176,-6093,-4109,1833,3000,2000,290000,585265,
6468,-1864,15340,-6070,-4086,1703,3000,2000,290000,585267,
7792,-1576,14984,-5905,-3172,1003,2000,2000,290000,585279,
7980,-1420,15016,-5945,-2874,880,2000,2000,290000,585282,
8168,-1484,15060,-5949,-2546,766,2000,2000,290000,585284,
7804,-1700,15220,-6118,-765,214,2000,1000,290000,585297,
7644,-1632,15484,-6170,-493,80,2000,1000,290000,585299,
7340,-1912,15568,-6206,-243,-54,1000,1000,290000,585301,
6244,-2288,16312,-6363,387,-880,1000,1000,290000,585314,
6080,-2292,16456,-6361,374,-1059,1000,1000,290000,585316,
5948,-2388,16784,-6325,340,-1242,0,1000,290000,585318,
5452,-2652,17344,-6252,-296,-2054,0,1000,290000,585331,
5564,-2632,17612,-6226,-424,-2239,0,1000,290000,585333,
5672,-2728,17320,-6240,-532,-2420,0,1000,290000,585335,
6212,-2752,16520,-6236,-863,-3522,0,1000,289000,585348,
6244,-2588,16512,-6273,-856,-3709,0,1000,289000,585351,
6288,-2576,16272,-6252,-832,-3888,0,1000,289000,585353,
6280,-2488,16276,-6314,-399,-4735,-1000,0,289000,585365,
6144,-2472,16336,-6336,-266,-4865,-1000,0,289000,585368,
6092,-2584,16388,-6351,-176,-5030,-1000,0,289000,585370,
5336,-3060,17152,-6336,159,-5780,-2000,0,288000,585383,
5316,-3144,17432,-6361,185,-5920,-2000,0,288000,585385,
5344,-3092,17508,-6359,176,-6055,-2000,0,288000,585387,
4580,-3296,18116,-6308,-121,-6844,-3000,0,287000,585400,
4496,-3312,18132,-6292,-225,-6951,-3000,0,287000,585402,
4560,-3412,18332,-6271,-249,-7110,-3000,0,287000,585404,
4260,-3540,18056,-6188,-446,-7831,-4000,0,286000,585417,
4532,-3720,17872,-6168,-416,-7987,-4000,0,286000,585419,
4436,-3740,17860,-6101,-358,-8099,-4000,0,286000,585421,
4956,-3804,17800,-5640,606,-8737,-5000,0,285000,585434,
4876,-3924,17740,-5559,924,-8824,-5000,0,285000,585436,
4992,-3988,17532,-5478,1224,-8908,-5000,0,285000,585438,
4700,-3948,17944,-5213,2859,-9336,-5000,0,284000,585451,
4600,-3920,17944,-5137,3161,-9434,-5000,0,284000,585453,
4416,-4060,17860,-5095,3444,-9508,-5000,0,283000,585456,
3068,-4292,18536,-4821,4418,-9889,-6000,0,283000,585468,
2976,-4392,18488,-4748,4457,-9944,-6000,0,282000,585470,
2684,-4468,18312,-4725,4520,-10028,-6000,0,282000,585473,
1876,-4560,18388,-4491,4475,-10510,-7000,0,281000,585485,
1652,-4584,18388,-4441,4466,-10603,-7000,1000,281000,585488,
1596,-4672,18388,-4392,4387,-10712,-7000,1000,281000,585490,
1232,-4660,18204,-4180,4236,-11249,-7000,1000,280000,585503,
1236,-4628,18184,-4136,4211,-11352,-7000,1000,279000,585505,
1196,-4656,17968,-4092,4253,-11413,-7000,1000,279000,585507,
844,-4716,17820,-3784,4616,-11629,-8000,1000,278000,585520,
908,-4820,17652,-3715,4718,-11670,-8000,1000,278000,585522,
844,-4824,17600,-3658,4842,-11664,-8000,1000,278000,585524,
264,-5188,17052,-3463,5449,-11800,-9000,2000,276000,585537,
68,-5184,16896,-3449,5533,-11800,-9000,2000,276000,585539,
-28,-5092,16808,-3412,5649,-11811,-9000,2000,276000,585542,
-900,-5060,16772,-3230,6184,-11865,-9000,2000,275000,585554,
-956,-5100,16808,-3221,6265,-11872,-9000,2000,274000,585556,
-1212,-5092,16692,-3194,6336,-11869,-9000,2000,274000,585559,
-2196,-5468,16672,-3136,6304,-11972,-10000,3000,273000,585571,
-2292,-5448,16696,-3169,6253,-12009,-10000,3000,273000,585574,
-2552,-5524,16552,-3161,6184,-12067,-10000,3000,273000,585576,
-3148,-5320,16596,-3162,5513,-12400,-10000,3000,271000,585589,
-3276,-5312,16668,-3134,5310,-12356,-10000,3000,271000,585591,
-3400,-5340,16624,-3132,5198,-12313,-10000,3000,271000,585593,
-3908,-5108,16180,-3129,4472,-12430,-11000,4000,270000,585606,
-3884,-4984,15892,-3107,4368,-12310,-11000,4000,269000,585608,
-3660,-5028,15324,-3053,4608,-12248,-11000,4000,268000,585621,
-3680,-5108,15264,-3072,4712,-12359,-11000,4000,268000,585623,
-3796,-5096,15312,-3051,4856,-12246,-11000,4000,268000,585625,
-4276,-5164,15144,-2990,5710,-11839,-12000,4000,266000,585638,
-4304,-5136,15256,-2982,5847,-11772,-12000,4000,266000,585640,
-4320,-5192,15264,-2957,5987,-11715,-12000,4000,266000,585642,
-5080,-5296,15304,-2824,6673,-11354,-12000,5000,265000,585655,
-5392,-5320,15268,-2787,6776,-11265,-13000,5000,264000,585657,
-5444,-5392,15264,-2775,6825,-11142,-13000,5000,264000,585660,
-6256,-5424,14280,-2854,7255,-10475,-13000,6000,263000,585672,
-6324,-5392,13920,-2870,7295,-10371,-13000,6000,263000,585675,
-6984,-5172,13732,-3102,7440,-9729,-14000,6000,262000,585687,
-7096,-5180,13844,-3155,7430,-9587,-14000,6000,262000,585690,
-7332,-5040,13896,-3149,7351,-9511,-14000,7000,261000,585692,
-8764,-5428,14240,-3344,6424,-9039,-14000,7000,260000,585705,
-8884,-5352,14196,-3395,6120,-8948,-14000,7000,260000,585707,
-8892,-5456,14244,-3418,5849,-8876,-14000,7000,260000,585709,
-9040,-5384,14308,-3690,4090,-8576,-15000,8000,259000,585722,
-8996,-5336,14100,-3737,3818,-8521,-15000,8000,259000,585724,
-8992,-5312,13960,-3788,3571,-8447,-15000,8000,259000,585726,
-8528,-5004,13624,-3977,2871,-7692,-16000,8000,258000,585739,
-8412,-4836,13388,-4035,2853,-7546,-16000,8000,258000,585741,
-8288,-4860,13456,-4074,2854,-7343,-16000,8000,258000,585744,
-8132,-4696,13484,-4261,3202,-6356,-16000,8000,257000,585756,
-8244,-4676,13456,-4295,3262,-6160,-17000,8000,257000,585759,
-8432,-4536,13484,-4316,3295,-5971,-17000,8000,257000,585761,
-9252,-5248,13964,-4504,3128,-5127,-17000,9000,256000,585774,
-9328,-5328,14160,-4558,3009,-4988,-17000,9000,256000,585776,
-9820,-5464,14480,-4769,2047,-4345,-18000,9000,256000,585789,
-9860,-5548,14532,-4824,1839,-4257,-18000,9000,255000,585791,
-9912,-5516,14280,-4848,1706,-4155,-18000,9000,255000,585793,
-9532,-5524,13844,-5088,920,-3545,-19000,9000,255000,585806,
-9356,-5560,13880,-5100,853,-3415,-19000,9000,255000,585808,
-9432,-5500,13648,-5136,776,-3247,-19000,9000,255000,585811,
-9128,-5580,13452,-5211,709,-2312,-19000,9000,255000,585823,
-9164,-5488,13576,-5207,736,-2162,-19000,9000,255000,585825,
-9020,-5484,13636,-5246,792,-2011,-20000,9000,255000,585828,
-9140,-5472,13908,-5432,986,-1312,-20000,9000,254000,585840,
-9336,-5412,13860,-5449,966,-1181,-20000,9000,254000,585843,
-9376,-5380,14024,-5546,962,-1015,-20000,9000,254000,585845,
-9780,-5504,14992,-5703,414,-265,-21000,10000,254000,585858,
-9892,-5684,15160,-5747,266,-102,-21000,10000,254000,585860,
-9888,-5744,15360,-5754,134,23,-21000,10000,254000,585862,
-10148,-5992,15228,-6042,-547,821,-22000,10000,254000,585875,
-10024,-6024,15340,-6075,-667,980,-22000,10000,254000,585877,
-9856,-6056,15196,-6069,-708,1146,-22000,10000,254000,585879,
-9032,-5900,15172,-5959,-489,2023,-22000,10000,255000,585892,
-8900,-5896,15064,-5926,-360,2208,-22000,10000,255000,585894,
-8776,-5808,15208,-5925,-222,2416,-23000,10000,255000,585897,
-8732,-6084,15604,-5796,357,3426,-23000,10000,255000,585909,
-8852,-6176,15464,-5799,393,3596,-23000,10000,255000,585912,
-9692,-6652,15308,-6033,-321,4207,-24000,11000,256000,585924,
-9920,-6668,15376,-6059,-621,4289,-24000,11000,256000,585927,
-10056,-6660,15820,-6073,-920,4333,-24000,11000,256000,585929,
-10192,-6460,16572,-5973,-2957,4603,-24000,11000,256000,585941,
-10312,-6440,16564,-5984,-3292,4689,-24000,11000,256000,585944,
-10336,-6700,16680,-5973,-3606,4762,-24000,11000,256000,585946,
-8868,-6788,17188,-5849,-4651,5313,-25000,11000,257000,585959,
-8708,-6744,17036,-5791,-4662,5450,-25000,11000,257000,585961,
-8520,-6752,17192,-5734,-4642,5645,-25000,11000,257000,585963,
-7640,-7016,16536,-5383,-3880,6662,-25000,11000,258000,585976,
-7692,-7172,16628,-5383,-3754,6816,-25000,11000,258000,585978,
-8004,-7884,16408,-5238,-3367,7434,-26000,11000,259000,585991,
-8180,-7988,16420,-5172,-3456,7511,-26000,11000,259000,585993,
-8296,-7988,16584,-5131,-3555,7538,-26000,11000,259000,585996,
-8836,-8428,16248,-5050,-4564,7688,-26000,11000,260000,586008,
-8892,-8384,16184,-5091,-4814,7728,-26000,11000,260000,586010,
-8760,-8432,16168,-5076,-5040,7785,-26000,11000,261000,586013,
-7840,-7996,16816,-4875,-6036,8040,-27000,11000,261000,586025,
-7552,-7916,17008,-4819,-6110,8085,-27000,11000,262000,586028,
-7496,-7704,17084,-4757,-6219,8219,-27000,11000,262000,586030,
-6568,-7924,17264,-4485,-6279,9133,-27000,11000,263000,586042,
-6308,-8164,17324,-4457,-6242,9295,-27000,11000,263000,586045,
-5840,-8964,17164,-4134,-6091,9776,-27000,10000,264000,586057,
-5952,-9200,17168,-4052,-6087,9873,-27000,10000,264000,586060,
-5932,-9304,17144,-3963,-6104,9933,-27000,10000,265000,586062,
-5852,-9696,17276,-3495,-6309,10147,-27000,10000,266000,586075,
-5720,-9724,17264,-3390,-6366,10170,-27000,10000,266000,586077,
-5728,-9744,17328,-3305,-6384,10161,-27000,10000,266000,586079,
-4836,-9716,17928,-2694,-6476,10116,-27000,10000,267000,586092,
-4748,-9672,17900,-2583,-6478,10135,-27000,10000,268000,586094,
-4240,-9164,18220,-2059,-6112,10438,-27000,10000,269000,586107,
-3996,-9336,18272,-1956,-6021,10562,-27000,10000,269000,586109,
-3820,-9420,18180,-1895,-5928,10628,-27000,10000,269000,586111,
-3428,-9744,18116,-1472,-5207,11019,-27000,10000,270000,586124,
-3316,-9952,18148,-1395,-5078,11065,-27000,10000,271000,586126,
-3308,-9940,18088,-1334,-4958,11104,-27000,10000,271000,586128,
-3012,-10204,18220,-737,-4505,11062,-27000,10000,272000,586141,
-3008,-10308,18436,-629,-4463,11006,-27000,10000,272000,586143,
-2624,-10488,18088,-32,-4007,10955,-27000,11000,273000,586156,
-2404,-10588,17956,51,-3889,10953,-27000,11000,274000,586158,
-2228,-10600,17904,191,-3778,10887,-27000,11000,274000,586161,
-1536,-10556,17352,675,-2833,10772,-27000,11000,275000,586173,
-1572,-10504,17424,763,-2633,10752,-27000,11000,275000,586176,
-1416,-10504,17364,863,-2445,10767,-26000,11000,275000,586178,
-1232,-10048,17724,1266,-1677,10838,-26000,11000,276000,586190,
-1316,-10096,17588,1301,-1603,10832,-26000,11000,277000,586193,
-1316,-10044,17572,1371,-1564,10814,-26000,11000,277000,586195,
-1468,-10296,17548,1632,-1769,10717,-26000,12000,278000,586208,
-1400,-10388,17456,1679,-1890,10665,-26000,12000,278000,586210,
-1116,-10336,16928,1941,-2564,10298,-25000,12000,279000,586223,
-864,-10252,16888,1999,-2731,10201,-25000,12000,279000,586225,
-828,-10236,16936,2049,-2878,10099,-25000,12000,279000,586228,
-472,-10212,16444,2312,-3469,9589,-25000,12000,280000,586240,
-268,-10256,16404,2351,-3505,9490,-25000,12000,280000,586243,
-52,-10312,16292,2415,-3556,9370,-25000,12000,281000,586245,
564,-10132,15688,2610,-3391,9004,-24000,12000,282000,586257,
580,-9960,15732,2654,-3299,8962,-24000,12000,282000,586260,
748,-9900,15732,2685,-3186,8934,-24000,12000,282000,586262,
1220,-9532,15040,2827,-2376,8762,-24000,12000,283000,586275,
1260,-9480,14912,2825,-2243,8744,-24000,12000,283000,586277,
1104,-9492,14648,2828,-2108,8709,-23000,12000,283000,586279,
972,-9204,14452,2756,-1721,8457,-23000,12000,284000,586292,
856,-9128,14288,2731,-1753,8380,-23000,12000,284000,586294,
696,-9024,14152,2679,-1812,8279,-23000,12000,284000,586296,
0,-8896,14304,2573,-2809,7664,-23000,12000,285000,586309,
-4,-8776,14180,2503,-3106,7509,-23000,12000,285000,586311,
-20,-8784,14172,2489,-3395,7384,-22000,12000,285000,586314,
564,-8456,13772,2333,-4620,6589,-22000,12000,286000,586326,
760,-8472,13692,2315,-4759,6446,-22000,12000,286000,586328,
912,-8196,13712,2319,-4852,6328,-22000,12000,286000,586331,
1800,-7992,13440,2306,-4724,5828,-22000,11000,287000,586343,
1860,-7892,13296,2291,-4563,5777,-22000,11000,287000,586346,
1932,-7856,13284,2256,-4425,5705,-22000,11000,287000,586348,
2280,-7756,13012,2238,-3196,5288,-21000,11000,288000,586360,
2136,-7688,12860,2228,-2929,5211,-21000,11000,288000,586363,
2332,-7652,12860,2213,-2630,5103,-21000,11000,288000,586365,
2056,-7440,12732,2134,-1278,4461,-21000,11000,289000,586378,
1868,-7572,12760,2086,-1063,4352,-21000,11000,289000,586380,
1696,-7532,12868,2066,-886,4236,-21000,11000,289000,586382,
1220,-7164,12816,1801,-228,3696,-21000,11000,289000,586395,
960,-7088,12920,1752,-241,3580,-21000,11000,289000,586397,
896,-7056,12852,1683,-212,3494,-21000,11000,289000,586399,
420,-6776,12872,1396,-555,3076,-20000,11000,289000,586412,
224,-6756,12944,1353,-666,2999,-20000,11000,289000,586414,
96,-6704,13072,1267,-794,2934,-20000,11000,290000,586417,
-52,-6768,13208,934,-1354,2499,-20000,11000,290000,586429,
-200,-6664,13188,867,-1451,2399,-20000,11000,290000,586431,
-216,-6776,13292,796,-1562,2297,-20000,11000,290000,586434,
-432,-6816,13380,523,-1989,1844,-20000,10000,290000,586446,
-312,-6860,13280,494,-2053,1776,-20000,10000,290000,586449,
-348,-6740,13296,472,-2118,1679,-20000,10000,290000,586451,
-420,-6636,13620,328,-2184,1171,-20000,10000,290000,586464,
-344,-6712,13648,298,-2117,1098,-20000,10000,290000,586466,
-376,-6788,13664,287,-2066,983,-20000,10000,290000,586468,
-260,-6424,14012,218,-1488,568,-20000,10000,291000,586481,
-172,-6488,13956,182,-1327,479,-20000,10000,291000,586483,
-172,-6452,14028,221,-1173,417,-20000,10000,291000,586485,
-536,-6244,13904,238,-285,277,-20000,10000,291000,586498,
-528,-6308,13912,202,-157,243,-20000,10000,291000,586500,
-584,-6240,14188,205,-47,214,-20000,10000,291000,586503,
-1144,-6288,14012,87,358,44,-20000,10000,291000,586515,
-1216,-6368,14072,62,382,-14,-20000,10000,291000,586518,
-1384,-6272,14228,50,431,-42,-20000,10000,291000,586520,
-1740,-6404,14560,-64,475,-274,-20000,10000,291000,586532,
-1840,-6288,14520,-104,468,-279,-20000,10000,291000,586535,
-1908,-6448,14472,-114,431,-309,-20000,10000,291000,586537,
-2036,-6416,14776,-236,365,-474,-20000,10000,290000,586550,
-1964,-6276,14564,-236,326,-469,-20000,10000,290000,586552,
-1944,-6428,14476,-235,364,-463,-20000,10000,290000,586554,
-2156,-6240,15008,-252,296,-495,-20000,10000,290000,586567,
-2116,-6296,14916,-232,289,-484,-20000,10000,290000,586569,
-2216,-6312,14892,-238,291,-505,-20000,10000,290000,586572,
-2392,-6176,15240,-206,287,-626,-20000,10000,290000,586584,
-2500,-6308,15196,-186,255,-664,-20000,10000,290000,586587,
-2456,-6300,15276,-184,254,-675,-20000,10000,290000,586589,
-2464,-6180,15032,-125,246,-839,-20000,10000,290000,586601,
-2484,-6168,15160,-134,240,-818,-20000,10000,290000,586604,
-2528,-6104,15120,-136,211,-820,-20000,10000,290000,586606,
-2656,-6016,15104,-95,84,-851,-20000,10000,290000,586619,
-2860,-6040,15296,-98,45,-862,-20000,10000,290000,586621,
-2868,-6164,15084,-103,-15,-882,-20000,10000,290000,586623,
-3040,-6056,15336,-202,-351,-1008,-21000,10000,290000,586636,
-3092,-6020,15340,-202,-424,-1028,-21000,10000,290000,586638,
-3040,-6104,15320,-224,-503,-1056,-21000,10000,290000,586640,
-2844,-5968,15488,-311,-796,-1106,-21000,9000,290000,586653,
-2860,-6076,15536,-307,-811,-1101,-21000,9000,290000,586655,
-2888,-6040,15488,-311,-815,-1115,-21000,9000,290000,586658,
-2768,-6232,15468,-294,-593,-1141,-21000,9000,290000,586670,
-2668,-6364,15388,-272,-506,-1114,-21000,9000,290000,586673,
-2660,-6172,15252,-276,-449,-1143,-21000,9000,290000,586675,
-2600,-6164,15416,-92,147,-1186,-21000,9000,290000,586688,
-2696,-6288,15412,-65,230,-1150,-21000,9000,290000,586690,
-2672,-6208,15172,-63,344,-1145,-21000,9000,290000,586692,
-2992,-5972,15144,-59,524,-1098,-21000,9000,289000,586705,
-3152,-6100,15136,-63,492,-1134,-21000,9000,289000,586707,
-3128,-5960,15120,-70,477,-1122,-21000,9000,289000,586710,
-3448,-6084,15232,-111,264,-1194,-21000,9000,289000,586722,
-3560,-6100,15324,-114,206,-1191,-21000,9000,289000,586725,
-3388,-6036,15404,-155,170,-1204,-21000,9000,289000,586727,
-3460,-6092,15316,-187,106,-1183,-21000,9000,289000,586739,
-3400,-5976,15276,-170,72,-1151,-21000,9000,289000,586742,
-3308,-5888,15436,-177,54,-1135,-21000,9000,289000,586744,
-3332,-6164,15632,-118,-60,-981,-21000,9000,289000,586757,
-3440,-6236,15556,-89,-46,-960,-21000,9000,289000,586759,
-3368,-6192,15496,-83,-54,-901,-21000,9000,289000,586761,
-3304,-6308,15420,-24,-60,-746,-21000,9000,289000,586774,
-3280,-6504,15364,-13,-54,-744,-21000,9000,289000,586776,
-3280,-6416,15468,-9,-22,-743,-21000,9000,289000,586778,
-3492,-6304,15180,73,122,-719,-21000,9000,289000,586791,
-3300,-6296,15192,80,146,-696,-21000,9000,289000,586793,
-3444,-6384,15180,101,127,-708,-21000,9000,289000,586796,
-3404,-6200,15288,126,210,-664,-21000,9000,289000,586808,
-3520,-6156,15352,148,238,-636,-21000,9000,289000,586810,
-3348,-6292,15136,149,219,-635,-21000,9000,289000,586813,
-3408,-6144,15220,157,265,-488,-21000,9000,289000,586825,
-3512,-6184,15228,149,232,-450,-21000,9000,289000,586828,
-3344,-6156,15148,166,221,-414,-21000,9000,289000,586830,
-3572,-6156,15128,67,88,-264,-21000,9000,289000,586843,
-3448,-6120,15032,65,36,-280,-21000,9000,289000,586845,
-3552,-6280,15056,55,-9,-278,-21000,9000,289000,586847,
-3584,-6236,15248,-59,-359,-265,-21000,9000,289000,586860,
-3520,-6300,15292,-63,-410,-300,-21000,9000,289000,586862,
-3488,-6236,15352,-58,-482,-296,-21000,9000,289000,586864,
-3208,-6136,15360,-37,-662,-344,-21000,9000,289000,586877,
-3164,-6160,15172,-10,-653,-338,-21000,9000,289000,586879,
-3080,-6124,15252,9,-640,-312,-21000,9000,289000,586882,
-2852,-6184,14968,55,-347,-185,-21000,9000,289000,586894,
-2872,-6208,14924,59,-276,-153,-21000,9000,289000,586897,
-2780,-6144,14852,79,-167,-131,-21000,9000,289000,586899,
-3052,-6264,15160,71,74,-84,-21000,9000,289000,586911,
-3204,-6288,15132,57,32,-101,-21000,9000,289000,586914,
-3292,-6344,15168,48,27,-88,-21000,9000,289000,586916,
-3308,-6256,15464,-17,-259,-280,-21000,9000,289000,586929,
-3464,-6316,15392,-12,-327,-294,-21000,9000,289000,586931,
-3308,-6276,15428,-5,-378,-339,-21000,9000,289000,586933,
-3120,-6156,15304,-44,-391,-259,-21000,9000,289000,586946,
-2964,-6068,15248,-38,-374,-252,-21000,9000,289000,586948,
-2936,-6272,15428,-23,-327,-201,-21000,9000,289000,586950,
-2980,-6232,15184,21,-52,-96,-21000,9000,288000,586963,
-3024,-6152,15508,40,-15,-85,-21000,9000,288000,586965,
-3012,-6328,15380,79,52,-48,-21000,9000,288000,586968,
-3240,-6144,15492,134,139,-7,-21000,9000,288000,586980,
-3236,-6172,15340,112,112,-4,-21000,9000,288000,586982,
-3292,-6240,15476,149,70,-21,-21000,9000,288000,586985,
-3364,-6352,15536,153,-248,-42,-21000,9000,288000,586997,
-3360,-6268,15312,128,-296,-50,-21000,9000,288000,587000,
-3256,-6276,15420,138,-358,-18,-21000,9000,288000,587002,
-3088,-6340,15304,125,-546,11,-21000,9000,289000,587014,
-3108,-6288,15364,121,-552,19,-21000,9000,289000,587017,
