Ax,Ay,Az,Gx,Gy,Gz,Roll,Pitch,Yaw,Timestamp,Target
-732,-2656,16524,-425,218,-59,-16000,4000,275000,378820,
-772,-2760,16456,-407,210,-15,-16000,4000,275000,378823,
-708,-2712,16444,-412,211,-1,-16000,4000,275000,378835,
-620,-2760,16448,-456,186,26,-16000,4000,275000,378838,
-688,-2760,16420,-450,142,3,-16000,4000,275000,378850,
-736,-2840,16468,-474,156,35,-16000,4000,275000,378852,
-760,-2672,16536,-474,139,-1,-16000,4000,275000,378855,
-728,-2780,16428,-477,185,24,-16000,4000,275000,378867,
-796,-2788,16392,-435,200,-19,-16000,4000,275000,378870,
-804,-2808,16356,-420,188,12,-16000,4000,275000,378872,
-768,-2800,16400,-437,163,-34,-16000,4000,275000,378885,
-776,-2756,16400,-434,130,-26,-16000,4000,275000,378887,
-720,-2820,16468,-442,88,-33,-16000,4000,275000,378889,
-676,-2704,16400,-409,47,-12,-16000,4000,275000,378902,
-812,-2812,16492,-460,63,-40,-16000,4000,275000,378904,
-664,-2764,16276,-448,95,-55,-16000,4000,275000,378906,
-816,-2720,16524,-436,38,-34,-16000,4000,275000,378919,
-680,-2760,16300,-405,81,-48,-16000,4000,275000,378921,
-612,-2624,16436,-428,58,-8,-16000,4000,275000,378924,
-696,-2696,16456,-415,88,20,-16000,4000,275000,378936,
-660,-2676,16548,-431,73,22,-16000,4000,275000,378939,
-652,-2724,16460,-461,76,44,-16000,4000,275000,378941,
-652,-2656,16444,-412,104,16,-16000,4000,275000,378943,
-580,-2752,16396,-429,126,26,-16000,4000,275000,378956,
-652,-2736,16416,-394,115,-1,-16000,4000,275000,378958,
-504,-2812,16564,-406,115,37,-16000,4000,275000,378960,
-576,-2756,16484,-362,183,17,-16000,4000,275000,378973,
-632,-2752,16368,-395,140,-22,-16000,4000,275000,378975,
-688,-2720,16472,-391,165,-30,-16000,4000,275000,378978,
-692,-2620,16536,-393,167,-7,-16000,4000,275000,378990,
-668,-2744,16404,-387,166,-3,-16000,4000,275000,378992,
-768,-2604,16480,-376,155,22,-16000,4000,275000,378995,
-624,-2628,16480,-417,221,28,-16000,4000,275000,379007,
-640,-2636,16568,-369,190,28,-16000,4000,275000,379010,
-636,-2696,16604,-407,211,75,-16000,4000,275000,379012,
-620,-2732,16348,-379,214,22,-16000,4000,275000,379025,
-484,-2612,16492,-395,222,31,-16000,4000,275000,379027,
-692,-2676,16508,-417,270,26,-16000,4000,275000,379029,
-660,-2740,16376,-378,265,39,-16000,4000,275000,379042,
-692,-2688,16464,-378,266,37,-16000,4000,275000,379044,
-752,-2676,16468,-407,248,39,-16000,4000,275000,379047,
-808,-2712,16396,-362,242,30,-16000,4000,275000,379060,
-740,-2688,16320,-415,235,36,-16000,4000,275000,379062,
-720,-2712,16372,-435,225,37,-16000,4000,275000,379064,
-784,-2724,16240,-441,170,45,-16000,4000,275000,379077,
-944,-2692,16524,-432,198,41,-16000,4000,275000,379079,
-812,-2740,16324,-406,161,11,-16000,4000,275000,379081,
-768,-2736,16476,-440,78,-5,-16000,4000,275000,379094,
-744,-2692,16528,-445,55,19,-16000,4000,275000,379096,
-732,-2732,16380,-459,89,2,-16000,4000,275000,379099,
-824,-2788,16352,-429,44,3,-16000,4000,275000,379101,
-648,-2696,16380,-402,107,-5,-16000,4000,275000,379114,
-692,-2708,16432,-417,58,5,-16000,4000,275000,379116,
-580,-2672,16540,-464,92,15,-16000,4000,275000,379118,
-664,-2632,16376,-446,156,16,-16000,4000,275000,379131,
-548,-2700,16444,-449,198,42,-16000,4000,275000,379133,
-528,-2556,16536,-426,218,3,-16000,4000,275000,379136,
-448,-2736,16488,-489,305,59,-16000,4000,275000,379148,
-524,-2788,16348,-421,334,70,-16000,4000,275000,379151,
-512,-2644,16480,-466,335,88,-16000,4000,275000,379153,
-512,-2708,16380,-395,396,75,-16000,4000,275000,379166,
-632,-2680,16488,-450,396,85,-16000,4000,275000,379168,
-688,-2760,16420,-425,452,74,-16000,4000,275000,379170,
-732,-2808,16636,-443,391,91,-16000,4000,275000,379183,
-760,-2792,16424,-419,421,78,-16000,4000,275000,379185,
-732,-2820,16552,-424,338,60,-16000,4000,275000,379187,
-788,-2796,16476,-429,269,41,-16000,4000,275000,379200,
-940,-2648,16384,-441,202,74,-16000,4000,275000,379202,
-1032,-2744,16616,-453,172,84,-16000,4000,275000,379205,
-852,-2796,16368,-446,68,58,-16000,4000,275000,379217,
-828,-2788,16476,-467,99,33,-16000,4000,275000,379220,
-948,-2768,16516,-437,105,18,-16000,4000,275000,379222,
-560,-2664,16300,-455,87,17,-16000,4000,275000,379235,
-564,-2640,16648,-406,88,15,-16000,4000,275000,379237,
-708,-2596,16528,-446,79,15,-16000,4000,275000,379240,
-624,-2664,16580,-466,99,24,-16000,4000,275000,379242,
-560,-2588,16456,-455,100,43,-16000,4000,275000,379255,
-460,-2720,16636,-433,142,39,-16000,4000,275000,379257,
-588,-2652,16600,-421,91,34,-16000,4000,275000,379259,
-560,-2780,16624,-426,218,45,-16000,4000,275000,379272,
-584,-2732,16516,-397,203,50,-16000,4000,276000,379274,
-640,-2784,16360,-432,229,69,-16000,4000,276000,379276,
-676,-2860,16296,-404,277,51,-16000,4000,276000,379289,
-700,-2648,16500,-445,291,58,-16000,4000,276000,379291,
-644,-2732,16276,-415,359,41,-16000,4000,276000,379294,
-668,-2744,16320,-455,379,47,-16000,4000,275000,379306,
-648,-2668,16412,-444,379,33,-16000,4000,275000,379309,
-692,-2740,16444,-420,329,74,-16000,4000,275000,379311,
-768,-2628,16540,-408,303,40,-16000,4000,275000,379323,
-836,-2640,16508,-424,224,51,-16000,4000,275000,379326,
-892,-2744,16488,-424,219,45,-16000,4000,275000,379328,
-880,-2768,16552,-459,150,38,-16000,4000,276000,379341,
-868,-2772,16300,-430,155,23,-16000,4000,276000,379343,
-848,-2668,16544,-421,84,9,-16000,4000,276000,379345,
-888,-2708,16328,-451,7,10,-16000,4000,276000,379358,
-844,-2688,16492,-423,-10,0,-16000,4000,276000,379360,
-688,-2696,16416,-443,-32,23,-16000,4000,276000,379363,
-580,-2684,16516,-441,-36,-9,-16000,4000,276000,379375,
-620,-2592,16428,-462,-52,-11,-16000,4000,276000,379377,
-680,-2636,16432,-487,1,-12,-16000,4000,276000,379380,
-444,-2600,16512,-450,36,2,-16000,4000,276000,379392,
-592,-2684,16660,-461,59,-14,-16000,4000,276000,379395,
-640,-2740,16548,-408,58,6,-16000,4000,276000,379397,
-552,-2732,16428,-472,62,25,-16000,4000,276000,379400,
-528,-2664,16336,-452,133,6,-16000,4000,276000,379412,
-624,-2676,16472,-445,172,29,-16000,4000,276000,379414,
-568,-2700,16408,-422,197,-17,-16000,4000,276000,379417,
-624,-2768,16528,-433,164,16,-16000,4000,276000,379429,
-612,-2736,16392,-396,173,-38,-16000,4000,276000,379432,
-724,-2716,16588,-421,164,-5,-16000,4000,276000,379434,
-752,-2712,16388,-377,190,-12,-16000,4000,276000,379447,
-716,-2684,16616,-423,174,37,-16000,4000,276000,379449,
-680,-2740,16508,-434,197,18,-16000,4000,276000,379451,
-812,-2740,16544,-434,155,46,-16000,4000,276000,379464,
-688,-2696,16452,-473,177,24,-16000,4000,276000,379466,
-664,-2740,16464,-432,166,22,-16000,4000,276000,379468,
-684,-2664,16556,-466,190,29,-16000,4000,276000,379481,
-684,-2732,16432,-436,148,35,-16000,4000,276000,379483,
-664,-2724,16544,-472,148,43,-16000,4000,276000,379486,
-668,-2724,16572,-402,156,38,-16000,4000,276000,379498,
-628,-2668,16380,-453,159,26,-16000,4000,276000,379501,
-664,-2716,16432,-455,187,54,-16000,4000,276000,379503,
-732,-2700,16460,-444,203,63,-16000,4000,276000,379516,
-620,-2784,16480,-473,240,40,-16000,4000,276000,379518,
-704,-2724,16348,-432,200,45,-16000,4000,276000,379520,
-592,-2668,16508,-436,264,51,-16000,4000,276000,379533,
-512,-2652,16556,-439,276,57,-16000,4000,276000,379535,
-596,-2740,16452,-453,254,78,-16000,4000,276000,379537,
-464,-2812,16460,-426,345,76,-16000,4000,276000,379550,
-456,-2644,16224,-451,367,16,-16000,4000,276000,379552,
-520,-2820,16364,-465,447,16,-16000,4000,276000,379555,
-584,-2776,16464,-432,460,72,-16000,4000,276000,379567,
-560,-2784,16448,-423,475,11,-16000,4000,276000,379570,
-660,-2664,16444,-436,439,64,-16000,4000,276000,379572,
-636,-2584,16492,-428,491,50,-16000,4000,276000,379585,
-844,-2784,16444,-450,437,77,-16000,4000,276000,379587,
-844,-2784,16508,-447,476,76,-16000,4000,276000,379589,
-716,-2696,16404,-446,353,70,-16000,5000,276000,379602,
-840,-2668,16496,-470,364,72,-16000,5000,276000,379604,
-816,-2692,16472,-438,346,-4,-16000,5000,276000,379606,
-804,-2548,16340,-483,315,-9,-16000,5000,276000,379619,
-772,-2624,16492,-423,256,16,-16000,5000,276000,379621,
-832,-2680,16560,-478,255,24,-16000,5000,276000,379624,
-736,-2828,16500,-441,148,8,-16000,5000,276000,379636,
-780,-2716,16548,-465,164,25,-16000,5000,276000,379639,
-648,-2752,16468,-443,174,-10,-16000,5000,276000,379641,
-740,-2720,16452,-461,166,-12,-16000,5000,276000,379653,
-720,-2624,16544,-433,153,0,-16000,5000,276000,379656,
-652,-2624,16224,-435,122,12,-16000,5000,276000,379658,
-804,-2784,16448,-422,109,17,-16000,5000,276000,379671,
-708,-2648,16380,-460,95,27,-16000,5000,276000,379673,
-664,-2640,16508,-452,146,6,-16000,5000,276000,379675,
-708,-2752,16292,-456,123,-3,-16000,5000,276000,379688,
-760,-2732,16320,-431,169,-2,-16000,5000,276000,379690,
-676,-2724,16432,-409,165,1,-16000,5000,276000,379693,
-632,-2724,16336,-456,226,10,-16000,5000,276000,379705,
-588,-2724,16424,-414,176,20,-16000,5000,276000,379707,
-620,-2796,16536,-480,189,21,-16000,5000,276000,379710,
-520,-2684,16584,-431,197,20,-16000,5000,276000,379722,
-716,-2776,16384,-444,244,37,-16000,5000,276000,379725,
-544,-2800,16488,-438,260,-5,-16000,5000,276000,379727,
-604,-2712,16484,-465,224,38,-16000,5000,276000,379740,
-700,-2676,16508,-424,240,22,-16000,5000,276000,379742,
-684,-2716,16480,-438,202,40,-16000,5000,276000,379744,
-772,-2708,16544,-422,230,9,-16000,5000,276000,379757,
-780,-2764,16384,-428,201,36,-16000,5000,276000,379759,
-808,-2680,16524,-448,232,20,-16000,5000,276000,379762,
-784,-2804,16420,-444,176,-8,-16000,5000,276000,379774,
-796,-2668,16440,-422,174,-5,-16000,5000,276000,379776,
-668,-2796,16384,-408,177,-21,-16000,5000,276000,379779,
-732,-2652,16404,-435,131,-55,-16000,5000,276000,379791,
-856,-2800,16472,-396,125,-33,-16000,5000,276000,379794,
-648,-2656,16424,-455,100,-36,-16000,5000,276000,379796,
-672,-2712,16528,-439,140,-1,-16000,5000,276000,379809,
-692,-2688,16460,-443,126,-8,-16000,5000,276000,379811,
-676,-2656,16476,-462,159,-8,-16000,5000,276000,379813,
-604,-2692,16512,-467,133,36,-16000,5000,276000,379826,
-672,-2668,16552,-452,228,8,-16000,5000,276000,379828,
-656,-2716,16436,-428,170,39,-16000,5000,276000,379830,
-572,-2780,16552,-417,300,9,-16000,5000,276000,379843,
-544,-2684,16356,-398,269,20,-16000,5000,276000,379845,
-632,-2724,16552,-429,268,32,-16000,5000,276000,379848,
-604,-2768,16440,-428,270,20,-16000,5000,276000,379860,
-692,-2600,16440,-430,312,-19,-16000,5000,276000,379863,
-700,-2576,16496,-452,358,-6,-16000,5000,276000,379865,
-832,-2556,16436,-462,336,38,-16000,5000,276000,379878,
-820,-2648,16624,-400,329,3,-16000,5000,276000,379880,
-656,-2696,16468,-432,292,35,-16000,5000,276000,379882,
-864,-2688,16440,-402,276,-11,-16000,5000,276000,379895,
-760,-2552,16308,-420,256,12,-16000,5000,276000,379897,
-784,-2652,16572,-448,268,25,-16000,5000,275000,379900,
-772,-2652,16372,-428,244,13,-16000,5000,275000,379912,
-800,-2616,16404,-429,224,23,-16000,5000,275000,379914,
-788,-2768,16500,-422,231,2,-16000,5000,275000,379917,
-732,-2656,16440,-468,258,0,-16000,5000,275000,379929,
-720,-2748,16416,-434,192,9,-16000,5000,275000,379932,
-672,-2692,16560,-466,210,36,-16000,5000,275000,379934,
-764,-2760,16356,-436,214,14,-16000,5000,275000,379946,
-644,-2696,16488,-484,245,31,-16000,5000,275000,379949,
-712,-2824,16436,-464,289,-10,-16000,5000,275000,379951,
-668,-2632,16504,-458,259,32,-16000,5000,275000,379964,
-776,-2728,16380,-454,300,6,-16000,5000,275000,379966,
-696,-2696,16484,-434,253,14,-16000,5000,275000,379968,
-692,-2592,16472,-429,277,2,-16000,5000,275000,379981,
-700,-2756,16476,-452,260,-2,-16000,5000,275000,379983,
-712,-2724,16472,-459,242,23,-16000,5000,275000,379986,
-716,-2768,16432,-428,251,28,-16000,5000,275000,379998,
-792,-2748,16352,-454,255,20,-16000,5000,275000,380001,
-700,-2628,16436,-424,272,2,-16000,5000,275000,380003,
-812,-2640,16536,-455,253,11,-16000,5000,275000,380015,
-760,-2772,16504,-424,210,26,-16000,5000,275000,380018,
-716,-2696,16544,-469,200,38,-16000,5000,275000,380020,
-788,-2612,16500,-427,187,36,-16000,5000,275000,380033,
-736,-2600,16464,-467,149,46,-16000,5000,275000,380035,
-836,-2708,16456,-454,205,23,-16000,5000,275000,380037,
-800,-2696,16468,-460,142,40,-16000,5000,275000,380050,
-692,-2616,16572,-462,188,-2,-16000,5000,275000,380052,
-740,-2752,16524,-436,171,23,-16000,5000,275000,380055,
-632,-2720,16328,-460,209,4,-16000,5000,275000,380067,
-660,-2808,16452,-451,169,10,-16000,5000,275000,380070,
-648,-2676,16348,-467,168,40,-16000,5000,275000,380072,
-784,-2784,16376,-443,160,15,-16000,5000,275000,380084,
-724,-2596,16392,-462,185,45,-16000,5000,275000,380087,
-700,-2748,16492,-449,245,23,-16000,5000,275000,380089,
-668,-2668,16624,-469,183,36,-16000,5000,275000,380102,
-704,-2764,16556,-440,204,19,-16000,5000,275000,380104,
-676,-2660,16412,-461,159,28,-16000,5000,275000,380106,
-708,-2716,16364,-420,178,23,-16000,5000,275000,380119,
-768,-2692,16380,-451,179,36,-16000,5000,275000,380121,
-720,-2700,16432,-464,210,49,-16000,5000,275000,380124,
-704,-2628,16420,-451,173,44,-16000,5000,276000,380136,
-788,-2636,16396,-501,207,23,-16000,5000,276000,380138,
-584,-2648,16396,-434,169,58,-16000,5000,276000,380141,
-628,-2744,16432,-432,257,18,-16000,5000,276000,380153,
-676,-2752,16464,-448,227,57,-16000,5000,276000,380156,
-628,-2660,16456,-476,230,65,-16000,5000,276000,380158,
-784,-2612,16456,-463,237,52,-16000,5000,276000,380171,
-660,-2684,16460,-466,242,40,-16000,5000,276000,380173,
-740,-2676,16540,-437,251,23,-16000,5000,276000,380175,
-772,-2656,16484,-480,235,41,-16000,5000,276000,380188,
-700,-2764,16344,-426,216,31,-16000,5000,276000,380190,
-760,-2748,16456,-447,209,30,-16000,5000,276000,380192,
-772,-2664,16392,-414,199,26,-16000,5000,276000,380205,
-816,-2760,16388,-466,201,41,-16000,5000,276000,380207,
-740,-2664,16368,-441,195,29,-16000,5000,276000,380210,
-816,-2692,16448,-486,133,62,-16000,5000,276000,380222,
-748,-2700,16460,-467,152,18,-16000,5000,276000,380224,
-852,-2748,16472,-459,108,16,-16000,5000,276000,380227,
-740,-2704,16372,-458,123,6,-16000,5000,276000,380239,
-732,-2724,16464,-430,47,34,-16000,5000,276000,380242,
-712,-2700,16532,-502,59,40,-16000,5000,276000,380244,
-788,-2640,16416,-449,73,19,-16000,5000,276000,380247,
-548,-2656,16484,-480,143,0,-16000,5000,276000,380259,
-636,-2784,16296,-423,124,-7,-16000,5000,276000,380261,
-812,-2668,16372,-455,126,31,-16000,5000,276000,380264,
-508,-2652,16388,-434,231,-13,-16000,5000,276000,380276,
-496,-2528,16300,-442,238,21,-16000,5000,276000,380279,
-540,-2736,16460,-450,274,-2,-16000,5000,276000,380281,
-532,-2804,16496,-448,366,13,-16000,5000,276000,380294,
-600,-2760,16428,-423,432,24,-16000,5000,276000,380296,
-608,-2744,16468,-412,397,55,-16000,5000,276000,380299,
-592,-2780,16500,-372,507,10,-16000,5000,276000,380311,
-636,-2688,16396,-418,520,32,-16000,5000,276000,380314,
-548,-2724,16444,-425,518,46,-16000,5000,275000,380316,
-636,-2604,16488,-433,544,69,-16000,5000,275000,380329,
-776,-2660,16520,-416,533,29,-16000,5000,275000,380331,
-692,-2660,16560,-398,535,22,-16000,5000,275000,380333,
-876,-2540,16444,-464,532,58,-16000,5000,275000,380346,
-844,-2524,16332,-439,518,68,-16000,5000,275000,380348,
-760,-2552,16312,-480,483,75,-16000,5000,275000,380350,
-980,-2628,16252,-544,443,98,-16000,5000,275000,380363,
-832,-2632,16308,-604,465,114,-16000,5000,275000,380365,
-908,-2472,16408,-598,510,93,-16000,5000,275000,380368,
-784,-2400,16212,-783,624,212,-16000,5000,275000,380380,
-748,-2564,16448,-822,701,212,-16000,5000,275000,380383,
-568,-2480,16392,-840,770,236,-16000,5000,275000,380385,
-504,-2496,16484,-1196,1287,371,-16000,5000,276000,380398,
-504,-2432,16596,-1310,1257,406,-16000,5000,276000,380400,
-612,-2328,16404,-1469,1242,421,-16000,5000,276000,380402,
-804,-2284,18496,-2298,1175,579,-16000,5000,276000,380419,
-768,-2352,18644,-2398,904,591,-16000,5000,276000,380421,
-892,-2344,19052,-2559,631,632,-16000,5000,276000,380423,
-1300,-2508,20388,-3133,-1651,597,-16000,5000,276000,380436,
-1516,-2660,20912,-3226,-2241,481,-16000,5000,276000,380438,
-1620,-2784,21196,-3278,-2775,335,-17000,5000,276000,380441,
-3000,-4540,24524,-3207,-5003,383,-17000,5000,276000,380453,
-3172,-4728,25196,-2933,-4588,564,-17000,4000,276000,380456,
-3252,-4760,25696,-2562,-3775,826,-17000,4000,276000,380458,
-2768,-5900,27236,-894,-1927,2148,-17000,4000,276000,380471,
-2724,-5992,28216,-856,-1869,2449,-17000,4000,276000,380473,
-2612,-6180,28340,-720,-1792,2766,-17000,4000,276000,380476,
-1348,-6780,27592,-178,-1310,4315,-17000,4000,277000,380489,
-960,-6780,27096,61,-921,4675,-17000,4000,277000,380491,
-668,-6636,26496,380,-568,5056,-17000,4000,277000,380493,
856,-6388,24204,2316,1373,6606,-17000,5000,278000,380506,
884,-6180,23452,2650,1483,6717,-16000,5000,278000,380508,
936,-6052,23044,2960,1711,6829,-16000,5000,278000,380511,
548,-4852,20428,4205,2764,6310,-16000,5000,278000,380523,
428,-4596,19960,4246,2951,6085,-16000,5000,278000,380526,
164,-4292,19672,4312,3091,5834,-16000,5000,278000,380528,
-1708,-3092,20232,4971,2749,4623,-15000,6000,279000,380541,
-2216,-2892,20616,5134,2473,4431,-15000,6000,279000,380543,
-2656,-2796,20588,5172,2059,4324,-15000,6000,279000,380545,
-5668,-2716,22344,5319,-126,4455,-14000,6000,279000,380558,
-5896,-2928,22660,5268,-580,4589,-14000,6000,279000,380560,
-6016,-2968,22952,5320,-1064,4726,-14000,6000,280000,380563,
-6152,-3356,23896,5327,-4002,5354,-14000,6000,280000,380575,
-5924,-3396,24012,5323,-4590,5402,-13000,6000,280000,380578,
-5612,-3416,24140,5398,-5310,5430,-13000,6000,280000,380580,
-4212,-2780,23788,5847,-8200,5431,-13000,5000,281000,380592,
-3844,-2704,23716,5964,-8442,5392,-12000,5000,281000,380595,
-3320,-2320,23440,6000,-8480,5355,-12000,5000,281000,380597,
-1764,-1680,23332,6594,-8326,5140,-12000,4000,282000,380610,
-1304,-1448,23004,6716,-8208,5025,-11000,4000,282000,380612,
-1072,-1500,22968,6824,-7959,4974,-11000,4000,282000,380615,
-316,-1076,22620,7353,-7162,4256,-11000,3000,283000,380627,
-108,-1028,22384,7361,-6547,4074,-10000,3000,283000,380630,
-16,-1000,22108,7292,-6076,4008,-10000,3000,283000,380632,
360,-652,21924,7912,-5847,3239,-9000,2000,283000,380644,
240,-512,21784,7846,-6032,3144,-9000,2000,283000,380647,
304,-508,21792,7862,-6209,3047,-9000,2000,284000,380649,
204,280,22444,7699,-7159,3013,-8000,2000,284000,380662,
296,252,22496,7660,-7112,2988,-8000,1000,284000,380664,
348,332,22612,7659,-7223,3018,-8000,1000,284000,380666,
1320,-88,23264,7791,-7008,2842,-7000,1000,284000,380679,
1504,-196,23356,7916,-6900,2738,-7000,1000,285000,380681,
1720,-276,23440,7984,-6764,2641,-7000,0,285000,380684,
2188,-660,23528,8957,-5746,2035,-6000,0,285000,380696,
2216,-772,23548,9123,-5450,1896,-6000,0,285000,380699,
2204,-780,23628,9363,-5121,1758,-6000,0,285000,380701,
2168,-836,23692,9572,-4811,1609,-5000,0,285000,380703,
1656,-864,23884,10681,-3324,833,-4000,0,285000,380716,
1488,-968,23740,10866,-3210,723,-4000,0,285000,380718,
1376,-976,23560,11069,-3085,591,-4000,0,285000,380721,
144,-1020,22612,12097,-3356,-30,-3000,0,285000,380733,
-28,-1032,22332,12268,-3530,-150,-3000,0,285000,380736,
-324,-1080,22256,12483,-3703,-295,-2000,0,285000,380738,
-1236,-752,20684,12963,-4975,-962,-1000,-1000,285000,380751,
-1244,-612,20612,13100,-5303,-1098,-1000,-1000,285000,380753,
-1368,-464,20180,13098,-5587,-1209,-1000,-1000,285000,380756,
-1180,-128,18992,13380,-7185,-1955,0,-2000,285000,380768,
-1056,36,18840,13404,-7452,-2125,0,-2000,285000,380771,
-1168,44,18644,13491,-7749,-2263,0,-2000,285000,380773,
-500,68,17724,13519,-8822,-2930,2000,-3000,284000,380786,
-336,92,17660,13576,-8950,-3107,2000,-3000,284000,380788,
-100,92,17552,13631,-9034,-3205,2000,-3000,284000,380790,
1052,148,16592,14051,-9433,-4062,4000,-4000,284000,380807,
1100,100,16312,14141,-9411,-4258,4000,-4000,284000,380809,
1244,196,16156,14158,-9344,-4318,4000,-4000,284000,380811,
1836,472,14824,14161,-8624,-4795,6000,-5000,283000,380824,
1808,412,14468,14076,-8460,-4816,6000,-5000,283000,380826,
1888,592,14064,14100,-8287,-4886,6000,-6000,283000,380828,
2132,720,12684,14297,-7083,-5093,8000,-6000,282000,380841,
2168,644,12568,14274,-6753,-5156,8000,-6000,282000,380843,
2168,588,11936,14237,-6570,-5241,8000,-6000,282000,380846,
2436,452,10216,14099,-5298,-5559,10000,-7000,281000,380858,
2376,420,9596,14161,-5103,-5635,10000,-7000,281000,380861,
2456,348,9388,14094,-4854,-5661,10000,-7000,281000,380863,
2336,504,7876,14060,-3468,-5916,12000,-7000,281000,380876,
2444,556,7592,14004,-3208,-5896,12000,-7000,280000,380878,
2336,640,7472,14046,-2918,-5943,12000,-7000,280000,380880,
2300,1016,6604,13928,-1584,-5658,13000,-7000,280000,380893,
2168,1276,5996,13607,-1631,-5694,14000,-8000,280000,380895,
2112,1344,6024,13578,-1512,-5662,14000,-8000,280000,380898,
1796,1724,5124,12986,-948,-5422,15000,-8000,279000,380910,
1716,1912,4768,12800,-933,-5345,16000,-8000,279000,380913,
1656,1908,4472,12621,-910,-5312,16000,-8000,279000,380915,
1140,2236,3720,11882,-964,-5036,17000,-8000,278000,380928,
1064,2352,3492,11721,-1008,-4972,17000,-8000,278000,380930,
1112,2524,3368,11618,-1063,-4978,18000,-8000,278000,380932,
1452,3204,2712,10410,-2023,-4896,19000,-8000,278000,380945,
1384,3292,2740,10233,-2239,-4867,19000,-8000,277000,380947,
1636,3528,2664,9924,-2431,-4809,19000,-8000,277000,380950,
2120,4604,2632,8553,-3021,-4368,20000,-8000,277000,380962,
2296,4980,2604,8227,-3073,-4172,21000,-8000,277000,380965,
2448,5092,2640,7953,-3080,-4053,21000,-8000,277000,380967,
3460,5904,3080,6470,-2603,-3203,22000,-8000,276000,380980,
3572,5948,3140,6203,-2393,-3111,22000,-8000,276000,380982,
3816,6104,3216,5937,-2158,-2951,22000,-8000,276000,380984,
4488,6292,3516,4685,-280,-2312,23000,-8000,276000,380997,
4512,6136,3648,4409,112,-2187,23000,-8000,276000,380999,
4512,6384,3856,4228,518,-2043,23000,-8000,276000,381001,
4284,6500,4880,3302,2251,-1191,23000,-8000,276000,381014,
4168,6668,5040,3070,2508,-1054,23000,-8000,276000,381016,
3984,6804,5328,2937,2704,-928,24000,-8000,276000,381019,
3476,7420,6664,1913,3319,-411,24000,-8000,276000,381031,
3348,7584,7200,1824,3305,-336,24000,-8000,276000,381034,
3200,7688,7392,1684,3342,-262,24000,-8000,276000,381036,
2792,8300,7680,1033,3006,-206,24000,-8000,276000,381048,
2780,8208,7712,519,2601,-261,24000,-8000,276000,381051,
2780,8136,8460,570,2645,-270,24000,-8000,276000,381053,
2372,8308,9084,124,1813,-93,24000,-7000,276000,381066,
2508,8252,9276,71,1702,-71,24000,-7000,276000,381068,
2420,8260,9184,22,1593,-24,24000,-7000,276000,381070,
2360,8144,9668,-62,1446,17,24000,-7000,276000,381073,
3084,7700,10384,-362,765,79,24000,-7000,276000,381085,
3212,7648,10404,-404,687,77,24000,-7000,276000,381088,
3200,7604,10532,-404,625,54,24000,-7000,276000,381090,
3516,7612,11384,-510,350,211,24000,-7000,276000,381103,
3620,7748,11412,-493,333,221,24000,-7000,276000,381105,
3628,7808,11668,-563,286,295,24000,-7000,276000,381107,
4064,7972,12792,-647,-116,461,24000,-7000,276000,381120,
4060,8100,13044,-702,-229,497,24000,-7000,276000,381122,
4208,8080,13336,-709,-342,473,24000,-8000,276000,381124,
4148,7484,14444,-651,-1170,476,24000,-8000,276000,381137,
4144,7592,14436,-611,-1273,444,24000,-8000,276000,381140,
4204,7368,14404,-517,-1404,450,24000,-8000,276000,381142,
4876,7012,14856,-145,-2058,374,24000,-8000,276000,381154,
4884,6988,14828,-97,-2211,359,24000,-8000,276000,381157,
4944,7004,15004,-62,-2311,352,24000,-8000,276000,381159,
6140,7468,15208,245,-2490,285,24000,-8000,276000,381172,
6356,7536,15100,261,-2442,216,24000,-8000,276000,381174,
6520,7664,15092,319,-2375,179,24000,-8000,276000,381176,
7200,7852,14824,482,-1661,-282,25000,-9000,276000,381189,
7276,7764,14664,571,-1467,-413,25000,-9000,276000,381191,
7356,7724,14608,572,-1235,-530,25000,-9000,276000,381194,
7408,7548,14224,777,-35,-1193,25000,-9000,276000,381206,
7384,7488,14084,767,134,-1268,25000,-9000,276000,381209,
7312,7412,13912,781,354,-1413,25000,-9000,276000,381211,
7000,7152,13644,874,818,-1930,25000,-9000,275000,381223,
6816,7052,13624,877,877,-2025,25000,-9000,275000,381226,
6712,7188,13556,903,854,-2109,25000,-9000,275000,381228,
5912,7020,13696,833,491,-2424,25000,-9000,275000,381241,
5852,6792,13604,805,299,-2480,25000,-9000,275000,381243,
5560,6844,13476,782,114,-2512,25000,-9000,275000,381245,
5020,7100,13716,583,-1086,-2942,25000,-9000,275000,381258,
4800,7124,13620,515,-1234,-3014,25000,-9000,275000,381260,
4716,7108,13720,479,-1447,-3104,25000,-9000,275000,381263,
4700,7172,13872,234,-2559,-3468,25000,-9000,274000,381275,
4612,7016,13772,219,-2817,-3529,25000,-9000,274000,381278,
4624,7020,13688,131,-3012,-3556,25000,-9000,274000,381280,
4984,6748,13452,-122,-3417,-3848,25000,-9000,274000,381293,
5040,6692,13528,-158,-3372,-3860,25000,-9000,274000,381295,
5204,6568,13324,-200,-3304,-3888,25000,-9000,273000,381297,
5512,6028,13056,-331,-2669,-3811,25000,-9000,273000,381310,
5544,6096,13052,-306,-2480,-3808,25000,-9000,273000,381312,
5476,5960,12960,-261,-2357,-3744,25000,-9000,273000,381315,
5328,5408,12488,-21,-1398,-3665,26000,-9000,272000,381331,
5320,5424,12380,-3,-1271,-3707,26000,-9000,272000,381333,
5164,5440,12388,63,-1223,-3662,26000,-9000,272000,381336,
4500,5528,12284,287,-1106,-3672,26000,-9000,272000,381348,
4412,5736,12396,320,-1281,-3684,26000,-9000,272000,381351,
4320,5660,12316,306,-1393,-3673,26000,-9000,272000,381353,
3624,6252,12280,351,-2470,-3731,26000,-9000,271000,381366,
3436,6396,12120,294,-2680,-3738,26000,-9000,271000,381368,
3312,6324,12028,323,-2905,-3749,26000,-10000,271000,381370,
2792,6112,11424,207,-4148,-3781,26000,-10000,271000,381383,
2632,6020,11384,193,-4324,-3851,26000,-10000,270000,381385,
2732,5780,11372,214,-4544,-3851,26000,-10000,270000,381388,
2492,5524,10644,119,-5499,-4031,26000,-10000,270000,381400,
2476,5460,10484,40,-5608,-3989,26000,-10000,270000,381403,
2432,5540,10540,-42,-5711,-3996,26000,-10000,270000,381405,
2688,5740,9960,-247,-5710,-3904,26000,-11000,269000,381418,
2592,5764,9912,-308,-5649,-3921,26000,-11000,269000,381420,
2664,6040,9880,-306,-5610,-3856,26000,-11000,269000,381422,
2576,6684,9824,-650,-5237,-3589,26000,-11000,268000,381435,
2544,6896,9764,-753,-5133,-3506,26000,-11000,268000,381437,
2476,6988,9760,-862,-5057,-3469,26000,-11000,268000,381440,
1772,7428,10200,-1060,-4960,-3142,26000,-11000,267000,381452,
1844,7312,10196,-1100,-4978,-3111,26000,-11000,267000,381455,
1688,7280,10296,-1139,-5021,-3125,27000,-11000,267000,381457,
948,6588,10424,-1282,-5170,-3026,27000,-12000,267000,381470,
1020,6412,10368,-1228,-5192,-2993,27000,-12000,267000,381472,
992,6304,10308,-1225,-5152,-2990,27000,-12000,267000,381474,
936,5968,10080,-986,-4708,-2922,27000,-12000,266000,381487,
932,6016,10016,-1003,-4535,-2887,27000,-12000,266000,381489,
1052,6208,9952,-973,-4365,-2892,27000,-12000,266000,381491,
972,7908,9856,-1011,-3400,-2463,27000,-12000,266000,381504,
952,8580,9948,-1120,-3110,-2381,27000,-12000,266000,381506,
1048,8804,9964,-1195,-2900,-2245,27000,-12000,265000,381509,
900,10548,10116,-1975,-1565,-1607,27000,-12000,265000,381521,
988,10888,10084,-2023,-1442,-1503,27000,-12000,265000,381524,
1016,10852,10208,-2167,-1264,-1424,27000,-12000,265000,381526,
996,10460,10540,-2685,-1148,-1501,26000,-12000,265000,381539,
976,10280,10504,-2808,-1135,-1517,26000,-12000,265000,381541,
796,10028,10460,-2864,-1101,-1615,26000,-12000,265000,381543,
264,9068,10856,-3081,-677,-1756,26000,-12000,265000,381556,
52,9012,10840,-3055,-515,-1767,26000,-12000,265000,381558,
88,9016,10796,-3103,-430,-1760,26000,-12000,265000,381560,
192,9948,11124,-3408,213,-1685,26000,-12000,264000,381573,
60,10136,11168,-3530,273,-1598,26000,-12000,264000,381575,
88,10396,11308,-3679,360,-1513,26000,-12000,264000,381578,
8,11920,11572,-4343,405,-812,26000,-12000,264000,381590,
-36,11984,12572,-4250,217,-707,26000,-12000,264000,381593,
188,12588,11432,-4422,424,-557,26000,-12000,264000,381595,
260,11908,12508,-5573,735,49,25000,-12000,264000,381608,
248,11600,12884,-5366,877,128,25000,-12000,264000,381610,
-112,11880,12304,-5887,605,108,25000,-12000,264000,381612,
-324,10556,13112,-6133,947,111,24000,-11000,264000,381625,
-540,10352,12936,-6234,941,128,24000,-11000,264000,381627,
-588,10180,12948,-6291,1004,81,24000,-11000,264000,381629,
-1124,10604,12964,-6654,1325,432,24000,-11000,264000,381642,
-1260,10800,13148,-6757,1477,528,24000,-11000,264000,381644,
-1216,10828,13308,-6774,1550,681,23000,-11000,264000,381647,
-1476,12096,12488,-7316,2126,1429,23000,-11000,265000,381659,
-1464,12332,12492,-7450,2210,1576,23000,-11000,265000,381662,
-1572,12620,12512,-7654,2307,1786,23000,-11000,265000,381664,
-2408,13092,12800,-8544,2615,2615,22000,-11000,265000,381677,
-2600,13108,12760,-8760,2574,2762,22000,-10000,265000,381679,
-2832,13188,13000,-8896,2418,2926,22000,-10000,265000,381681,
-3996,12884,14228,-10172,1151,3854,21000,-10000,265000,381694,
-4100,13000,14508,-10427,764,4046,20000,-10000,266000,381696,
-4156,12876,14688,-10753,431,4240,20000,-10000,266000,381699,
-4116,12500,15660,-12081,-1650,5364,19000,-11000,266000,381711,
-4056,12500,15780,-12400,-2071,5606,19000,-11000,266000,381713,
-3852,12280,16148,-12683,-2434,5818,19000,-11000,266000,381716,
-2776,11084,18452,-13405,-3878,7144,17000,-11000,267000,381728,
-2272,10760,19084,-13468,-4017,7412,17000,-11000,267000,381731,
-60,9104,20784,-13458,-4240,8421,16000,-12000,267000,381743,
444,8628,20980,-13278,-4105,8569,15000,-12000,268000,381746,
788,8336,21276,-13059,-3900,8692,15000,-12000,268000,381748,
2640,7472,21504,-11856,-1448,9235,14000,-12000,269000,381761,
2836,7368,21500,-11588,-837,9288,14000,-12000,269000,381763,
2980,7252,21516,-11370,-147,9404,13000,-12000,269000,381766,
3560,6932,21456,-10001,3677,9721,12000,-12000,270000,381778,
3624,6920,21456,-9713,4373,9801,12000,-12000,270000,381781,
3524,7016,21476,-9502,4990,9829,12000,-12000,270000,381783,
3204,6156,23256,-8110,7723,10392,11000,-12000,272000,381796,
3160,6004,23484,-7903,8127,10483,11000,-11000,272000,381798,
3180,5928,23344,-7733,8486,10554,10000,-11000,272000,381801,
2920,4320,24992,-6244,9723,10708,10000,-11000,273000,381813,
3012,4124,25292,-5877,9984,10754,9000,-10000,273000,381816,
3020,3784,25360,-5451,10055,10749,9000,-10000,274000,381818,
2716,2680,25716,-3503,10687,10855,9000,-9000,275000,381831,
2652,2428,25524,-3179,10677,10841,9000,-9000,275000,381833,
2196,2200,25176,-1481,11009,11006,8000,-8000,276000,381845,
1964,2120,25024,-1176,10948,11055,8000,-8000,277000,381848,
1908,2220,24780,-928,10937,11098,8000,-8000,277000,381850,
1820,2212,24452,353,10218,11308,8000,-7000,278000,381863,
1828,2220,24232,546,10069,11343,8000,-7000,278000,381865,
1832,2112,24224,781,9773,11328,8000,-7000,278000,381867,
2080,1768,23192,1746,8637,11172,8000,-6000,280000,381880,
2152,1808,23084,1966,8350,11096,8000,-6000,280000,381882,
2404,1728,22632,2075,8176,10995,8000,-6000,280000,381885,
3200,1412,21596,3046,6846,10500,8000,-5000,281000,381897,
3428,1360,21164,3196,6528,10389,8000,-5000,281000,381900,
3708,1312,20860,3341,6280,10277,8000,-5000,282000,381902,
4656,1764,19332,3791,4717,9618,8000,-5000,283000,381915,
4872,1876,19020,3895,4496,9500,8000,-5000,283000,381917,
5004,1832,18732,3885,4277,9364,8000,-5000,283000,381919,
6308,2732,17428,3785,3352,8717,9000,-5000,284000,381932,
6392,2668,17208,3695,3146,8574,9000,-5000,284000,381934,
6480,2796,17328,3755,3081,8473,9000,-5000,284000,381937,
6972,2812,16572,3555,2209,7696,9000,-5000,285000,381949,
7156,2852,16616,3537,2109,7591,9000,-5000,285000,381952,
6992,2764,16428,3480,1957,7390,9000,-5000,285000,381954,
7088,2556,15940,3054,1365,6399,9000,-5000,286000,381967,
7076,2564,15844,3011,1244,6221,10000,-5000,286000,381969,
7048,2560,15700,2923,1122,6028,10000,-5000,286000,381971,
6988,2704,15264,2543,522,5112,10000,-5000,287000,381984,
6972,2712,15236,2388,431,4950,10000,-5000,287000,381986,
7032,2764,15112,2260,329,4805,10000,-5000,287000,381988,
7032,2964,14448,1574,-185,4057,10000,-5000,287000,382001,
7080,2952,14352,1466,-210,3929,10000,-5000,287000,382003,
7160,2908,14260,1390,-234,3813,10000,-5000,287000,382006,
7220,2808,13824,717,-163,3109,10000,-6000,288000,382018,
7260,2812,13896,556,-163,2937,10000,-6000,288000,382021,
7272,2624,13700,459,-92,2813,10000,-6000,288000,382023,
6884,2404,14036,169,228,2206,10000,-6000,288000,382036,
6804,2428,13948,107,365,2094,10000,-6000,288000,382038,
6764,2340,13924,87,393,2004,10000,-6000,288000,382040,
5820,2236,13772,-221,770,1667,10000,-6000,288000,382053,
5676,2168,13616,-198,764,1603,10000,-6000,288000,382055,
5348,2160,13708,-300,768,1555,10000,-6000,288000,382057,
4404,2272,13612,-415,268,1268,10000,-6000,288000,382070,
4196,2380,13648,-532,120,1239,10000,-6000,288000,382072,
3900,2600,13740,-624,-54,1147,10000,-6000,288000,382075,
3344,3048,14160,-990,-1226,857,10000,-6000,288000,382087,
3252,3156,14324,-1083,-1445,788,10000,-6000,288000,382090,
3232,3276,14476,-1146,-1715,721,10000,-6000,288000,382092,
3624,3360,14876,-1508,-3022,113,10000,-7000,288000,382105,
3772,3316,14884,-1570,-3241,-2,10000,-7000,288000,382107,
3740,3336,14964,-1609,-3414,-129,10000,-7000,288000,382109,
4428,3208,14868,-1659,-3859,-688,9000,-7000,288000,382122,
4540,3308,14856,-1674,-3818,-767,9000,-7000,288000,382124,
4688,3276,14872,-1622,-3700,-849,9000,-7000,288000,382127,
5452,3544,14492,-1414,-2877,-978,9000,-8000,288000,382139,
5480,3600,14380,-1326,-2705,-972,9000,-8000,288000,382142,
5500,3776,14292,-1319,-2501,-953,9000,-8000,288000,382144,
5628,4336,13976,-1140,-1055,-888,9000,-8000,288000,382157,
5548,4524,13936,-1216,-869,-856,9000,-8000,288000,382159,
5672,4476,13944,-1254,-599,-936,9000,-8000,288000,382161,
5236,4608,13984,-1342,379,-1066,9000,-8000,288000,382174,
5032,4656,13844,-1373,498,-1104,9000,-8000,288000,382176,
4796,4576,13936,-1359,632,-1137,9000,-8000,288000,382179,
4128,3956,13896,-1597,1165,-1299,9000,-8000,288000,382191,
3932,3880,13864,-1597,1168,-1295,9000,-8000,288000,382194,
3912,3804,13744,-1701,1214,-1308,9000,-8000,288000,382196,
3872,3416,13492,-1923,1421,-1426,9000,-8000,287000,382209,
3796,3464,13216,-1981,1452,-1436,9000,-8000,287000,382211,
3916,3428,13132,-2001,1536,-1425,9000,-8000,287000,382213,
4200,3632,12680,-2257,1800,-1363,9000,-8000,287000,382226,
4248,3688,12660,-2278,1910,-1383,9000,-8000,287000,382228,
4264,3728,12420,-2312,1896,-1372,9000,-8000,287000,382230,
4368,3744,11720,-2607,2265,-1476,8000,-7000,287000,382243,
4256,3716,11520,-2687,2297,-1487,8000,-7000,287000,382245,
4240,3856,11500,-2771,2375,-1538,8000,-7000,287000,382248,
4108,3728,10668,-3232,2551,-1789,8000,-7000,287000,382260,
4128,3584,10396,-3359,2593,-1841,8000,-7000,287000,382263,
4072,3576,10392,-3435,2605,-1935,8000,-7000,287000,382265,
3832,3352,9884,-4135,2423,-2198,8000,-7000,287000,382278,
3888,3252,9692,-4253,2399,-2246,8000,-7000,287000,382280,
3844,3252,9684,-4408,2415,-2263,8000,-7000,287000,382282,
3544,3008,9184,-5178,2762,-2422,7000,-7000,286000,382295,
3624,3228,9180,-5322,2828,-2400,7000,-7000,286000,382297,
3724,2912,9068,-5461,2981,-2463,7000,-6000,286000,382299,
3748,2968,9044,-6229,3599,-2684,6000,-6000,286000,382312,
3648,2916,9044,-6371,3793,-2735,6000,-6000,286000,382314,
3664,2872,9020,-6468,3892,-2764,6000,-6000,286000,382317,
3320,2692,9100,-7093,4910,-2965,6000,-6000,286000,382329,
3328,2476,9200,-7164,5021,-2983,6000,-6000,286000,382332,
2896,2184,9728,-7741,5587,-3059,5000,-5000,285000,382344,
2692,2264,9880,-7802,5527,-3047,5000,-5000,285000,382347,
2704,2112,9888,-7921,5572,-3005,5000,-5000,285000,382349,
2048,2052,10848,-8398,5635,-2834,4000,-4000,285000,382362,
1916,2136,10944,-8526,5676,-2823,4000,-4000,285000,382364,
1888,2060,11120,-8553,5670,-2825,4000,-4000,285000,382366,
1460,2052,11572,-9122,5626,-3005,3000,-4000,285000,382379,
1424,2036,11848,-9200,5586,-3042,3000,-4000,285000,382381,
1376,1948,11840,-9287,5567,-3102,2000,-3000,285000,382384,
1016,1588,12560,-9681,5481,-3437,2000,-3000,284000,382396,
1100,1472,12864,-9777,5432,-3500,1000,-3000,284000,382398,
960,1368,12936,-9861,5442,-3528,1000,-3000,284000,382401,
704,892,14064,-10035,5170,-3517,0,-2000,284000,382413,
748,952,14080,-10104,5228,-3548,0,-2000,284000,382416,
800,900,14380,-10057,5190,-3484,0,-2000,284000,382418,
720,860,14528,-10095,5207,-3437,0,-2000,284000,382420,
516,656,15704,-10059,5382,-3285,0,-1000,283000,382433,
516,640,15868,-10092,5395,-3266,0,-1000,283000,382435,
580,576,15844,-10093,5501,-3303,-1000,-1000,283000,382438,
332,380,16844,-10085,5534,-3369,-2000,-1000,283000,382450,
164,288,17128,-10035,5527,-3396,-2000,-1000,283000,382453,
184,292,17172,-10000,5472,-3353,-2000,0,283000,382455,
-104,0,18060,-9935,5319,-3362,-3000,0,283000,382468,
-84,80,18180,-9896,5260,-3307,-3000,0,282000,382470,
-184,0,18472,-9904,5267,-3306,-3000,0,282000,382472,
-260,-12,18568,-9849,5255,-3277,-3000,0,282000,382475,
-460,104,19408,-9784,5370,-3077,-4000,0,282000,382487,
-384,28,19440,-9671,5391,-3051,-4000,0,282000,382490,
-424,68,19732,-9596,5337,-2970,-5000,0,282000,382492,
-776,-200,20160,-9326,5391,-2863,-5000,0,282000,382505,
-904,-272,20116,-9311,5703,-2771,-6000,1000,281000,382507,
-820,-276,20476,-9272,6106,-2750,-6000,1000,281000,382509,
-1424,-896,20596,-8718,5030,-2874,-7000,1000,281000,382522,
-1696,-712,20676,-8698,4919,-2887,-7000,1000,281000,382524,
-2004,-932,20448,-8734,4646,-2808,-7000,1000,281000,382527,
-2420,-840,20816,-8275,4018,-2134,-8000,2000,281000,382539,
-2404,-904,21116,-8213,3675,-2047,-8000,2000,281000,382542,
-2376,-904,21040,-8190,3459,-1996,-8000,2000,281000,382544,
-2180,-1124,21460,-8049,2467,-2086,-9000,2000,280000,382557,
-2152,-1112,21580,-7955,2362,-2113,-9000,2000,280000,382559,
-2092,-996,21568,-7772,2271,-2122,-9000,2000,280000,382561,
-2160,-1188,22248,-7421,1484,-2020,-10000,2000,280000,382574,
-2180,-1116,22168,-7368,1284,-1941,-10000,2000,280000,382576,
-2120,-1336,22400,-7332,1133,-1891,-10000,2000,280000,382579,
-1464,-1656,22648,-6857,541,-1720,-11000,2000,280000,382592,
-1328,-1732,22696,-6818,583,-1710,-11000,2000,280000,382594,
-1116,-1940,22932,-6713,611,-1718,-11000,2000,280000,382596,
-880,-2256,22732,-5662,305,-1364,-11000,2000,280000,382609,
-852,-2236,22816,-5492,368,-1309,-11000,2000,280000,382611,
-720,-2244,22688,-5353,396,-1218,-12000,2000,280000,382614,
