Ax,Ay,Az,Gx,Gy,Gz,Roll,Pitch,Yaw,Timestamp,Target
-1032,4436,15500,-609,-513,-29,9000,5000,248000,639294,
-644,4556,15392,-523,-64,-9,9000,5000,248000,639307,
-676,4592,15484,-544,-30,-21,9000,5000,248000,639309,
-652,4536,15468,-503,63,-29,9000,5000,248000,639311,
-612,4588,15428,-527,85,-30,9000,5000,248000,639313,
-776,4696,15448,-443,473,-23,9000,5000,248000,639326,
-708,4712,15324,-517,414,-30,9000,5000,248000,639328,
-740,4860,15316,-475,529,-34,9000,5000,248000,639331,
-948,4688,15460,-487,336,-85,9000,5000,248000,639343,
-1180,4624,15536,-393,345,-82,9000,5000,248000,639345,
-1056,4708,15460,-439,253,-90,9000,5000,248000,639347,
-1076,4660,15444,-418,203,-84,9000,5000,248000,639350,
-1104,4672,15564,-443,-151,-154,9000,5000,248000,639362,
-1140,4676,15664,-383,-153,-158,9000,5000,248000,639365,
-1232,4708,15380,-439,-209,-156,9000,5000,248000,639367,
-996,4464,15424,-346,-355,-111,9000,5000,248000,639379,
-912,4500,15476,-390,-362,-96,9000,5000,248000,639382,
-960,4448,15380,-376,-347,-94,9000,5000,248000,639384,
-756,4508,15212,-359,-60,-51,9000,5000,248000,639396,
-732,4368,15176,-353,-54,-28,9000,5000,248000,639399,
-700,4500,15360,-316,31,-61,9000,5000,248000,639401,
-696,4556,15320,-358,107,-16,9000,5000,248000,639403,
-760,4416,15220,-266,450,-31,9000,5000,248000,639416,
-704,4408,15288,-315,415,-11,9000,5000,248000,639418,
-804,4380,15324,-269,496,-50,9000,5000,248000,639420,
-868,4496,15080,-269,588,-42,9000,5000,248000,639432,
-848,4568,15168,-206,640,-40,9000,5000,248000,639435,
-888,4596,15168,-249,642,-60,9000,5000,248000,639437,
-1068,4696,15024,-257,467,-73,9000,5000,248000,639450,
-1124,4704,15036,-323,385,-50,9000,5000,248000,639452,
-1152,4700,15012,-276,374,-51,9000,5000,248000,639454,
-1120,4476,15168,-398,157,-46,9000,5000,248000,639467,
-1108,4508,14964,-356,185,-35,9000,5000,248000,639469,
-1040,4480,15256,-394,142,-54,9000,5000,248000,639471,
-928,4432,14940,-381,166,-14,9000,5000,248000,639484,
-980,4472,14788,-421,104,-19,9000,5000,248000,639486,
-980,4484,14696,-378,184,-1,9000,5000,248000,639488,
-1016,4428,14824,-456,104,24,9000,5000,248000,639490,
-976,4452,14808,-474,57,77,9000,5000,248000,639503,
-960,4500,14856,-523,27,69,9000,5000,248000,639505,
-1052,4568,14828,-505,-26,88,9000,5000,248000,639507,
-896,4516,15072,-608,-133,103,9000,5000,248000,639520,
-888,4576,14972,-636,-185,116,9000,5000,248000,639522,
-976,4516,15008,-658,-164,100,9000,5000,248000,639525,
-656,4528,15040,-678,-160,78,9000,5000,248000,639537,
-656,4640,15040,-718,-110,64,9000,5000,248000,639539,
-504,4588,15128,-706,-94,74,9000,5000,248000,639542,
-552,4660,15128,-700,11,25,9000,5000,248000,639544,
-420,4684,15156,-692,409,-6,9000,5000,248000,639556,
-500,4700,15140,-709,421,10,9000,5000,248000,639559,
-528,4736,15228,-655,560,-1,9000,5000,248000,639561,
-784,4624,15228,-684,691,-24,9000,5000,248000,639573,
-924,4532,15404,-636,775,-50,9000,5000,248000,639576,
-1024,4612,15488,-660,704,-40,9000,5000,248000,639578,
-1048,4500,15532,-634,768,-20,9000,5000,248000,639580,
-1240,4444,15504,-632,507,0,9000,5000,248000,639593,
-1096,4492,15480,-559,429,-5,9000,5000,248000,639595,
-1148,4440,15488,-600,431,-13,9000,5000,248000,639597,
-1144,4300,15416,-489,51,29,9000,5000,248000,639610,
-1112,4344,15460,-541,-47,-8,9000,5000,248000,639612,
-1000,4440,15444,-498,-88,42,9000,5000,248000,639614,
-1016,4460,15324,-516,-101,4,9000,5000,248000,639617,
-648,4324,15528,-470,-91,-36,9000,5000,248000,639629,
-700,4328,15416,-426,1,-14,9000,5000,248000,639631,
-604,4280,15464,-412,-66,-21,9000,5000,248000,639634,
-472,4380,15340,-303,315,-52,9000,5000,248000,639646,
-384,4504,15240,-304,367,-73,9000,5000,248000,639649,
-396,4500,15268,-322,359,-92,9000,5000,248000,639651,
-484,4544,15232,-265,454,-122,9000,5000,248000,639653,
-756,4680,15104,-315,424,-139,9000,5000,248000,639666,
-676,4580,15152,-247,446,-127,9000,5000,248000,639668,
-800,4680,15112,-327,392,-131,9000,5000,248000,639670,
-1020,4744,14964,-405,117,-189,9000,5000,248000,639683,
-968,4720,14980,-511,-21,-189,9000,5000,248000,639685,
-976,4640,14964,-451,19,-199,9000,5000,248000,639687,
-840,4656,15016,-650,-346,-175,9000,5000,248000,639700,
-800,4636,14828,-573,-332,-210,9000,5000,248000,639702,
-788,4656,14960,-666,-333,-225,9000,5000,248000,639704,
-676,4628,14896,-724,-390,-215,9000,5000,248000,639717,
-724,4672,15048,-780,-342,-236,9000,5000,248000,639719,
-584,4588,15016,-784,-349,-242,9000,5000,248000,639721,
-620,4456,15196,-842,-139,-272,9000,5000,248000,639734,
-620,4500,15236,-834,-134,-303,9000,5000,248000,639736,
-628,4348,15272,-870,-70,-264,9000,5000,248000,639739,
-724,4284,15456,-772,206,-317,9000,5000,248000,639751,
-656,4280,15316,-816,252,-312,9000,5000,248000,639753,
-728,4196,15472,-768,301,-292,9000,5000,248000,639756,
-776,4188,15584,-689,475,-305,9000,5000,248000,639768,
-844,4232,15576,-632,487,-267,9000,5000,248000,639770,
-844,4204,15668,-614,540,-291,9000,5000,248000,639773,
-968,4300,15668,-547,496,-231,9000,5000,248000,639785,
-924,4436,15532,-514,503,-238,9000,5000,248000,639787,
-1092,4352,15460,-538,479,-228,9000,5000,248000,639790,
-1220,4368,15452,-468,272,-201,9000,5000,248000,639802,
-1260,4468,15388,-500,202,-230,9000,5000,248000,639805,
-1352,4428,15412,-479,124,-234,9000,5000,248000,639807,
-1164,4456,15260,-481,-211,-209,9000,5000,248000,639819,
-1048,4540,15508,-461,-243,-227,9000,5000,248000,639822,
-1080,4628,15148,-498,-272,-211,9000,5000,248000,639824,
-768,4520,15252,-442,-383,-205,9000,5000,248000,639836,
-820,4672,15192,-482,-334,-212,9000,5000,248000,639839,
-632,4544,15168,-464,-347,-224,9000,5000,248000,639841,
-644,4564,15052,-529,-196,-272,9000,5000,248000,639853,
-612,4592,15156,-508,-89,-284,9000,5000,248000,639856,
-668,4604,15192,-543,-98,-290,9000,5000,248000,639858,
-804,4548,15248,-558,108,-311,8000,5000,248000,639870,
-788,4464,15224,-588,146,-299,8000,5000,248000,639873,
-872,4472,15088,-625,133,-323,8000,5000,248000,639875,
-1116,4580,15200,-593,274,-288,8000,5000,248000,639887,
-1076,4596,15204,-634,274,-287,8000,5000,248000,639890,
-948,4588,15180,-610,232,-288,8000,5000,248000,639892,
-1080,4548,15248,-661,199,-264,8000,5000,248000,639904,
-1128,4500,15392,-657,124,-258,8000,5000,248000,639907,
-1220,4556,15384,-642,162,-223,8000,5000,248000,639909,
-1280,4464,15388,-597,1,-227,8000,5000,248000,639921,
-1184,4416,15456,-537,47,-245,8000,5000,248000,639924,
-1136,4424,15436,-584,-54,-221,8000,5000,248000,639926,
-1076,4524,15348,-471,-17,-178,8000,5000,248000,639938,
-1136,4488,15368,-510,-106,-133,8000,5000,248000,639941,
-1032,4436,15416,-459,-59,-155,8000,5000,248000,639943,
-1096,4412,15508,-517,-125,-114,8000,5000,248000,639955,
-1104,4496,15440,-440,-58,-112,8000,5000,248000,639958,
-1128,4404,15324,-498,-109,-74,8000,5000,248000,639960,
-988,4444,15232,-447,-37,-49,8000,5000,248000,639972,
-1064,4380,15336,-469,-30,-33,8000,5000,248000,639975,
-996,4364,15212,-438,-56,-59,8000,5000,248000,639977,
-864,4404,15180,-452,18,-63,8000,5000,248000,639979,
-1012,4336,15148,-400,48,-41,8000,5000,248000,639992,
-796,4440,15072,-458,65,-63,8000,5000,248000,639994,
-720,4444,15104,-437,72,-22,8000,5000,248000,639996,
-852,4504,15076,-448,283,-20,8000,5000,248000,640009,
-820,4436,15020,-436,294,-47,8000,5000,248000,640011,
-924,4584,14992,-432,336,-32,8000,5000,248000,640014,
-844,4644,14920,-401,356,-14,8000,5000,248000,640016,
-1036,4748,15056,-539,274,-14,8000,5000,248000,640028,
-1228,4728,14844,-503,285,5,8000,5000,248000,640031,
-1112,4696,15024,-585,199,-11,8000,5000,248000,640033,
-1208,4588,14980,-640,-118,11,8000,5000,248000,640045,
-1072,4516,15048,-703,-176,20,8000,5000,248000,640048,
-1100,4468,15084,-679,-211,19,8000,5000,248000,640050,
-800,4440,15096,-760,-404,18,8000,5000,248000,640062,
-888,4412,15128,-709,-354,14,8000,5000,248000,640065,
-844,4240,15120,-750,-361,-3,8000,5000,248000,640067,
-716,4288,15220,-686,-343,7,8000,5000,248000,640069,
-576,4380,15316,-665,-146,-57,8000,5000,248000,640082,
-560,4400,15276,-596,-66,-75,8000,5000,248000,640084,
-564,4340,15356,-611,-21,-66,8000,5000,248000,640086,
-452,4468,15440,-514,236,-118,8000,5000,248000,640099,
-600,4492,15516,-535,228,-140,8000,5000,248000,640101,
-508,4484,15508,-486,312,-143,8000,5000,248000,640103,
-556,4432,15332,-469,411,-195,8000,5000,248000,640116,
-652,4476,15320,-438,461,-187,8000,5000,248000,640118,
-656,4428,15368,-470,453,-213,8000,5000,248000,640120,
-628,4348,15364,-340,627,-229,8000,5000,248000,640133,
-776,4460,15216,-393,637,-244,8000,5000,248000,640135,
-716,4360,15284,-348,704,-226,8000,5000,248000,640137,
-960,4448,15364,-404,728,-199,8000,5000,248000,640150,
-1068,4456,15244,-350,750,-201,8000,5000,248000,640152,
-1064,4432,15240,-387,726,-203,8000,5000,248000,640154,
-1364,4472,15188,-386,481,-163,8000,5000,248000,640167,
-1264,4544,15216,-461,339,-161,8000,5000,248000,640169,
-1292,4476,15056,-427,309,-135,8000,5000,248000,640171,
-1112,4480,15136,-547,-70,-78,8000,5000,248000,640184,
-1188,4484,15152,-640,-165,-82,8000,5000,248000,640186,
-1168,4444,15068,-593,-158,-82,8000,5000,248000,640188,
-876,4476,15124,-620,-103,-41,8000,5000,248000,640201,
-960,4408,15104,-593,-52,-34,8000,5000,248000,640203,
-688,4496,15196,-592,6,-6,8000,5000,248000,640206,
-772,4588,15272,-606,34,8,8000,5000,248000,640208,
-892,4584,15296,-693,130,15,8000,5000,248000,640220,
-852,4492,15236,-694,146,40,8000,5000,248000,640223,
-900,4536,15204,-721,187,41,8000,5000,248000,640225,
-1000,4456,15312,-808,165,28,8000,5000,248000,640237,
-888,4404,15432,-781,200,23,8000,5000,248000,640240,
-912,4368,15344,-813,142,64,8000,5000,248000,640242,
-904,4500,15512,-779,220,34,8000,5000,248000,640244,
-1096,4612,15632,-720,157,42,8000,5000,248000,640257,
-1040,4484,15616,-706,186,44,8000,5000,248000,640259,
-1036,4528,15460,-730,124,53,8000,5000,248000,640261,
-1220,4432,15432,-688,-141,65,8000,5000,248000,640274,
-1212,4520,15540,-674,-236,54,8000,5000,248000,640276,
-1276,4572,15472,-662,-305,64,8000,5000,248000,640278,
-920,4360,15700,-583,-600,72,8000,5000,248000,640291,
-1056,4288,15688,-595,-565,38,8000,5000,248000,640293,
-824,4416,15740,-575,-662,64,8000,5000,248000,640295,
-892,4288,15684,-527,-579,59,8000,5000,248000,640297,
-688,4260,15532,-425,-502,17,8000,5000,248000,640310,
-596,4236,15584,-376,-418,0,8000,5000,248000,640312,
-608,4292,15444,-394,-431,0,8000,5000,248000,640314,
-516,4280,15168,-357,-276,-40,8000,5000,248000,640327,
-568,4336,15380,-315,-198,-47,8000,5000,248000,640329,
-544,4304,15444,-343,-248,-96,8000,5000,248000,640332,
-452,4300,15312,-270,-6,-194,8000,5000,248000,640344,
-480,4264,15224,-321,-39,-192,8000,5000,248000,640346,
-536,4304,15064,-258,31,-215,8000,5000,248000,640349,
-532,4316,15140,-324,64,-193,8000,5000,248000,640351,
-340,4436,15072,-298,366,-253,8000,5000,248000,640363,
-340,4368,14912,-313,374,-275,8000,5000,248000,640366,
-468,4360,14972,-289,477,-264,8000,5000,248000,640368,
-760,4472,15036,-327,593,-266,8000,5000,248000,640380,
-848,4476,15100,-366,676,-285,8000,5000,248000,640383,
-852,4456,15016,-390,646,-252,8000,5000,248000,640385,
-1076,4432,15192,-448,490,-238,8000,5000,248000,640397,
-1140,4396,15104,-494,345,-255,8000,5000,248000,640400,
-1160,4364,15064,-468,343,-224,8000,5000,248000,640402,
-1052,4412,14964,-574,-177,-199,8000,5000,248000,640415,
-1052,4432,15108,-551,-126,-187,8000,5000,248000,640417,
-972,4308,15120,-621,-272,-179,8000,5000,248000,640419,
-740,4316,15116,-574,-343,-205,8000,5000,248000,640431,
-740,4276,15128,-616,-379,-213,8000,5000,248000,640434,
-668,4348,15092,-617,-353,-198,8000,5000,248000,640436,
-576,4412,15184,-529,-178,-230,8000,5000,248000,640448,
-644,4480,15188,-629,-229,-226,8000,5000,248000,640451,
-504,4444,15208,-567,-126,-229,8000,5000,248000,640453,
-660,4384,15360,-674,-52,-275,8000,5000,248000,640465,
-672,4372,15196,-630,44,-248,8000,5000,248000,640468,
-656,4340,15288,-693,39,-271,8000,5000,248000,640470,
-732,4336,15160,-648,83,-257,8000,5000,248000,640472,
-756,4288,15236,-715,269,-260,8000,5000,248000,640485,
-688,4316,15256,-677,301,-285,8000,5000,248000,640487,
-840,4168,15280,-695,333,-268,8000,5000,248000,640489,
-800,4204,15152,-641,376,-215,8000,5000,248000,640502,
-916,4132,15316,-622,460,-194,8000,5000,248000,640504,
-940,4172,15296,-652,410,-206,8000,5000,248000,640506,
-864,4132,15284,-575,353,-238,8000,5000,248000,640519,
-960,4188,15080,-609,241,-212,8000,5000,248000,640521,
-996,4064,15248,-558,306,-234,8000,5000,248000,640523,
-776,4088,15308,-597,274,-211,8000,5000,248000,640536,
-608,4116,15236,-559,314,-226,8000,5000,248000,640538,
-576,4220,15240,-591,291,-216,8000,5000,248000,640540,
-780,4272,15124,-462,576,-235,8000,5000,248000,640553,
-704,4340,15140,-499,568,-195,8000,5000,248000,640555,
-852,4364,15228,-438,639,-192,8000,5000,248000,640558,
-892,4340,15240,-470,611,-205,8000,5000,248000,640560,
-1040,4544,15264,-457,451,-217,8000,5000,248000,640572,
-1132,4648,15240,-525,358,-196,8000,5000,248000,640575,
-1160,4692,15176,-494,345,-207,8000,5000,248000,640577,
-1056,4716,15344,-626,-107,-240,8000,5000,248000,640589,
-1036,4824,15328,-611,-79,-233,8000,5000,248000,640592,
-1028,4716,15412,-680,-236,-219,8000,5000,248000,640594,
-696,4632,15412,-676,-327,-285,8000,5000,248000,640606,
-616,4632,15508,-635,-280,-280,8000,5000,248000,640609,
-664,4692,15624,-692,-308,-280,8000,5000,248000,640611,
-640,4736,15568,-579,-81,-322,8000,5000,248000,640623,
-624,4836,15748,-613,-43,-284,8000,5000,248000,640626,
-684,4772,15888,-580,-6,-319,8000,5000,248000,640628,
-820,4856,15804,-605,6,-299,8000,5000,248000,640630,
-1060,4832,15924,-556,89,-296,8000,5000,248000,640643,
-1032,4836,15868,-616,40,-300,8000,5000,248000,640645,
-1004,4828,15932,-538,84,-275,8000,5000,248000,640647,
-1248,4668,15928,-583,-127,-239,8000,5000,248000,640660,
-1160,4584,15932,-484,-97,-238,8000,5000,248000,640662,
-1240,4604,15832,-526,-164,-228,8000,5000,248000,640664,
-1160,4500,16000,-364,-238,-186,8000,5000,248000,640677,
-1132,4520,15948,-414,-290,-183,8000,5000,248000,640679,
-1112,4484,16108,-327,-267,-146,8000,5000,248000,640682,
-1140,4544,16032,-202,-155,-161,8000,5000,248000,640694,
-1132,4476,16064,-187,-193,-115,8000,5000,248000,640696,
-1164,4412,15944,-155,-131,-114,8000,5000,248000,640699,
-1204,4456,15972,-62,-162,-73,8000,5000,248000,640711,
-1164,4468,15932,-9,-81,-66,8000,5000,248000,640713,
-1044,4468,15972,-22,-158,-37,8000,5000,248000,640716,
-1072,4440,15924,22,-43,-17,8000,5000,248000,640718,
-1048,4552,15848,102,-192,31,8000,5000,248000,640730,
-1052,4492,15868,156,-138,41,8000,5000,248000,640733,
-1088,4348,15884,111,-220,36,8000,5000,248000,640735,
-752,4276,15908,267,-445,3,8000,5000,248000,640747,
-780,4308,16016,295,-546,21,8000,5000,248000,640750,
-560,4300,15880,349,-535,-40,8000,4000,248000,640752,
-428,4264,15876,346,-675,-40,8000,4000,248000,640754,
300,4312,15684,613,-656,-260,8000,4000,248000,640767,
676,4344,15688,627,-699,-328,8000,4000,248000,640769,
680,4356,15556,702,-611,-426,8000,4000,248000,640771,
1868,4660,15044,962,-160,-875,9000,4000,247000,640784,
1904,4668,15016,961,-54,-982,9000,4000,247000,640786,
2124,4632,14976,1010,56,-1081,9000,4000,247000,640788,
2532,4596,14824,1112,632,-1695,9000,4000,247000,640801,
2552,4660,14820,1163,778,-1816,9000,4000,247000,640803,
2556,4660,14680,1159,795,-1952,9000,4000,247000,640805,
3200,4720,14224,1157,1276,-2644,9000,4000,247000,640818,
3396,4712,14192,1080,1263,-2778,9000,4000,247000,640820,
3528,4700,14084,1138,1415,-2941,9000,4000,247000,640822,
4116,4504,13528,1237,1847,-3798,9000,4000,247000,640835,
4192,4532,13480,1208,1869,-4004,9000,4000,247000,640837,
4212,4472,13308,1277,1947,-4165,9000,4000,246000,640839,
4168,4256,12864,1356,1705,-5182,9000,5000,246000,640852,
4236,4216,12556,1432,1616,-5369,9000,5000,246000,640854,
4256,4264,12644,1399,1506,-5544,9000,5000,246000,640856,
4456,3680,12192,1312,715,-6718,10000,5000,245000,640869,
4520,3448,12332,1269,629,-6935,10000,5000,245000,640871,
4712,3380,12212,1291,513,-7131,10000,5000,245000,640873,
5304,2324,11740,1277,582,-8499,10000,5000,244000,640886,
5444,2084,11600,1326,701,-8719,10000,5000,244000,640888,
5400,1920,11328,1351,738,-8986,10000,5000,244000,640890,
5328,1468,10688,1500,1589,-10238,10000,5000,243000,640903,
5400,1424,10308,1511,1660,-10502,10000,5000,243000,640905,
5204,1476,10392,1525,1856,-10638,10000,5000,243000,640908,
4552,1460,9532,1406,2460,-11790,10000,5000,242000,640920,
4408,1512,9344,1357,2654,-11935,10000,5000,241000,640922,
4320,1424,9272,1241,2667,-12097,10000,5000,241000,640925,
3448,1304,8372,710,2974,-12968,10000,6000,240000,640937,
3316,1220,8520,685,3006,-13186,10000,6000,240000,640939,
3132,1204,8264,602,3038,-13329,10000,6000,240000,640942,
2148,756,7784,40,2819,-14210,9000,6000,238000,640954,
1832,728,7804,-57,2745,-14332,9000,6000,238000,640956,
1712,768,7856,-190,2725,-14458,9000,6000,238000,640959,
900,752,7168,-938,2466,-15122,9000,7000,236000,640971,
652,672,7196,-1151,2454,-15196,9000,7000,236000,640973,
556,596,7168,-1323,2437,-15288,9000,7000,236000,640976,
-180,152,6744,-2459,2791,-15542,9000,7000,234000,640988,
-228,72,6592,-2703,2893,-15594,8000,7000,234000,640991,
-384,52,6532,-2924,3078,-15600,8000,7000,234000,640993,
-1292,-316,6432,-4263,4587,-15480,8000,8000,232000,641005,
-1596,-556,6444,-4352,4871,-15451,8000,8000,232000,641008,
-2032,-720,6504,-4510,5190,-15403,7000,8000,232000,641010,
-4692,-1320,6628,-5040,6234,-15132,7000,9000,231000,641022,
-5164,-1360,6504,-5099,6325,-14988,6000,9000,230000,641025,
-6076,-1456,6628,-5288,6283,-14957,6000,10000,230000,641027,
-8840,-1936,7464,-5928,5344,-14187,5000,11000,229000,641040,
-10588,-680,7180,-6408,4362,-13971,5000,11000,228000,641042,
-10284,-524,6708,-6918,3643,-13742,5000,11000,228000,641044,
-10784,-456,7272,-8736,-110,-12599,4000,11000,227000,641057,
-10812,-420,7396,-9068,-595,-12310,4000,11000,227000,641059,
-10692,-400,7464,-9490,-1210,-12150,4000,11000,226000,641062,
-9596,-1036,7368,-10935,-2608,-10959,2000,11000,225000,641074,
-9508,-1012,7548,-11217,-2686,-10763,2000,11000,225000,641076,
-9276,-1068,7604,-11373,-2579,-10553,2000,11000,225000,641079,
-8880,-1024,8256,-12396,-1587,-9580,0,11000,224000,641091,
-8768,-1096,8312,-12545,-1364,-9404,0,11000,224000,641094,
-8936,-980,8416,-12730,-1091,-9268,0,11000,224000,641096,
-9552,-684,9564,-13391,-87,-8495,-1000,12000,223000,641108,
-9744,-396,9344,-13572,-16,-8349,-1000,12000,223000,641111,
-9820,-348,9272,-13806,48,-8197,-1000,12000,223000,641113,
-9952,-184,9872,-15198,178,-7469,-3000,12000,222000,641125,
-9780,-272,9968,-15397,209,-7348,-3000,12000,222000,641128,
-9856,-404,9996,-15630,209,-7257,-3000,12000,222000,641130,
-9884,-1400,11228,-16333,871,-6742,-5000,12000,221000,641142,
-9976,-1512,11308,-16440,970,-6668,-6000,12000,221000,641145,
-10016,-1656,11348,-16535,1119,-6584,-6000,12000,221000,641147,
-11408,-2296,13156,-16633,1888,-5960,-8000,12000,220000,641160,
-11764,-2312,13320,-16709,1943,-5782,-8000,13000,220000,641162,
-14220,-2580,14444,-16652,2555,-4723,-10000,13000,219000,641175,
-14660,-2668,14944,-16929,2423,-4288,-10000,13000,219000,641177,
-14700,-2368,15040,-17130,2526,-3980,-10000,13000,219000,641179,
-16924,-3480,15944,-17328,885,-2274,-12000,13000,219000,641192,
-17424,-3704,16008,-17380,537,-1927,-12000,13000,219000,641194,
-18940,-4780,18324,-17657,-2596,673,-14000,13000,219000,641206,
-18852,-4712,18592,-17846,-3213,1280,-14000,13000,219000,641209,
-18680,-4832,18948,-17896,-3721,1832,-15000,13000,219000,641211,
-16648,-5656,21040,-18019,-5026,4405,-16000,13000,220000,641224,
-16408,-5784,21452,-17923,-4898,4787,-16000,13000,220000,641226,
-16020,-6204,21868,-17754,-4653,5200,-17000,13000,220000,641228,
-15060,-6900,23076,-16265,-2626,7432,-18000,13000,221000,641241,
-15116,-6936,23132,-15903,-2296,7750,-18000,13000,221000,641243,
-16116,-6812,23060,-14485,-1649,9574,-20000,13000,222000,641256,
-16480,-6700,23124,-14126,-1685,9881,-20000,13000,222000,641258,
-16708,-6620,23216,-13953,-1952,10334,-20000,13000,222000,641261,
-16564,-5576,23348,-13515,-4399,12727,-21000,14000,224000,641273,
-16116,-5296,23552,-13614,-5041,13096,-21000,14000,224000,641275,
-13464,-5572,23724,-13270,-6852,14706,-22000,14000,225000,641288,
-13040,-5680,23712,-13216,-7065,14987,-22000,14000,226000,641290,
-12284,-5956,23808,-12955,-7033,15198,-22000,14000,226000,641293,
-9816,-6120,23584,-11814,-6981,16350,-23000,14000,228000,641305,
-9264,-6116,23400,-11519,-6872,16505,-23000,14000,228000,641308,
-7564,-5488,23924,-10552,-6387,17408,-23000,14000,230000,641320,
-7200,-5524,23828,-10260,-6142,17450,-24000,14000,230000,641323,
-6972,-5600,23884,-10138,-6058,17588,-24000,14000,231000,641325,
-5380,-5836,24052,-9096,-5545,17822,-24000,14000,233000,641338,
-5168,-5820,24060,-9012,-5548,17940,-24000,14000,233000,641340,
-4856,-5868,23904,-8732,-5317,17968,-24000,14000,233000,641342,
-3760,-6380,24264,-7349,-4532,18067,-24000,14000,235000,641355,
-3656,-6348,24208,-7067,-4424,18064,-24000,15000,235000,641357,
-2644,-6324,24508,-5928,-4307,18231,-24000,15000,237000,641370,
-2556,-6360,24564,-5786,-4400,18267,-24000,15000,238000,641372,
-2388,-6216,24504,-5469,-4307,18201,-24000,15000,238000,641374,
-1792,-6140,24288,-4180,-4397,17965,-24000,15000,240000,641387,
-1612,-5992,24312,-3946,-4380,17892,-24000,15000,240000,641389,
-1512,-5956,24184,-3818,-4606,17955,-24000,15000,240000,641392,
-820,-5960,24140,-2904,-5366,17659,-24000,15000,242000,641404,
-748,-6112,24284,-2790,-5585,17654,-24000,15000,243000,641406,
-8,-6848,24300,-1893,-5947,17087,-23000,16000,244000,641419,
92,-6800,24416,-1729,-6072,17106,-23000,16000,245000,641421,
280,-7008,24432,-1439,-5883,16960,-23000,16000,245000,641424,
1208,-6784,24280,-272,-5271,16772,-23000,16000,247000,641436,
1376,-6776,24228,-9,-5005,16638,-23000,16000,247000,641438,
1412,-6636,24252,143,-4910,16601,-23000,16000,248000,641441,
616,-6716,23720,1358,-4074,16081,-22000,16000,249000,641453,
432,-6580,23580,1435,-4143,16074,-22000,16000,250000,641456,
276,-6492,23340,1603,-4101,16033,-22000,16000,250000,641458,
96,-6416,23120,1948,-4742,15982,-21000,16000,251000,641470,
52,-6360,23224,1964,-4928,15937,-21000,16000,252000,641473,
-96,-6380,23272,2098,-4956,15853,-21000,16000,252000,641475,
-548,-6080,23252,2896,-5868,15681,-20000,16000,254000,641487,
-756,-6096,23052,3032,-5965,15580,-20000,16000,254000,641490,
-812,-5936,22900,3093,-6319,15637,-20000,16000,254000,641492,
-1116,-5524,22064,3468,-8340,15435,-19000,15000,256000,641504,
-1060,-5564,22072,3428,-8815,15442,-19000,15000,256000,641507,
-344,-5728,21992,3744,-10836,15050,-18000,15000,258000,641519,
-76,-5776,22136,3758,-11166,15022,-18000,15000,259000,641522,
56,-5932,22192,3903,-11383,14930,-17000,14000,259000,641524,
1884,-6380,22512,4412,-11602,14306,-17000,14000,261000,641536,
2252,-6332,22592,4652,-11480,14162,-16000,14000,261000,641539,
2568,-6364,22620,4858,-11152,13938,-16000,13000,261000,641541,
3400,-6352,21920,6149,-9228,12995,-15000,13000,263000,641554,
3476,-6304,21912,6251,-8981,12869,-15000,13000,263000,641556,
3608,-6156,21540,6510,-8704,12682,-15000,13000,263000,641558,
3536,-5828,20848,7408,-7300,11757,-14000,12000,264000,641571,
3452,-5648,20888,7602,-7083,11595,-14000,12000,265000,641573,
2984,-5316,20288,8171,-6523,10484,-13000,11000,266000,641585,
3000,-5388,19968,8373,-6450,10278,-13000,11000,266000,641588,
2968,-5348,19992,8421,-6498,10133,-12000,11000,266000,641590,
2832,-5236,19440,9181,-6557,9208,-11000,11000,267000,641602,
2732,-5320,19264,9270,-6657,9065,-11000,11000,267000,641605,
2892,-5124,19176,9489,-6676,8866,-11000,11000,268000,641607,
2852,-4816,18508,9920,-6986,7830,-10000,10000,268000,641619,
2708,-4940,18288,10089,-7109,7674,-10000,10000,269000,641622,
2812,-5032,18404,10111,-7171,7477,-10000,10000,269000,641624,
3228,-5040,17548,10436,-7462,6648,-8000,9000,270000,641637,
3312,-4940,17384,10417,-7516,6492,-8000,9000,270000,641639,
3528,-4968,17088,10510,-7378,6324,-8000,9000,270000,641641,
4144,-5104,16700,10755,-6855,5144,-7000,8000,270000,641654,
4212,-5088,16720,10900,-6635,4969,-7000,8000,270000,641656,
4200,-5124,16560,10941,-6527,4754,-7000,8000,271000,641658,
4348,-4812,16744,11729,-5813,3790,-5000,7000,271000,641671,
4456,-4720,16836,11834,-5752,3597,-5000,7000,271000,641673,
4380,-4348,16904,12080,-5660,3457,-5000,7000,271000,641675,
4152,-3568,16368,12470,-5624,2403,-4000,6000,271000,641688,
4108,-3408,16260,12569,-5819,2188,-4000,6000,271000,641690,
4088,-3440,16120,12501,-5853,1981,-3000,6000,271000,641693,
3960,-3212,15896,12641,-6706,788,-2000,5000,272000,641705,
4080,-3172,15744,12757,-6736,593,-2000,5000,272000,641707,
3992,-3212,15716,12656,-6943,387,-2000,5000,272000,641710,
4624,-3264,15060,12782,-6988,-869,-1000,4000,272000,641722,
4780,-3180,14692,12712,-6956,-1084,0,4000,272000,641724,
4944,-3144,14564,12912,-6971,-1275,0,4000,272000,641727,
5268,-3228,13964,12886,-6297,-2511,0,3000,271000,641739,
5312,-3240,13756,12826,-6087,-2669,0,3000,271000,641742,
5328,-3264,13796,12889,-5890,-2905,0,3000,271000,641744,
5296,-3024,13296,12779,-4500,-3998,1000,2000,271000,641756,
5308,-2852,13388,12905,-4227,-4205,2000,2000,271000,641759,
5324,-2700,13428,12941,-3826,-4333,2000,2000,271000,641761,
4768,-2220,13012,12634,-2135,-5180,3000,2000,270000,641774,
4600,-2096,13112,12685,-1781,-5258,3000,2000,270000,641776,
4472,-2044,13008,12530,-1569,-5399,3000,2000,270000,641778,
3436,-1804,11964,12185,-285,-6031,4000,1000,269000,641791,
3316,-1696,11912,12002,-84,-6108,5000,1000,269000,641793,
3160,-1592,11736,11940,110,-6194,5000,1000,269000,641795,
2348,-1252,11200,11225,653,-6571,6000,2000,269000,641807,
2064,-1248,11080,11163,644,-6632,6000,2000,268000,641810,
2000,-1240,11072,11027,672,-6667,6000,2000,268000,641812,
1148,-996,10888,10679,332,-6717,7000,2000,268000,641824,
1016,-952,10788,10519,199,-6716,7000,2000,268000,641827,
928,-788,10740,10449,44,-6743,7000,2000,267000,641829,
196,-36,10256,9912,-805,-6864,8000,2000,267000,641842,
268,40,10196,9846,-1075,-6895,8000,2000,267000,641844,
104,236,10040,9679,-1233,-6907,9000,2000,266000,641846,
-192,1088,9612,8895,-2478,-6969,9000,1000,266000,641859,
-152,1288,9728,8713,-2614,-6962,10000,1000,266000,641861,
4,1376,9552,8581,-2842,-7018,10000,1000,266000,641863,
232,1964,9544,7697,-3903,-7128,10000,1000,265000,641876,
180,1936,9668,7512,-4134,-7183,11000,1000,265000,641878,
384,2088,9628,7330,-4121,-7191,11000,1000,265000,641880,
1008,2396,9724,6525,-4112,-7487,11000,1000,264000,641893,
1136,2464,9708,6406,-3920,-7568,11000,1000,264000,641895,
988,2696,9612,6379,-3907,-7560,12000,1000,263000,641897,
1380,3780,9876,6236,-3452,-7727,12000,0,263000,641910,
1016,4168,9332,5974,-3517,-7713,12000,0,263000,641912,
948,4348,9396,5653,-3672,-7823,12000,0,262000,641914,
960,4544,9500,5589,-3556,-7870,13000,0,262000,641917,
64,5380,9316,4568,-3774,-8172,13000,0,261000,641929,
16,5344,9376,4421,-3763,-8177,13000,0,261000,641932,
-256,5460,9448,4138,-3884,-8206,13000,0,261000,641934,
-428,5384,9824,2911,-4349,-8233,14000,0,260000,641946,
-276,5408,9840,2641,-4391,-8255,14000,0,260000,641949,
-228,5308,10032,2489,-4412,-8272,14000,0,260000,641951,
44,4848,10456,1785,-3988,-8456,14000,0,259000,641963,
-72,4628,10484,1740,-3874,-8487,14000,0,259000,641966,
32,4536,10700,1648,-3718,-8483,14000,0,259000,641968,
-112,4568,10660,1568,-3588,-8553,14000,0,259000,641970,
-296,4212,10468,1122,-2741,-8655,14000,0,258000,641983,
-408,4216,10328,997,-2617,-8687,14000,0,258000,641985,
-456,4084,10488,952,-2378,-8685,14000,0,257000,641987,
-1060,3956,10928,873,-1759,-8673,14000,0,257000,642000,
-1204,4040,11144,980,-1617,-8595,14000,0,256000,642002,
-1296,4100,11192,937,-1579,-8542,14000,0,256000,642004,
-1700,4904,11652,1018,-1171,-8199,15000,0,255000,642017,
-1896,5244,11784,966,-1159,-8196,15000,0,255000,642019,
-1888,5368,11712,1000,-1042,-8179,15000,0,255000,642021,
-2400,6104,11300,676,-877,-8041,15000,0,254000,642034,
-776,6180,11580,695,-959,-8141,15000,0,254000,642036,
-3000,6172,11708,904,-407,-7889,15000,0,254000,642038,
-2844,7676,11388,250,-973,-7634,15000,0,253000,642051,
-3008,7832,11088,50,-926,-7524,15000,0,253000,642053,
-3032,7816,11180,-109,-1036,-7477,15000,0,253000,642055,
-3488,7668,11172,-928,-1370,-7253,15000,0,252000,642068,
-3504,7528,11292,-1021,-1376,-7132,15000,0,252000,642070,
-3472,7368,11316,-1194,-1487,-7047,15000,1000,252000,642072,
-3436,6864,11724,-1497,-1778,-6365,15000,1000,252000,642085,
-3356,6792,11868,-1574,-1892,-6301,15000,1000,251000,642087,
-3216,6988,11876,-1498,-1887,-6157,15000,1000,251000,642089,
-2976,7068,11960,-1797,-1998,-5621,15000,1000,251000,642102,
-2880,7044,11944,-1787,-2025,-5570,15000,1000,251000,642104,
-2876,7152,12084,-1867,-1934,-5458,15000,1000,251000,642106,
-2364,7504,12400,-2098,-1584,-5204,15000,1000,250000,642119,
-2124,7492,12464,-2168,-1487,-5148,15000,1000,250000,642121,
-2080,7452,12524,-2250,-1373,-5072,15000,1000,250000,642123,
-1728,7364,12860,-2291,-569,-4862,14000,1000,249000,642136,
-1764,7424,12888,-2273,-306,-4841,14000,1000,249000,642138,
-1620,7404,12796,-2328,-166,-4844,14000,1000,249000,642141,
-2156,7244,13236,-1913,247,-4767,14000,1000,249000,642153,
-2320,7288,13356,-1881,94,-4775,14000,1000,249000,642155,
-2356,7348,13356,-1784,77,-4724,14000,1000,249000,642158,
-2948,7592,13956,-1657,-858,-4602,14000,1000,248000,642170,
-2908,7440,13872,-1578,-984,-4572,14000,1000,248000,642172,
-2976,7564,14068,-1668,-1223,-4596,14000,1000,248000,642175,
-2992,7400,13928,-1666,-2042,-4506,14000,1000,248000,642187,
-2984,7320,13992,-1641,-2164,-4458,14000,1000,247000,642189,
-2916,7292,14112,-1648,-2189,-4400,14000,1000,247000,642192,
-2628,7152,14340,-1717,-2185,-4055,14000,1000,247000,642204,
-2684,7220,14256,-1751,-1983,-3944,14000,1000,247000,642207,
-2540,7000,14296,-1760,-1920,-3865,14000,1000,247000,642209,
-2292,6744,14616,-1887,-824,-3287,14000,1000,246000,642221,
-2508,6768,14612,-1899,-672,-3233,14000,1000,246000,642224,
-2460,6740,14692,-1923,-376,-3110,14000,1000,246000,642226,
-2540,6240,15060,-1962,779,-2518,14000,1000,246000,642238,
-2588,6208,15248,-1927,1006,-2388,14000,1000,246000,642241,
-2700,6112,15108,-1950,1150,-2266,14000,1000,246000,642243,
-2804,5832,14976,-1722,1737,-1820,13000,2000,246000,642255,
-2836,5720,15260,-1649,1838,-1723,13000,2000,246000,642258,
-3020,5728,15032,-1593,1789,-1686,13000,2000,246000,642260,
-3268,5804,14972,-1237,1370,-1268,13000,2000,246000,642272,
-3332,5940,14952,-1231,1159,-1195,13000,2000,246000,642275,
-3076,6604,14860,-1091,223,-847,13000,2000,246000,642287,
-2892,6656,14724,-1058,60,-785,13000,2000,246000,642290,
-2800,6676,14944,-1071,-91,-736,13000,2000,246000,642292,
-2000,6804,14972,-1035,-593,-490,13000,2000,246000,642304,
-1868,6920,15076,-1075,-599,-497,13000,2000,246000,642307,
-1696,6904,15248,-1022,-588,-436,13000,2000,246000,642309,
-952,6896,15168,-927,-27,-416,13000,2000,246000,642321,
-812,6864,15060,-870,71,-393,13000,2000,246000,642324,
-784,6832,15044,-842,249,-448,13000,2000,246000,642326,
-740,6672,14828,-755,821,-357,13000,2000,246000,642339,
-836,6588,14688,-661,937,-339,13000,2000,246000,642341,
-768,6492,14884,-679,924,-352,13000,2000,246000,642343,
-932,6248,14728,-574,943,-360,13000,2000,246000,642356,
-896,6156,14772,-557,941,-331,13000,2000,246000,642358,
-992,6084,14876,-604,880,-317,13000,2000,246000,642360,
-1080,5800,15020,-498,902,-281,13000,2000,246000,642372,
-1000,5736,14932,-505,901,-279,13000,2000,246000,642375,
-1004,5728,14968,-469,978,-196,13000,3000,246000,642377,
-864,5676,14720,-464,1285,-58,13000,3000,246000,642389,
-796,5672,14700,-430,1393,-27,13000,3000,246000,642392,
-932,5816,14572,-462,1435,3,13000,3000,246000,642394,
-804,5952,14444,-516,1796,175,13000,3000,246000,642406,
-1008,5884,14552,-480,1857,195,13000,3000,246000,642409,
-1008,5888,14340,-536,1801,241,13000,3000,246000,642411,
-1384,6080,14476,-664,1582,403,13000,3000,246000,642423,
-1336,6132,14676,-735,1437,474,13000,3000,246000,642426,
-1272,5984,14580,-749,1419,458,13000,3000,246000,642428,
-1228,6048,14532,-990,881,557,13000,3000,246000,642440,
-1116,6048,14472,-951,853,589,13000,3000,246000,642443,
-1144,5912,14624,-1021,725,592,13000,3000,246000,642445,
-660,6020,14480,-1034,570,713,13000,3000,246000,642457,
-612,6120,14648,-1088,543,690,13000,3000,246000,642460,
-488,6104,14628,-1033,538,730,13000,3000,246000,642462,
-412,6352,14964,-1100,500,754,13000,3000,246000,642475,
-400,6412,15000,-1066,428,745,13000,3000,246000,642477,
-516,6396,15064,-1132,415,739,13000,3000,246000,642479,
-344,6336,15276,-1260,164,649,13000,3000,246000,642492,
-300,6332,15312,-1308,119,657,13000,3000,246000,642494,
-212,6260,15292,-1311,24,624,13000,3000,246000,642496,
188,6088,15364,-1288,61,452,13000,3000,246000,642509,
252,6084,15240,-1303,-10,457,13000,3000,246000,642511,
312,5944,15220,-1246,126,414,13000,3000,246000,642513,
516,5908,15280,-1175,440,246,13000,3000,246000,642526,
484,5932,15356,-1103,623,205,13000,3000,246000,642528,
496,5876,15204,-1154,631,175,13000,3000,246000,642530,
412,5668,15200,-1090,1299,17,13000,3000,246000,642543,
356,5616,15252,-1124,1384,-17,13000,3000,246000,642545,
220,5512,15264,-1074,1476,-26,13000,3000,246000,642547,
-192,5552,15340,-932,1865,-45,13000,3000,246000,642560,
-184,5576,15312,-840,1892,-43,13000,4000,246000,642562,
-360,5548,15224,-879,1853,-27,13000,4000,246000,642564,
-880,5800,15268,-818,1358,5,13000,4000,246000,642577,
-1016,5856,15228,-873,1151,14,13000,4000,246000,642579,
-952,5784,15096,-868,1097,22,13000,4000,246000,642581,
-760,5860,15324,-1063,422,-22,12000,4000,246000,642594,
-604,5820,15344,-991,427,-47,12000,4000,246000,642596,
-680,5780,15372,-1055,364,-60,12000,4000,246000,642598,
-532,5708,15248,-862,309,-32,12000,4000,246000,642611,
-736,5656,15268,-928,199,-32,12000,4000,246000,642613,
-608,5700,15548,-855,234,-9,12000,4000,246000,642615,
-624,5732,15340,-896,190,-30,12000,4000,246000,642618,
-792,5620,15288,-807,-65,-7,12000,4000,247000,642630,
-824,5612,15320,-832,-229,-19,12000,4000,246000,642633,
-840,5628,15252,-767,-219,8,12000,4000,246000,642635,
-528,5632,15480,-767,-563,8,12000,4000,246000,642647,
-496,5704,15668,-705,-475,-37,12000,4000,246000,642650,
-384,5592,15508,-754,-530,-19,12000,4000,246000,642652,
-36,5704,15440,-594,-142,-113,12000,4000,246000,642664,
-80,5596,15392,-610,-126,-105,12000,4000,246000,642667,
-88,5576,15492,-543,-15,-110,12000,4000,246000,642669,
-344,5636,15116,-513,419,-184,12000,4000,246000,642681,
-192,5604,15232,-428,540,-199,12000,4000,246000,642684,
-316,5540,15268,-497,537,-227,12000,4000,246000,642686,
-540,5420,14856,-419,717,-252,12000,4000,246000,642698,
-536,5380,14852,-373,752,-251,12000,4000,246000,642701,
-584,5420,14832,-422,756,-259,12000,4000,246000,642703,
-696,5236,14628,-375,803,-243,12000,4000,246000,642715,
-772,5224,14752,-444,819,-272,12000,4000,246000,642718,
-744,5244,14632,-410,803,-254,12000,4000,246000,642720,
-1000,5244,14492,-406,773,-202,12000,4000,246000,642732,
-912,5212,14468,-395,711,-183,12000,4000,246000,642735,
