Ax,Ay,Az,Gx,Gy,Gz,Roll,Pitch,Yaw,Timestamp,Target
-5096,8236,14412,-307,327,-250,18000,20000,308000,1158872,
-5016,7944,14308,-196,344,-177,18000,20000,308000,1158885,
-5208,7848,14468,-140,362,-107,18000,20000,308000,1158887,
-5248,7896,14360,-133,328,-102,18000,20000,308000,1158889,
-5064,7832,14028,21,237,22,18000,20000,308000,1158902,
-5020,7896,14112,-102,129,46,18000,20000,308000,1158904,
-4968,7856,13928,6,160,67,18000,20000,308000,1158906,
-5184,7788,14096,-164,-148,242,19000,20000,308000,1158919,
-5308,7692,14192,-54,-162,312,19000,20000,308000,1158921,
-5388,7680,14200,-161,-259,347,19000,20000,308000,1158923,
-5452,7652,14000,-212,-590,639,19000,19000,308000,1158936,
-5236,7736,14084,-280,-645,732,19000,19000,308000,1158938,
-5236,7676,14004,-238,-713,757,19000,19000,308000,1158940,
-5140,7496,14192,-371,-1323,880,19000,19000,308000,1158953,
-5004,7496,14360,-447,-1439,837,19000,19000,308000,1158955,
-5008,7376,14256,-371,-1451,878,19000,19000,308000,12,
-4284,6500,13700,-1011,-1243,273,19000,20000,313000,1161148,
-4036,7200,14216,-228,-1107,916,19000,19000,308000,1158987,
-4092,7224,14136,-360,-1113,949,19000,19000,308000,1158989,
-4084,7152,14160,-221,-1022,905,19000,19000,308000,1158992,
-4044,7176,14032,-250,-979,807,19000,19000,308000,1159004,
-4048,7108,14068,-229,-1013,741,19000,19000,308000,1159007,
-3956,7268,13928,-209,-979,772,19000,19000,308000,1159009,
-3996,7316,13736,-252,-945,560,19000,18000,308000,1159021,
-4012,7272,13764,-115,-880,567,19000,18000,308000,1159024,
-4048,7248,13756,-253,-900,504,19000,18000,308000,1159026,
-3972,7164,13720,-75,-753,360,19000,18000,308000,1159039,
-4052,7240,13600,-199,-795,355,19000,18000,308000,1159041,
-3960,7280,13584,-12,-696,312,19000,18000,308000,1159043,
-4112,7440,13544,-187,-650,184,19000,18000,308000,1159056,
-4204,7408,13472,-131,-632,111,19000,18000,308000,1159058,
-4120,7508,13452,-219,-648,109,19000,18000,308000,1159060,
-4484,7188,13332,-232,-797,-76,19000,18000,308000,1159073,
-4340,7204,13160,-277,-856,-68,19000,18000,308000,1159075,
-4444,7180,13232,-239,-961,-123,19000,18000,308000,1159077,
-4112,7220,13016,-323,-1272,-248,19000,18000,308000,1159090,
-4152,7064,12984,-455,-1410,-295,19000,18000,308000,1159092,
-4096,7196,12980,-364,-1372,-269,19000,18000,308000,1159094,
-4072,7172,13020,-466,-1186,-360,19000,18000,308000,1159107,
-4028,7148,12948,-307,-1026,-327,19000,18000,308000,1159109,
-4072,7180,13080,-451,-971,-318,19000,18000,308000,1159111,
-4188,7284,12824,-374,-492,-285,19000,18000,308000,1159124,
-4248,7292,12808,-464,-454,-256,19000,18000,308000,1159126,
-4208,7224,12864,-399,-371,-257,19000,18000,308000,1159128,
-4696,7016,12888,-552,-361,-268,19000,18000,308000,1159141,
-4876,7068,12796,-612,-456,-296,19000,18000,308000,1159143,
-5052,6892,12912,-600,-439,-248,19000,18000,308000,1159145,
-5224,6760,12908,-832,-768,-163,19000,18000,308000,1159158,
-5160,6720,12916,-721,-796,-87,19000,18000,308000,1159160,
-5268,6768,13048,-879,-915,-34,19000,18000,308000,1159163,
-5312,6712,12880,-963,-1142,237,19000,17000,308000,1159175,
-5204,6880,12940,-1110,-1229,277,19000,17000,308000,1159178,
-5280,6896,12780,-1034,-1204,321,19000,17000,308000,1159180,
-4828,6844,12904,-1331,-1395,437,19000,17000,308000,1159192,
-5008,6828,12792,-1314,-1416,409,19000,17000,308000,1159195,
-4884,6872,12844,-1381,-1404,457,19000,17000,308000,1159197,
-4696,6848,12912,-1527,-1416,408,19000,17000,308000,1159209,
-4512,6808,12984,-1492,-1336,462,19000,17000,308000,1159212,
-4676,6660,13012,-1595,-1353,403,19000,17000,308000,1159214,
-4416,6732,13140,-1573,-1027,519,19000,17000,308000,1159227,
-4360,6748,13064,-1740,-1020,491,19000,17000,308000,1159229,
-4148,6760,13156,-1624,-894,545,19000,17000,308000,1159231,
-4196,6824,13276,-1750,-644,573,18000,17000,308000,1159244,
-4252,6848,13268,-1648,-559,532,18000,17000,308000,1159246,
-4240,6764,13252,-1744,-511,604,18000,17000,308000,1159248,
-4176,6788,13576,-1679,-272,543,18000,17000,308000,1159261,
-4152,6932,13672,-1615,-215,549,18000,17000,308000,1159263,
-4348,6984,13712,-1640,-223,513,18000,17000,308000,1159266,
-4492,6992,13636,-1463,-2,392,18000,17000,308000,1159278,
-4272,7096,13696,-1595,-42,319,18000,17000,308000,1159281,
-4412,7008,13908,-1464,14,320,18000,17000,308000,1159283,
-4396,7116,14012,-1498,-212,201,18000,17000,308000,1159295,
-4440,7232,14120,-1406,-209,151,18000,17000,308000,1159298,
-4404,7296,14112,-1507,-286,179,18000,17000,308000,1159300,
-4452,7284,14260,-1455,-394,93,18000,17000,308000,1159313,
-4484,7244,14212,-1414,-410,129,18000,17000,308000,1159315,
-4452,7156,14380,-1425,-439,82,18000,17000,308000,1159317,
-4084,7072,14324,-1235,-275,-38,18000,16000,308000,1159330,
-3916,7136,14276,-1335,-261,-74,18000,16000,308000,1159332,
-3820,7260,14356,-1141,-115,-46,18000,16000,308000,1159334,
-4052,7168,14544,-1025,330,-48,18000,16000,309000,1159347,
-4156,7212,14504,-856,503,-7,18000,16000,309000,1159349,
-4132,7244,14696,-941,558,4,18000,16000,309000,1159351,
-4112,7328,14396,-642,950,113,18000,17000,309000,1159364,
-4240,7352,14452,-696,970,152,18000,17000,309000,1159366,
-4260,7368,14460,-582,1005,142,18000,17000,309000,1159368,
-4772,7144,14440,-503,871,85,18000,17000,309000,1159381,
-4700,7084,14384,-480,818,49,18000,17000,309000,1159383,
-4704,6984,14460,-459,818,74,18000,17000,309000,1159386,
-4836,6820,14332,-327,610,160,18000,17000,309000,1159398,
-4792,6792,14216,-191,632,227,18000,17000,309000,1159400,
-4792,6716,14164,-258,534,213,18000,17000,309000,1159403,
-4684,6784,13948,9,536,349,18000,17000,309000,1159415,
-4640,6816,14040,-71,439,327,18000,17000,309000,1159418,
-4584,6896,13984,91,503,369,18000,17000,309000,1159420,
-4532,6884,13756,68,498,432,18000,17000,309000,1159432,
-4316,6892,13660,205,573,417,18000,17000,309000,1159435,
-4456,6888,13716,81,516,409,18000,17000,309000,1159437,
-4408,6860,13812,213,590,406,18000,17000,309000,1159449,
-4584,6940,13588,195,614,432,18000,17000,309000,1159452,
-4548,6972,13764,265,612,435,18000,17000,309000,1159454,
-4484,7140,13668,289,889,469,18000,17000,309000,1159466,
-4440,7272,13768,201,880,394,18000,17000,309000,1159469,
-4344,7064,13656,274,990,506,18000,17000,309000,1159471,
-4616,6956,13472,194,1161,496,18000,17000,309000,1159484,
-4680,7096,13308,320,1291,532,18000,17000,309000,1159486,
-4484,7068,13320,150,1219,562,18000,17000,309000,1159488,
-4516,7136,13384,154,1213,553,19000,17000,309000,1159501,
-4592,7152,13324,30,1136,559,19000,17000,309000,1159503,
-4664,7056,13412,94,1210,601,19000,17000,309000,1159505,
-4780,7120,13064,-137,1252,649,19000,17000,310000,1159518,
-4552,7156,13252,-155,1258,640,19000,17000,310000,1159520,
-4548,7092,13080,-209,1298,695,19000,17000,310000,1159522,
-4600,7096,13328,-421,1171,696,19000,17000,310000,1159535,
-4676,6940,13340,-354,1203,745,19000,17000,310000,1159537,
-4548,7052,13320,-461,1135,722,19000,17000,310000,1159540,
-4564,6964,13444,-541,1063,806,19000,18000,310000,1159552,
-4592,7024,13256,-719,973,809,19000,18000,310000,1159554,
-4652,6868,13188,-578,999,830,19000,18000,310000,1159557,
-4512,6820,13180,-803,797,826,19000,18000,310000,1159569,
-4356,6820,13404,-825,787,821,19000,18000,310000,1159572,
-4300,6844,13540,-870,788,870,19000,18000,310000,1159574,
-4292,6800,13588,-971,657,933,19000,18000,310000,1159586,
-4452,6792,13372,-893,684,972,19000,18000,310000,1159589,
-4480,6792,13580,-990,623,964,19000,18000,310000,1159591,
-4252,6860,13668,-971,580,1004,19000,18000,310000,1159604,
-4200,6804,13736,-1117,479,1007,19000,18000,310000,1159606,
-4296,6720,13688,-985,534,1021,19000,18000,310000,1159608,
-4368,6636,13748,-1217,412,962,19000,18000,311000,1159621,
-4332,6672,13576,-1121,456,948,19000,18000,311000,1159623,
-4280,6660,13584,-1254,410,965,19000,18000,311000,1159625,
-4312,6544,13556,-1337,291,1044,19000,18000,311000,1159638,
-4276,6472,13708,-1320,274,1071,19000,18000,311000,1159640,
-4388,6436,13736,-1348,215,1060,19000,18000,311000,1159642,
-4228,6372,13652,-1437,5,1148,19000,18000,311000,1159655,
-4240,6504,13888,-1559,-161,1095,19000,18000,311000,1159657,
-4224,6516,13980,-1455,-155,1104,19000,18000,311000,1159659,
-4068,6412,14140,-1648,-291,1036,18000,17000,311000,1159672,
-4252,6420,14036,-1546,-263,1017,18000,17000,311000,1159674,
-4024,6364,13976,-1675,-291,1032,18000,17000,311000,1159676,
-3832,6468,14104,-1676,-197,945,18000,17000,311000,1159689,
-3852,6368,14116,-1715,-138,1003,18000,17000,311000,1159691,
-3812,6540,14084,-1658,-143,955,18000,17000,311000,1159694,
-4040,6348,14036,-1656,-45,967,18000,17000,311000,1159706,
-3972,6336,14268,-1761,-108,912,18000,17000,311000,1159709,
-4140,6308,14088,-1655,-28,927,18000,17000,311000,1159711,
-4028,6232,14204,-1779,-225,793,18000,17000,311000,1159723,
-3988,6316,14240,-1626,-177,788,18000,17000,311000,1159726,
-4032,6468,14128,-1787,-250,776,18000,17000,311000,1159728,
-4116,6560,14256,-1800,-361,586,18000,17000,312000,1159740,
-4120,6484,14444,-1871,-397,609,18000,17000,312000,1159743,
-4152,6468,14252,-1829,-378,558,18000,17000,312000,1159745,
-3904,6476,14592,-1766,-245,506,18000,17000,312000,1159758,
-3952,6508,14744,-1852,-303,424,18000,17000,312000,1159760,
-3832,6476,14908,-1755,-224,392,18000,17000,312000,1159762,
-3976,6420,15044,-1703,64,162,17000,17000,312000,1159775,
-4120,6344,14816,-1495,206,122,17000,17000,312000,1159777,
-4048,6304,14844,-1603,210,116,17000,17000,312000,1159779,
-4004,6216,14756,-1325,480,-6,17000,17000,312000,1159792,
-4036,6260,14720,-1416,463,-10,17000,17000,312000,1159794,
-4140,6188,14800,-1272,550,-53,17000,17000,312000,1159796,
-4512,6124,15012,-1190,454,-43,17000,17000,312000,1159809,
-4496,6248,14952,-1179,448,-85,17000,17000,312000,1159811,
-4636,6132,14748,-1168,458,-4,17000,17000,312000,1159814,
-4428,6332,14988,-1025,367,-65,17000,17000,312000,1159826,
-4516,6256,14992,-908,405,-50,17000,17000,312000,1159828,
-4536,6320,14988,-986,325,-81,17000,17000,312000,1159831,
-4604,6304,15200,-662,435,-151,17000,17000,312000,1159843,
-4588,6212,14992,-772,372,-203,17000,17000,312000,1159846,
-4488,6188,15020,-614,458,-175,17000,17000,312000,1159848,
-4376,6276,15008,-513,541,-202,17000,17000,312000,1159860,
-4200,6304,14992,-469,569,-179,17000,17000,312000,1159863,
-4180,6316,15020,-448,611,-162,17000,17000,312000,1159865,
-4520,6360,14712,-352,699,-82,17000,17000,312000,1159877,
-4540,6300,14968,-207,804,-21,17000,17000,312000,1159880,
-4380,6520,14764,-285,775,-25,17000,17000,312000,1159882,
-4192,6604,14700,-62,806,43,17000,17000,312000,1159895,
-4296,6648,14612,-203,722,31,17000,17000,312000,1159897,
-4428,6700,14628,-42,783,62,17000,17000,312000,1159899,
-4540,6836,14560,-126,659,157,17000,17000,312000,1159912,
-4448,6828,14508,-58,668,122,17000,17000,312000,1159914,
-4316,6812,14464,-186,615,153,17000,17000,312000,1159916,
-4356,6776,14256,-236,500,183,17000,17000,312000,1159929,
-4368,6784,14276,-179,517,228,17000,17000,312000,1159931,
-4580,6780,14220,-270,425,204,17000,17000,312000,1159933,
-4360,6880,14172,-225,237,339,17000,17000,312000,1159946,
-4268,6932,14232,-371,133,354,17000,17000,312000,1159948,
-4228,6940,14196,-284,126,389,17000,17000,312000,1159950,
-4288,6892,14108,-451,-269,479,17000,17000,312000,1159963,
-4328,6744,14084,-441,-325,401,17000,17000,312000,1159965,
-4068,6760,14080,-493,-392,460,17000,17000,312000,1159968,
-3780,6900,14152,-565,-662,277,17000,17000,312000,1159980,
-3840,6776,14096,-473,-609,327,17000,17000,312000,1159982,
-3764,6792,14092,-563,-651,264,17000,17000,312000,1159985,
-3496,6748,13956,-372,-328,197,17000,17000,312000,1159997,
-3340,6732,13988,-507,-346,146,17000,17000,312000,1160000,
-3448,6788,13952,-344,-187,217,17000,17000,312000,1160002,
-3452,6992,14064,-469,15,205,17000,17000,312000,1160014,
-3428,6988,13976,-373,96,178,17000,17000,312000,1160017,
-3428,7084,14048,-485,66,191,17000,17000,312000,1160019,
-3668,6880,13984,-478,72,33,17000,17000,312000,1160032,
-3756,6856,13792,-442,92,28,17000,17000,312000,1160034,
-3864,6844,13912,-487,31,0,17000,17000,312000,1160036,
-3744,6980,13888,-475,-90,-34,17000,17000,312000,1160049,
-3656,7020,13788,-575,-184,-126,17000,17000,312000,1160051,
-3672,6924,13960,-538,-164,-70,17000,17000,312000,1160053,
-3880,6764,13808,-633,-358,-174,17000,17000,312000,1160066,
-3940,6620,13764,-487,-345,-159,17000,17000,312000,1160068,
-3840,6776,13756,-606,-433,-202,17000,17000,312000,1160070,
-3776,6880,13684,-487,-524,-273,17000,17000,312000,1160083,
-3764,6772,13648,-615,-564,-281,17000,17000,312000,1160085,
-3812,6804,13524,-506,-504,-290,17000,17000,312000,1160088,
-3864,6784,13708,-547,-412,-265,17000,17000,312000,1160100,
-3720,6696,13568,-549,-407,-339,17000,17000,312000,1160102,
-3808,6788,13648,-548,-336,-295,17000,17000,312000,1160105,
-3796,6812,13828,-507,-115,-371,17000,17000,312000,1160117,
-4004,6740,13836,-364,20,-325,17000,17000,312000,1160120,
-3976,6828,13868,-453,-56,-356,17000,17000,312000,1160122,
-3940,6836,13736,-328,153,-370,17000,17000,312000,1160134,
-4068,6872,13756,-407,159,-367,17000,17000,312000,1160137,
-4180,6836,13740,-305,190,-387,17000,17000,312000,1160139,
-4292,6832,13728,-365,233,-374,17000,17000,312000,1160152,
-4284,6840,13724,-431,188,-420,17000,17000,312000,1160154,
-4136,6792,13844,-389,217,-359,17000,17000,312000,1160156,
-4396,6732,13852,-464,118,-369,17000,17000,312000,1160169,
-4484,6780,13600,-353,177,-364,17000,17000,312000,1160171,
-4532,6700,14020,-480,92,-373,17000,17000,312000,1160173,
-4364,6860,13860,-363,257,-348,17000,17000,312000,1160186,
-4352,6732,13732,-482,263,-337,17000,17000,312000,1160188,
-4384,6700,13968,-358,321,-334,17000,17000,312000,1160190,
-4548,6508,14140,-377,516,-338,17000,17000,312000,1160203,
-4564,6516,14152,-365,576,-374,17000,17000,312000,1160205,
-4568,6456,14068,-345,636,-321,17000,17000,312000,1160208,
-4576,6568,14052,-338,751,-218,17000,17000,312000,1160220,
-4656,6696,14068,-240,807,-188,17000,17000,312000,1160222,
-4580,6752,14048,-345,738,-169,17000,17000,312000,1160225,
-4788,6816,13960,-310,710,-102,17000,17000,312000,1160237,
-4764,6620,14052,-353,650,-132,17000,17000,312000,1160240,
-4864,6640,14036,-418,588,-112,17000,17000,312000,1160242,
-4656,6700,14216,-315,525,51,17000,17000,312000,1160254,
-4628,6652,14036,-430,508,42,17000,17000,312000,1160257,
-4528,6656,14140,-299,535,100,17000,17000,312000,1160259,
-4584,6812,13948,-409,470,232,17000,17000,312000,1160272,
-4564,6844,13944,-381,414,186,17000,17000,312000,1160274,
-4560,6972,13964,-444,435,237,17000,17000,312000,1160276,
-4192,7176,13768,-455,417,259,18000,17000,312000,1160289,
-4212,7228,14016,-381,454,316,18000,17000,312000,1160291,
-4176,7300,13968,-507,409,294,18000,17000,312000,1160293,
-4248,7540,14104,-421,485,355,18000,17000,312000,1160306,
-4072,7728,13944,-565,511,399,18000,17000,312000,1160308,
-4088,7768,14184,-465,558,410,18000,17000,312000,1160311,
-3940,8016,13984,-695,667,500,18000,17000,313000,1160323,
-3956,7920,14088,-696,661,457,18000,17000,313000,1160325,
-3904,7964,13976,-688,687,476,18000,17000,313000,1160328,
-4192,7900,14088,-759,687,365,18000,17000,313000,1160340,
-4148,7888,14176,-679,705,412,18000,17000,313000,1160343,
-4128,8040,14084,-782,659,399,18000,17000,313000,1160345,
-4164,8148,13976,-794,485,387,18000,17000,313000,1160358,
-4052,7996,14052,-915,399,386,18000,17000,313000,1160360,
-4088,7992,13904,-811,377,383,18000,17000,313000,1160362,
-4308,7568,14084,-943,135,244,18000,17000,313000,1160375,
-4372,7508,13924,-933,78,174,18000,17000,313000,1160377,
-4336,7564,14032,-924,67,189,18000,17000,313000,1160379,
-4208,7624,14088,-908,95,112,18000,17000,313000,1160392,
-4156,7616,14160,-783,170,152,18000,17000,313000,1160394,
-4312,7624,14168,-846,145,102,18000,17000,313000,1160396,
-5376,8072,13168,-471,1290,-516,19000,19000,312000,1161406,
-6100,7780,13080,-583,996,-405,19000,19000,312000,1161418,
-6244,7792,13072,-436,945,-310,19000,20000,312000,1161421,
-6152,7796,13000,-599,767,-315,19000,20000,312000,1161423,
-6236,7836,13228,-656,-268,-151,19000,20000,312000,1161436,
-6164,7760,13224,-753,-373,-66,19000,20000,312000,1161438,
-6180,7832,13044,-698,-543,-63,19000,20000,312000,1161440,
-5896,7796,13452,-738,-1100,128,19000,19000,312000,1161453,
-5760,7808,13428,-839,-1168,150,19000,19000,312000,1161455,
-5684,7736,13440,-763,-1143,173,19000,19000,312000,1161457,
-4976,7820,13520,-903,-925,337,19000,19000,312000,1161470,
-4868,7680,13616,-755,-751,391,19000,19000,312000,1161472,
-4912,7776,13412,-910,-756,417,19000,19000,312000,1161474,
-4796,7396,13564,-779,-85,644,19000,19000,312000,1161487,
-4852,7340,13384,-850,-37,666,19000,19000,312000,1161489,
-4896,7312,13372,-783,64,677,19000,19000,312000,1161492,
-4700,7056,13396,-826,278,864,19000,19000,312000,1161504,
-4596,7084,13420,-913,253,859,19000,19000,312000,1161506,
-4612,7040,13356,-848,304,905,19000,19000,312000,1161509,
-4960,6732,13560,-1015,55,1106,19000,19000,312000,1161521,
-4992,6644,13544,-909,93,1161,19000,19000,312000,1161524,
-4960,6864,13420,-1072,-27,1202,19000,19000,312000,1161526,
-4580,7040,13544,-1054,-198,1347,19000,19000,312000,1161538,
-4564,7092,13784,-1125,-237,1371,19000,19000,312000,1161541,
-4588,7100,13676,-1037,-240,1371,19000,19000,312000,1161543,
-4500,7312,13552,-1158,-238,1258,19000,19000,312000,1161555,
-4256,7284,13792,-1176,-300,1186,19000,19000,313000,1161558,
-4256,7184,13592,-1149,-259,1146,19000,19000,313000,1161560,
-4212,6996,13556,-1238,-398,887,19000,19000,313000,1161573,
-4212,6992,13564,-1132,-344,879,19000,19000,313000,1161575,
-4132,7020,13612,-1233,-425,815,19000,19000,313000,1161577,
-4384,6936,13616,-1130,-525,773,19000,19000,313000,1161590,
-4508,6856,13696,-1208,-546,848,19000,19000,313000,1161592,
-4616,6872,13676,-1100,-569,813,19000,19000,313000,1161594,
-4388,6820,13852,-1153,-594,775,19000,19000,313000,1161607,
-4280,6936,13732,-1151,-583,730,19000,19000,313000,1161609,
-4232,7012,13952,-1141,-577,715,19000,19000,313000,1161612,
-4340,7036,14048,-1085,-329,519,18000,18000,313000,1161624,
-4396,6956,14112,-934,-195,532,18000,18000,313000,1161626,
-4292,7020,14168,-1042,-197,485,18000,18000,313000,1161629,
-4368,6816,14032,-720,297,366,18000,18000,313000,1161641,
-4324,6660,14052,-820,313,366,18000,18000,313000,1161643,
-4492,6652,14116,-695,433,373,18000,18000,313000,1161646,
-4784,6672,13816,-646,697,465,18000,18000,313000,1161658,
-4632,6652,13764,-591,691,420,18000,18000,313000,1161661,
-4852,6480,13776,-618,723,464,18000,18000,313000,1161663,
-5108,6604,13592,-543,746,529,18000,19000,313000,1161676,
-5176,6596,13740,-481,806,611,18000,19000,313000,1161678,
-5060,6616,13816,-485,750,573,18000,19000,313000,1161680,
-5492,6752,13744,-287,938,639,19000,19000,313000,1161693,
-5468,6776,13388,-429,900,650,19000,19000,313000,1161695,
-5704,6704,13644,-270,1009,663,19000,19000,313000,1161697,
-5832,6656,13716,-289,1144,709,19000,19000,314000,1161710,
-6068,6644,13504,-110,1222,795,19000,19000,314000,1161712,
-6000,6580,13524,-261,1127,801,19000,19000,314000,1161714,
-6784,6380,13276,-139,1242,1386,19000,19000,314000,1161727,
-6976,6372,13152,-211,1229,1521,19000,19000,314000,1161729,
-7252,6276,13212,-117,1277,1658,19000,19000,314000,1161731,
-8284,6248,12980,-176,1337,2573,19000,19000,314000,1161744,
-8556,6196,13004,-143,1323,2721,19000,19000,314000,1161746,
-8652,6336,13104,-274,1279,3001,19000,19000,314000,1161748,
-9280,6640,12564,-795,927,4152,19000,19000,315000,1161761,
-9564,6608,12408,-824,864,4441,19000,19000,315000,1161763,
-9504,6672,12484,-1022,685,4645,19000,19000,315000,1161765,
-9512,6984,12068,-1843,-242,5878,19000,19000,315000,1161778,
-9516,6888,12200,-2192,-554,6069,19000,19000,316000,1161780,
-9576,6940,12152,-2291,-749,6337,19000,19000,316000,1161783,
-8776,6756,12292,-3771,-2193,7597,19000,19000,316000,1161795,
-8448,6892,12180,-4011,-2461,7842,19000,18000,316000,1161797,
-8332,6780,12232,-4353,-2700,8101,19000,18000,317000,1161800,
-7696,6284,12524,-5967,-4157,9746,19000,18000,317000,1161812,
-7508,6108,12596,-6240,-4463,10049,19000,18000,318000,1161815,
-7316,6008,12604,-6612,-4848,10366,19000,18000,318000,1161817,
-5216,4988,13780,-8136,-7515,11474,18000,17000,319000,1161829,
-4732,4680,14136,-8539,-8001,11554,18000,16000,319000,1161832,
-4204,4500,14548,-8611,-8330,11644,18000,16000,319000,1161834,
-1212,3600,16360,-9579,-10958,11383,17000,15000,320000,1161847,
-220,3488,16928,-9536,-11335,11261,17000,14000,320000,1161849,
3228,3116,17708,-9602,-12221,10394,16000,13000,320000,1161861,
3732,3108,18124,-9590,-12370,10165,16000,13000,320000,1161864,
4456,3084,18152,-9500,-12375,9938,16000,12000,321000,1161866,
7424,2792,19416,-8998,-12600,8148,15000,11000,321000,1161879,
8360,2848,19288,-8738,-12553,7820,15000,10000,321000,1161881,
8564,2784,19512,-8815,-12694,7339,15000,10000,321000,1161883,
11296,2648,20152,-8118,-13034,4898,14000,9000,321000,1161896,
11752,2712,20196,-8104,-13280,4287,14000,8000,321000,1161898,
12328,2768,20164,-7883,-13474,3647,14000,8000,321000,1161900,
14004,2764,20728,-7347,-13946,521,13000,6000,321000,1161913,
13976,2788,20924,-7145,-14038,-48,13000,6000,321000,1161915,
14260,2736,20976,-6973,-13906,-535,13000,6000,321000,1161918,
15584,2700,21068,-5917,-12600,-3414,12000,5000,320000,1161930,
15872,2708,21040,-5675,-12316,-3990,12000,4000,320000,1161933,
17196,2772,20792,-4843,-11277,-7777,11000,3000,319000,1161945,
17204,2744,20900,-4590,-10965,-8534,11000,3000,319000,1161947,
17240,2856,20776,-4589,-10829,-9338,11000,3000,319000,1161950,
17492,2508,20712,-3797,-9537,-13474,11000,2000,317000,1161962,
17472,2252,20500,-3731,-9256,-14123,11000,2000,317000,1161965,
16988,2264,20760,-3528,-9012,-14815,10000,2000,317000,1161967,
16104,992,20032,-2852,-7386,-18470,10000,1000,315000,1161979,
15916,804,19880,-2778,-7155,-19184,10000,1000,315000,1161982,
15788,600,19996,-2566,-6793,-19728,10000,1000,314000,1161984,
14380,-212,19600,-1979,-6213,-22885,10000,0,312000,1161997,
13776,-420,19728,-1806,-6210,-23421,10000,0,311000,1161999,
12420,-1088,19928,-1534,-6983,-26057,9000,0,309000,1162011,
12304,-1172,20016,-1398,-7028,-26661,9000,0,308000,1162014,
12180,-1336,20140,-1442,-7040,-26994,9000,0,308000,1162016,
11268,-2040,21016,-923,-6596,-29724,9000,0,305000,1162029,
10492,-2248,20892,-784,-6142,-30007,9000,0,304000,1162031,
10324,-2268,20864,-639,-5790,-30532,9000,0,304000,1162033,
8956,-3492,20616,103,-3731,-32585,9000,0,301000,1162046,
8600,-3840,20412,120,-3434,-32768,9000,0,300000,1162048,
7900,-4044,20304,309,-3113,-32768,9000,0,300000,1162050,
6120,-5724,19748,1321,-2105,-32768,9000,0,297000,1162063,
5776,-5760,19552,1679,-1924,-32768,9000,0,296000,1162065,
5284,-6000,19460,1722,-1863,-32768,9000,0,295000,1162068,
2020,-6776,18936,2877,-1206,-32768,9000,0,292000,1162080,
1448,-6936,18900,3097,-1161,-32768,9000,0,292000,1162082,
844,-6928,18664,3270,-1159,-32768,9000,0,291000,1162085,
-1732,-6836,18684,4241,-1232,-32768,9000,1000,288000,1162097,
-2088,-6904,18632,4294,-1397,-32768,9000,1000,287000,1162100,
-2628,-6936,18660,4514,-1423,-32768,9000,1000,287000,1162102,
-4648,-7024,18644,5058,-2001,-32768,10000,1000,284000,1162115,
-5240,-7108,18512,5344,-2033,-32768,10000,1000,283000,1162117,
-5780,-7288,18460,5327,-2145,-32768,10000,1000,282000,1162119,
-8376,-8200,18104,6200,-2209,-32768,10000,2000,279000,1162132,
-9168,-8300,17644,6194,-2337,-32768,10000,2000,279000,1162134,
-9288,-8284,17928,6588,-2029,-32768,10000,2000,278000,1162137,
-10444,-7900,16024,6661,-3040,-32768,10000,2000,275000,1162149,
-10592,-7884,15748,6724,-3350,-32768,10000,3000,274000,1162151,
-11344,-6012,13980,6939,-3705,-32698,11000,3000,271000,1162164,
-11244,-5744,13800,6826,-3810,-32367,11000,3000,271000,1162166,
-11196,-5456,13624,6947,-3731,-31779,11000,3000,270000,1162169,
-12096,-3644,12500,6664,-3112,-29139,11000,4000,267000,1162181,
-11756,-2448,11468,6270,-3116,-28861,11000,4000,267000,1162184,
-11972,-3868,13904,6749,-2896,-28147,11000,4000,266000,1162186,
-13268,-2212,12648,6242,-3079,-26594,12000,4000,264000,1162198,
-13832,-1404,12100,6131,-3243,-26276,12000,4000,263000,1162201,
-15148,-336,11568,5541,-5110,-25455,12000,5000,261000,1162213,
-15368,-156,11276,5505,-5439,-25127,12000,5000,260000,1162216,
-15696,244,11080,5210,-5858,-24948,12000,5000,260000,1162218,
-16048,2680,9284,4203,-8361,-23156,12000,5000,257000,1162230,
-18368,1440,10824,3910,-9186,-22576,12000,5000,257000,1162233,
-18048,2340,10444,3813,-9589,-22437,12000,5000,257000,1162235,
-17692,3672,10548,2245,-12638,-21349,12000,4000,254000,1162248,
-16992,3936,10248,1854,-13436,-21446,12000,4000,254000,1162250,
-16728,3956,10444,1543,-14020,-21366,12000,4000,253000,1162252,
-15408,3200,10664,86,-14996,-21387,12000,3000,251000,1162265,
-15272,2916,10820,45,-14686,-21215,12000,3000,251000,1162267,
-14712,2596,11020,-420,-11646,-19627,12000,3000,249000,1162280,
-14628,2820,11332,-279,-10639,-19173,12000,3000,248000,1162282,
-14748,2712,11344,-389,-9652,-18623,12000,3000,248000,1162284,
-16040,3224,11600,-88,-3581,-15653,12000,3000,246000,1162297,
-16300,3180,11816,-74,-2530,-15064,12000,3000,246000,1162299,
-16484,3172,11988,103,-1540,-14628,12000,3000,246000,1162302,
-19284,2560,12372,480,2975,-11801,12000,4000,245000,1162314,
-19804,2500,12132,483,3482,-11366,12000,4000,245000,1162316,
-20276,2416,12272,616,4029,-10629,12000,4000,244000,1162319,
-22392,2368,11608,971,5920,-7356,12000,5000,244000,1162331,
-22724,2404,11596,1149,6163,-6651,12000,5000,244000,1162334,
-22936,2512,11364,1076,6279,-6065,12000,6000,244000,1162336,
-23524,2996,10232,1397,6749,-2514,12000,7000,244000,1162348,
-23448,3288,9880,1259,6593,-1896,12000,7000,244000,1162351,
-23500,3224,9788,1351,6612,-1261,12000,7000,244000,1162353,
-23452,3424,9116,931,5742,1911,12000,8000,244000,1162366,
-23436,3364,8768,874,5512,2431,12000,8000,244000,1162368,
-23276,3412,8980,756,5223,3049,12000,8000,244000,1162370,
-22836,3572,8508,133,4008,6232,12000,9000,245000,1162383,
-22680,3748,8364,56,3805,6858,12000,9000,245000,1162385,
-22536,3736,8544,-113,3535,7413,12000,9000,245000,1162387,
-20948,3656,8288,-764,2670,10411,12000,9000,246000,1162400,
-20600,3556,8084,-1063,2452,10907,13000,9000,246000,1162402,
-20352,3604,8144,-1073,2419,11387,13000,9000,246000,1162405,
-18568,3388,8384,-1920,2153,13798,13000,9000,248000,1162417,
-18324,3320,8356,-1956,2240,14255,13000,10000,248000,1162420,
-17984,3232,8396,-2219,2217,14641,13000,10000,248000,1162422,
-16804,2764,8936,-2832,2555,16934,13000,10000,250000,1162434,
-16768,2668,9224,-2880,2721,17316,13000,10000,250000,1162437,
-16432,2520,9292,-3052,2806,17725,13000,10000,251000,1162439,
-15176,2064,10048,-3500,3386,19622,13000,10000,253000,1162452,
-14868,1980,10072,-3774,3482,19912,13000,10000,253000,1162454,
-14060,1620,10404,-4146,4393,21507,13000,10000,255000,1162467,
-13872,1480,10352,-4362,4433,21762,13000,10000,255000,1162469,
-13756,1276,10312,-4364,4560,22083,13000,10000,256000,1162471,
-12064,1012,10576,-4948,4509,23009,13000,10000,258000,1162484,
-11800,980,10796,-5092,4451,23172,13000,10000,259000,1162486,
-11540,812,10772,-5163,4390,23228,13000,10000,259000,1162489,
-10444,1056,11252,-5764,4397,23861,12000,10000,261000,1162501,
-10336,920,11400,-5726,4512,23960,12000,10000,262000,1162503,
-9932,1012,11376,-5954,4556,24089,12000,10000,262000,1162506,
-9304,784,11916,-6411,4782,24909,12000,11000,265000,1162518,
-9224,652,12096,-6661,4650,25007,12000,11000,265000,1162521,
-9092,740,12280,-6651,4646,25162,12000,11000,266000,1162523,
-8764,568,13236,-7256,3777,25514,12000,11000,268000,1162536,
-8244,612,13552,-7364,3492,25604,12000,11000,269000,1162538,
-7048,88,14812,-7777,1949,25389,11000,10000,271000,1162550,
-6960,-60,15024,-7926,1704,25325,11000,10000,272000,1162553,
-6712,-208,15180,-7833,1669,25306,11000,10000,272000,1162555,
-4796,-884,16348,-7853,1289,24839,11000,10000,274000,1162567,
-4408,-1032,16676,-7614,1529,24868,11000,10000,275000,1162570,
-4136,-1144,16832,-7629,1665,24804,11000,10000,275000,1162572,
-1936,-1060,16560,-7069,2983,24091,10000,10000,278000,1162585,
-4944,-1740,16296,-6456,-1841,23646,10000,10000,278000,1162587,
5068,-4280,14300,-7895,2525,21882,10000,9000,278000,1162589,
-1212,-1316,18688,-5828,6125,24296,10000,10000,281000,1162602,
-624,-1380,16372,-5892,5639,24280,10000,10000,281000,1162604,
-220,-1332,18400,-5051,7463,23532,10000,10000,284000,1162617,
-200,-1416,18696,-5063,7626,23342,10000,10000,284000,1162619,
64,-1208,18556,-4859,7882,23140,10000,10000,285000,1162621,
308,-1016,18844,-4493,8569,22152,10000,10000,287000,1162634,
256,-1200,18976,-4335,8730,22046,10000,10000,287000,1162636,
416,-1176,18904,-4357,8760,21836,10000,10000,288000,1162638,
868,-1096,18960,-3888,9647,21065,10000,11000,290000,1162651,
812,-1160,19176,-3880,9727,20884,10000,11000,290000,1162653,
952,-1024,19184,-3753,9885,20802,10000,11000,291000,1162656,
952,-740,19284,-3335,10752,20218,10000,12000,293000,1162668,
972,-628,19188,-3406,10859,20070,10000,12000,293000,1162671,
1068,-724,19272,-3255,11021,19957,10000,12000,293000,1162673,
1084,-800,19472,-3111,10985,19125,10000,13000,296000,1162685,
1024,-816,19760,-2918,11027,18983,10000,13000,296000,1162688,
1044,-820,19824,-3029,10883,18735,10000,13000,296000,1162690,
1588,-504,19944,-2653,10582,17690,10000,13000,298000,1162703,
1696,-432,20080,-2597,10484,17501,10000,13000,298000,1162705,
1568,-488,20004,-2500,10510,17375,10000,14000,299000,1162707,
2568,-232,20140,-2143,10578,16358,10000,14000,301000,1162720,
2732,-280,20112,-2183,10556,16158,10000,14000,301000,1162722,
2984,-204,20112,-1541,10761,15060,10000,15000,303000,1162735,
2972,-128,20204,-1620,10718,14879,10000,15000,303000,1162737,
3136,76,20052,-1383,10909,14761,10000,15000,303000,1162739,
3868,484,19712,-1228,11029,13753,11000,16000,305000,1162752,
3976,616,19656,-1073,11100,13569,11000,16000,305000,1162754,
3976,548,19664,-1121,11050,13267,11000,16000,305000,1162757,
3968,468,19564,-831,11222,11908,11000,17000,307000,1162769,
3836,524,19504,-706,11263,11690,11000,17000,307000,1162771,
3832,776,19436,-726,11282,11521,11000,17000,307000,1162774,
3660,1688,18980,-495,11220,10803,11000,18000,308000,1162786,
3696,1728,18932,-637,11092,10622,11000,18000,309000,1162789,
3432,1880,18796,-515,11086,10489,12000,18000,309000,1162791,
2708,1876,18208,-808,10244,9206,12000,18000,310000,1162803,
2436,1876,18044,-736,10084,9032,12000,18000,310000,1162806,
2400,1840,18016,-910,9750,8780,12000,19000,310000,1162808,
1860,2036,17984,-1194,8050,7842,12000,19000,311000,1162821,
1776,2108,18060,-1204,7735,7713,12000,19000,312000,1162823,
1912,2188,18216,-1275,7392,7526,12000,19000,312000,1162825,
1752,2424,18352,-1438,6019,6535,12000,19000,312000,1162838,
1900,2260,18200,-1609,5763,6353,12000,19000,313000,1162840,
1912,2168,18420,-1487,5722,6159,12000,20000,313000,1162842,
1996,2076,18236,-1512,5299,5058,12000,20000,313000,1162855,
2008,2288,18380,-1379,5491,4943,12000,20000,313000,1162857,
1976,2224,18444,-1455,5595,4837,12000,20000,314000,1162860,
1980,2800,18040,-1399,5596,3943,12000,20000,314000,1162872,
1848,2920,17944,-1418,5625,3765,12000,20000,314000,1162874,
1724,2900,17972,-1365,5647,3566,12000,20000,314000,1162877,
1020,2880,17916,-1239,5550,2596,12000,21000,315000,1162889,
792,2760,17720,-1311,5374,2432,12000,21000,315000,1162891,
332,2784,17764,-1235,5308,2304,12000,21000,315000,1162894,
-736,2836,17608,-1282,4374,1521,12000,21000,315000,1162906,
-864,2848,17504,-1176,4219,1401,12000,21000,315000,1162909,
-924,2808,17620,-1279,3910,1283,12000,21000,315000,1162911,
-1284,3216,18172,-1167,2402,725,12000,21000,315000,1162923,
-1452,3152,18208,-1257,2125,650,12000,21000,315000,1162926,
-1340,3144,18272,-1129,1974,533,12000,21000,315000,1162928,
-1744,3028,18212,-957,1217,-175,12000,21000,315000,1162941,
-1868,2836,18284,-828,1145,-343,12000,21000,315000,1162943,
-1928,2900,18216,-797,1120,-474,12000,21000,315000,1162945,
-2208,2700,18124,-365,1166,-984,12000,21000,315000,1162958,
-2080,2720,18068,-196,1218,-1030,12000,21000,315000,1162960,
-2164,2728,17952,-169,1164,-1110,12000,21000,315000,1162962,
-2660,3200,17708,386,1403,-1233,12000,21000,315000,1162975,
-2692,3348,17532,294,1446,-1222,12000,21000,315000,1162977,
-2800,3408,17452,528,1650,-1177,12000,21000,315000,1162980,
-3312,3820,17340,747,1806,-1146,12000,21000,315000,1162992,
-3352,3780,17148,876,1792,-1187,12000,21000,315000,1162994,
-3660,3848,17104,831,1702,-1177,12000,22000,315000,1162997,
-4204,4080,16856,965,1108,-1379,12000,22000,315000,1163009,
-4228,4168,16776,972,998,-1336,12000,22000,315000,1163012,
-4340,4152,16712,1006,827,-1382,12000,22000,315000,1163014,
-4488,4420,16432,1113,191,-1420,12000,22000,315000,1163026,
-4636,4436,16360,1046,17,-1431,12000,22000,315000,1163029,
-4548,4552,16656,1127,-35,-1391,12000,22000,315000,1163031,
-4700,5112,16356,1106,-606,-1317,12000,22000,314000,1163043,
-4616,5136,16360,1242,-622,-1290,12000,22000,314000,1163046,
-4540,5332,16388,1160,-747,-1294,12000,22000,314000,1163048,
-4304,5780,16300,1322,-957,-1345,12000,21000,314000,1163060,
-4092,5936,16496,1255,-991,-1370,12000,21000,314000,1163063,
-3992,6080,16420,1394,-962,-1421,12000,21000,314000,1163065,
-3832,6412,16088,1418,-863,-1572,12000,21000,314000,1163078,
-3952,6380,16060,1367,-889,-1653,12000,21000,314000,1163080,
-3840,6520,16092,1398,-819,-1654,12000,21000,314000,1163082,
-3820,6696,15696,1395,-523,-1687,13000,21000,314000,1163095,
-3848,6716,15568,1483,-370,-1650,13000,21000,314000,1163097,
-3920,7268,15692,1356,-201,-1504,13000,21000,314000,1163110,
-4340,7272,15492,1468,-112,-1445,13000,21000,314000,1163112,
-4280,7312,15500,1346,-137,-1437,13000,21000,314000,1163114,
-4468,7672,15248,1459,-258,-1295,13000,21000,313000,1163127,
-4460,7692,15312,1395,-343,-1260,13000,21000,313000,1163129,
-4648,7712,15084,1442,-446,-1288,13000,21000,313000,1163131,
-5116,7436,14872,1330,-1174,-1306,13000,21000,313000,1163144,
-5036,7544,14788,1247,-1408,-1420,13000,21000,313000,1163146,
-4960,7548,14996,1274,-1546,-1349,13000,21000,313000,1163149,
-5664,7120,14692,1225,-2586,-1495,13000,21000,313000,1163161,
-5648,7100,14608,1382,-2677,-1473,13000,21000,313000,1163163,
-5660,7200,14784,1268,-2919,-1505,13000,21000,313000,1163166,
-5500,7480,14588,1442,-3603,-1656,14000,20000,313000,1163178,
-5692,7456,14656,1382,-3698,-1648,14000,20000,313000,1163181,
-5704,7552,14524,1508,-3723,-1672,14000,20000,313000,1163183,
-5304,7468,14212,1464,-3795,-1813,14000,20000,312000,1163195,
-5180,7416,14124,1529,-3774,-1885,14000,20000,312000,1163198,
-5320,7208,13752,1606,-3539,-1686,14000,19000,312000,1163210,
-5424,7088,13652,1530,-3555,-1677,14000,19000,312000,1163213,
-5448,7080,13760,1614,-3396,-1572,14000,19000,312000,1163215,
-5300,7080,13316,1529,-2914,-1260,14000,19000,312000,1163228,
-5096,7132,13260,1694,-2725,-1198,14000,19000,312000,1163230,
-5132,7092,13308,1563,-2685,-1163,14000,19000,312000,1163232,
-5588,7048,13108,1736,-2088,-798,14000,19000,312000,1163245,
-5552,7228,13032,1620,-2006,-690,14000,19000,312000,1163247,
-5572,7192,12984,1717,-1911,-631,14000,19000,312000,1163249,
-5444,7244,12472,1563,-1777,-330,15000,19000,312000,1163262,
-5508,7204,12484,1541,-1827,-353,15000,19000,312000,1163264,
-5436,7276,12416,1497,-1812,-295,15000,19000,312000,1163267,
-5572,7112,12084,1331,-2037,-270,15000,18000,312000,1163279,
-5540,7100,12056,1435,-2034,-170,15000,18000,312000,1163281,
-5584,7028,12176,1266,-2146,-204,15000,18000,312000,1163284,
-5484,7048,12172,1232,-2255,55,15000,18000,312000,1163296,
-5272,6980,12192,1083,-2288,70,15000,18000,312000,1163299,
-5248,7176,12176,1172,-2197,115,15000,18000,312000,1163301,
-4888,7076,12040,953,-1989,254,15000,18000,312000,1163314,
-4904,7088,12008,1033,-1917,222,15000,18000,312000,1163316,
-4864,7140,12108,918,-1844,274,16000,18000,312000,1163318,
-4612,6928,12244,854,-1358,457,16000,18000,312000,1163331,
-4552,6960,12120,852,-1194,519,16000,18000,312000,1163333,
-4656,6948,12304,815,-1166,518,16000,18000,312000,1163335,
-4796,7028,12148,803,-645,777,16000,18000,312000,1163348,
-4632,7028,12040,622,-603,782,16000,18000,312000,1163350,
-4524,7104,12064,712,-526,812,16000,18000,312000,1163352,
-4172,7040,11820,373,-500,790,16000,18000,312000,1163365,
-4372,7076,11988,417,-504,730,16000,18000,312000,1163367,
-4316,6968,12020,305,-518,745,16000,18000,312000,1163370,
-4184,6672,12128,117,-525,692,16000,17000,312000,1163382,
-4160,6904,12228,196,-467,767,16000,17000,312000,1163384,
-4228,6748,12172,50,-511,731,16000,17000,312000,1163387,
-3992,6760,12388,16,-264,742,16000,17000,312000,1163399,
-3976,6812,12656,-127,-282,693,16000,17000,312000,1163401,
-3860,6844,12720,-13,-177,704,16000,17000,312000,1163404,
-3788,6956,13056,-284,10,690,17000,17000,312000,1163416,
-4044,6888,12980,-235,59,612,17000,17000,312000,1163419,
-3980,6888,13100,-330,61,691,17000,17000,312000,1163421,
-3892,6760,13096,-430,59,447,17000,17000,312000,1163434,
-3680,6664,13188,-386,99,451,17000,17000,312000,1163436,
