Ax,Ay,Az,Gx,Gy,Gz,Roll,Pitch,Yaw,Timestamp,Target
4456,720,16392,-536,235,80,-4000,-11000,168000,66382,
4352,804,16372,-521,135,99,-4000,-11000,168000,66395,
4496,816,16280,-580,118,118,-4000,-11000,168000,66397,
4516,872,16364,-561,150,108,-4000,-11000,168000,66400,
4376,916,16328,-513,85,124,-4000,-11000,168000,66402,
4588,928,16192,-570,47,138,-4000,-11000,168000,66415,
4556,816,16284,-563,4,171,-4000,-11000,168000,66417,
4680,880,16180,-585,14,173,-4000,-11000,168000,66419,
4568,772,16176,-558,49,183,-4000,-12000,168000,66432,
4712,708,16220,-559,42,189,-4000,-12000,168000,66434,
4700,688,16280,-537,54,171,-4000,-12000,168000,66437,
4524,732,16352,-556,5,170,-4000,-12000,168000,66439,
4596,788,16276,-528,-68,165,-4000,-12000,168000,66452,
4624,812,16468,-567,-92,182,-4000,-12000,168000,66454,
4644,780,16352,-575,-80,165,-4000,-12000,168000,66456,
4840,696,16428,-531,-179,66,-4000,-12000,168000,66469,
4768,636,16260,-527,-190,56,-4000,-12000,168000,66471,
4772,644,16276,-522,-175,60,-4000,-12000,168000,66474,
4792,648,16508,-558,-206,62,-4000,-12000,168000,66476,
4940,692,16188,-573,-125,0,-4000,-12000,168000,66489,
4924,656,16376,-634,-99,6,-4000,-12000,168000,66491,
4936,652,16436,-616,-42,-10,-4000,-12000,168000,66493,
4972,608,16428,-664,169,-51,-4000,-12000,168000,66506,
5008,584,16316,-659,243,-52,-4000,-12000,168000,66508,
5044,564,16396,-667,235,-83,-4000,-12000,168000,66511,
4980,604,16528,-694,272,-60,-4000,-12000,168000,66513,
4784,540,16416,-620,371,-143,-4000,-12000,168000,66526,
4704,520,16504,-641,355,-142,-4000,-12000,168000,66528,
4668,444,16408,-579,396,-153,-4000,-12000,168000,66530,
4456,556,16420,-551,358,-192,-4000,-12000,168000,66543,
4524,624,16552,-525,295,-202,-4000,-12000,168000,66545,
4528,572,16564,-530,278,-178,-4000,-12000,168000,66548,
4496,684,16492,-479,175,-217,-4000,-12000,168000,66560,
4468,724,16516,-497,198,-184,-4000,-12000,168000,66563,
4520,652,16436,-498,216,-219,-4000,-12000,168000,66565,
4524,812,16456,-454,274,-214,-4000,-12000,168000,66578,
4600,764,16424,-411,294,-213,-4000,-12000,168000,66580,
4448,716,16456,-429,262,-217,-4000,-12000,168000,66582,
4428,872,16296,-379,315,-244,-4000,-12000,167000,66595,
4292,692,16304,-390,324,-184,-4000,-12000,167000,66597,
4376,772,16312,-351,322,-112,-4000,-12000,167000,66610,
4204,920,16340,-381,299,-147,-4000,-12000,167000,66612,
4224,836,16320,-391,296,-127,-4000,-12000,167000,66615,
4200,948,16212,-454,200,-46,-4000,-12000,167000,66627,
4276,876,16228,-410,237,-62,-4000,-12000,167000,66630,
4308,804,16336,-381,189,-34,-4000,-12000,167000,66632,
4272,860,16168,-428,199,-53,-4000,-12000,167000,66634,
4292,964,16220,-484,124,-12,-4000,-12000,167000,66647,
4300,816,16216,-524,132,-35,-4000,-12000,167000,66649,
4372,896,16192,-513,136,-17,-4000,-12000,167000,66652,
4384,984,16260,-620,103,61,-4000,-12000,167000,66664,
4256,872,16252,-598,122,11,-4000,-12000,167000,66667,
4280,888,16200,-614,44,57,-4000,-12000,167000,66669,
4356,816,16180,-635,78,90,-4000,-12000,167000,66671,
4384,864,16396,-708,62,119,-4000,-12000,167000,66684,
4392,924,16328,-738,126,87,-4000,-12000,167000,66686,
4404,924,16316,-762,59,119,-4000,-12000,167000,66689,
4376,896,16420,-792,117,114,-4000,-12000,167000,66701,
4464,944,16300,-745,107,100,-4000,-12000,167000,66704,
4496,920,16372,-802,83,108,-4000,-12000,167000,66706,
4468,848,16412,-767,143,99,-4000,-12000,167000,66708,
4564,764,16320,-798,158,117,-4000,-12000,167000,66721,
4584,760,16228,-761,212,82,-4000,-12000,167000,66723,
4528,692,16260,-784,165,115,-4000,-12000,167000,66726,
4592,580,16404,-680,310,127,-4000,-12000,167000,66738,
4632,532,16436,-740,304,180,-4000,-12000,167000,66741,
4500,620,16428,-713,347,147,-4000,-12000,167000,66743,
4584,496,16500,-644,340,147,-4000,-12000,167000,66745,
4612,464,16564,-619,380,147,-4000,-12000,167000,66758,
4504,524,16460,-600,318,158,-4000,-12000,167000,66760,
4564,392,16508,-616,293,154,-4000,-12000,167000,66763,
4604,336,16404,-560,160,126,-4000,-12000,167000,66775,
4572,368,16436,-551,148,142,-4000,-12000,167000,66778,
4588,276,16228,-590,115,93,-4000,-12000,167000,66780,
4676,488,16376,-541,15,103,-4000,-12000,167000,66783,
4652,396,16344,-541,-6,15,-4000,-12000,167000,66795,
4672,484,16356,-495,-40,67,-4000,-12000,167000,66797,
4732,436,16472,-570,-39,37,-4000,-12000,167000,66800,
4680,580,16324,-546,-28,9,-4000,-12000,167000,66812,
4764,528,16328,-569,24,20,-4000,-12000,167000,66815,
4736,564,16372,-540,20,0,-4000,-12000,167000,66817,
4760,484,16316,-548,4,24,-4000,-12000,167000,66819,
4776,632,16392,-577,79,-41,-4000,-12000,167000,66832,
4816,480,16440,-635,58,-24,-4000,-12000,167000,66834,
4884,468,16320,-614,120,-49,-4000,-12000,167000,66837,
4812,340,16452,-605,185,-64,-4000,-12000,167000,66849,
4760,460,16268,-621,249,-118,-4000,-12000,167000,66852,
4724,440,16304,-535,239,-106,-4000,-12000,167000,66854,
4796,448,16288,-563,359,-132,-4000,-12000,167000,66867,
4628,520,16312,-544,316,-116,-4000,-12000,167000,66869,
4604,504,16428,-601,337,-96,-4000,-12000,167000,66872,
4656,452,16288,-561,387,-110,-4000,-12000,167000,66874,
4456,464,16336,-572,286,-91,-4000,-12000,167000,66887,
4476,552,16464,-546,326,-126,-4000,-12000,167000,66889,
4436,544,16436,-536,268,-71,-4000,-12000,167000,66892,
4556,536,16192,-493,246,-61,-4000,-12000,167000,66904,
4512,552,16300,-525,179,-32,-4000,-12000,167000,66907,
4540,516,16332,-523,219,-55,-4000,-12000,167000,66909,
4556,548,16400,-505,182,-60,-4000,-12000,167000,66911,
4560,484,16492,-504,201,-25,-4000,-12000,167000,66924,
4500,520,16468,-478,167,-16,-4000,-12000,167000,66926,
4420,552,16416,-527,145,25,-4000,-12000,167000,66929,
4392,716,16416,-473,140,32,-4000,-12000,167000,66941,
4476,588,16388,-534,144,20,-4000,-12000,167000,66944,
4448,508,16392,-515,185,7,-4000,-12000,167000,66946,
4356,648,16480,-480,119,16,-4000,-12000,167000,66948,
4516,660,16440,-526,86,22,-4000,-12000,167000,66965,
4616,744,16444,-529,118,-8,-4000,-12000,167000,66967,
4536,740,16480,-532,102,8,-4000,-12000,167000,66969,
4588,668,16436,-549,198,1,-4000,-12000,167000,66982,
4484,708,16540,-497,202,27,-4000,-12000,167000,66984,
4648,708,16532,-527,219,17,-4000,-12000,167000,66987,
4544,636,16416,-504,279,37,-4000,-12000,167000,66989,
4508,672,16520,-494,344,95,-4000,-12000,167000,67002,
4516,684,16556,-487,382,55,-4000,-12000,167000,67004,
4524,712,16456,-456,299,76,-4000,-12000,167000,67006,
4620,624,16652,-430,336,-1,-4000,-12000,167000,67019,
4448,728,16652,-472,299,19,-4000,-12000,167000,67021,
4436,620,16452,-439,319,7,-4000,-12000,167000,67024,
4576,632,16612,-413,306,-16,-4000,-12000,167000,67026,
4564,708,16596,-429,285,-2,-4000,-12000,167000,67039,
4608,788,16596,-387,282,-15,-4000,-12000,167000,67041,
4636,736,16540,-406,271,45,-4000,-12000,167000,67044,
4600,612,16464,-375,281,-6,-4000,-12000,167000,67056,
4540,712,16556,-423,253,32,-4000,-12000,167000,67059,
4636,664,16572,-433,264,-2,-4000,-12000,167000,67061,
4628,592,16572,-364,236,-42,-4000,-12000,167000,67063,
4544,556,16488,-435,220,-55,-4000,-12000,167000,67076,
4676,600,16456,-333,207,-57,-4000,-12000,167000,67078,
4680,552,16356,-414,179,-41,-4000,-12000,167000,67081,
4556,500,16504,-289,221,-54,-4000,-12000,167000,67093,
4600,504,16460,-320,262,-69,-4000,-12000,167000,67096,
4596,420,16524,-317,280,-110,-4000,-12000,167000,67098,
4688,564,16348,-260,252,-44,-4000,-12000,167000,67100,
4684,500,16592,-188,369,-73,-4000,-12000,167000,67113,
4672,512,16480,-205,315,-85,-4000,-12000,167000,67115,
4724,472,16352,-231,356,-68,-4000,-12000,167000,67118,
4676,592,16324,-173,383,-111,-4000,-12000,167000,67130,
4704,500,16408,-181,409,-134,-4000,-12000,167000,67133,
4572,616,16452,-155,426,-140,-4000,-12000,167000,67135,
4592,584,16500,-174,398,-122,-4000,-12000,167000,67148,
4544,672,16312,-149,387,-179,-4000,-12000,167000,67150,
4668,652,16244,-232,354,-175,-4000,-12000,167000,67152,
4528,520,16488,-221,379,-164,-4000,-12000,167000,67165,
4512,612,16476,-233,375,-169,-4000,-12000,167000,67167,
4680,540,16396,-238,444,-225,-4000,-12000,167000,67170,
4604,640,16364,-241,360,-187,-4000,-12000,167000,67182,
4540,540,16320,-252,387,-196,-4000,-12000,167000,67185,
4468,584,16312,-235,348,-191,-4000,-12000,167000,67187,
4516,548,16340,-257,340,-190,-4000,-12000,167000,67200,
4456,636,16308,-255,284,-211,-4000,-12000,167000,67202,
4472,560,16276,-266,298,-168,-4000,-12000,167000,67204,
4476,628,16404,-242,252,-146,-4000,-12000,167000,67217,
4484,620,16284,-298,237,-141,-4000,-12000,167000,67219,
4480,424,16340,-222,292,-130,-4000,-12000,167000,67222,
4428,584,16272,-280,225,-140,-4000,-12000,167000,67234,
4588,696,16204,-219,229,-135,-4000,-12000,167000,67237,
4608,696,16204,-231,224,-129,-4000,-12000,167000,67239,
4480,696,16208,-181,256,-119,-4000,-12000,167000,67252,
4564,692,16352,-203,243,-99,-4000,-12000,167000,67254,
4464,680,16324,-188,293,-138,-4000,-12000,167000,67256,
4608,660,16364,-199,290,-140,-4000,-12000,167000,67269,
4604,796,16392,-179,284,-192,-4000,-12000,167000,67271,
4468,672,16344,-132,244,-180,-4000,-12000,167000,67273,
4624,692,16248,-185,303,-276,-4000,-12000,167000,67286,
4636,672,16136,-168,265,-261,-4000,-12000,167000,67288,
4472,700,16204,-189,260,-280,-4000,-12000,167000,67291,
4516,772,16216,-209,261,-320,-4000,-12000,167000,67303,
4560,856,16188,-203,235,-328,-4000,-12000,167000,67306,
4568,872,16132,-172,262,-332,-4000,-12000,167000,67308,
4620,848,16228,-292,338,-309,-4000,-12000,167000,67321,
4664,932,16064,-277,355,-311,-4000,-12000,167000,67323,
4596,932,16104,-305,354,-287,-4000,-12000,167000,67325,
4532,808,16156,-325,525,-263,-4000,-12000,167000,67338,
4592,884,16244,-384,541,-234,-4000,-12000,167000,67340,
4544,1004,16076,-410,612,-261,-4000,-12000,167000,67342,
4500,920,16312,-432,582,-266,-4000,-12000,166000,67355,
4568,844,16252,-417,593,-301,-4000,-12000,166000,67357,
4516,988,16284,-458,564,-269,-4000,-12000,166000,67360,
4388,1112,16216,-496,492,-302,-4000,-12000,166000,67372,
4264,976,16392,-554,418,-307,-4000,-12000,166000,67375,
4460,1040,16240,-596,441,-313,-4000,-12000,166000,67377,
4328,904,16208,-646,334,-237,-4000,-11000,166000,67390,
4372,856,16324,-664,332,-246,-4000,-11000,166000,67392,
4304,968,16184,-629,291,-252,-4000,-11000,166000,67394,
4484,804,16336,-667,250,-227,-4000,-11000,166000,67407,
4488,788,16336,-632,211,-225,-4000,-11000,166000,67409,
4416,936,16400,-670,233,-191,-4000,-11000,166000,67412,
4532,856,16392,-608,268,-164,-4000,-11000,166000,67424,
4588,832,16332,-656,278,-142,-4000,-11000,166000,67427,
4504,780,16328,-617,374,-193,-4000,-11000,166000,67429,
4512,672,16320,-636,456,-228,-4000,-11000,166000,67441,
4552,708,16440,-595,463,-236,-4000,-11000,166000,67444,
4488,764,16416,-611,460,-225,-4000,-11000,166000,67446,
4416,616,16380,-536,502,-238,-4000,-11000,166000,67459,
4408,548,16280,-580,482,-196,-4000,-11000,166000,67461,
4240,636,16516,-567,490,-252,-4000,-11000,166000,67463,
4456,592,16336,-536,379,-198,-4000,-11000,166000,67476,
4384,504,16424,-540,408,-196,-4000,-11000,166000,67478,
4384,564,16524,-479,332,-193,-4000,-11000,166000,67481,
4396,636,16620,-468,259,-209,-4000,-11000,166000,67493,
4508,568,16548,-453,196,-206,-4000,-11000,166000,67496,
4440,620,16592,-476,176,-158,-4000,-11000,166000,67498,
4552,692,16456,-470,129,-213,-4000,-11000,166000,67511,
4480,708,16480,-480,167,-229,-4000,-11000,166000,67513,
4600,664,16512,-467,195,-269,-4000,-11000,166000,67515,
4556,540,16688,-428,288,-334,-4000,-11000,166000,67528,
4524,532,16776,-380,319,-389,-4000,-11000,166000,67530,
4604,444,16784,-367,311,-348,-4000,-11000,166000,67533,
4784,280,16972,-234,441,-425,-4000,-11000,166000,67545,
4812,280,16972,-186,436,-404,-4000,-11000,166000,67547,
4692,240,17072,-193,461,-445,-4000,-11000,166000,67550,
4636,188,17024,7,442,-583,-4000,-11000,166000,67562,
4692,220,17004,53,488,-597,-4000,-11000,166000,67565,
4664,204,16996,145,428,-645,-4000,-11000,166000,67567,
4676,176,17060,135,422,-632,-4000,-11000,166000,67570,
4612,320,17172,371,290,-807,-4000,-11000,166000,67582,
4516,260,17220,405,246,-825,-4000,-11000,166000,67584,
4508,388,16972,417,292,-866,-4000,-11000,166000,67587,
4488,536,17068,611,78,-965,-4000,-11000,166000,67599,
4564,532,17060,642,7,-999,-4000,-11000,166000,67602,
4460,544,16868,663,-24,-988,-4000,-11000,166000,67604,
4504,648,16848,694,-63,-993,-4000,-11000,166000,67607,
4416,916,16732,826,-168,-1047,-3000,-11000,165000,67619,
4452,904,16712,870,-163,-1102,-3000,-11000,165000,67622,
4484,980,16752,928,-183,-1146,-3000,-11000,165000,67624,
4472,1092,16468,965,-135,-1238,-3000,-11000,165000,67636,
4580,1080,16324,990,-153,-1265,-3000,-12000,165000,67639,
4524,1132,16300,975,-126,-1275,-3000,-12000,165000,67641,
4408,1424,16092,993,99,-1295,-3000,-12000,165000,67654,
4336,1280,16240,961,165,-1283,-3000,-12000,165000,67656,
4236,1352,16008,970,218,-1307,-3000,-12000,165000,67659,
3960,1692,15580,897,344,-1209,-3000,-12000,165000,67671,
3952,1696,15444,876,363,-1264,-3000,-12000,165000,67673,
3760,1696,15488,911,326,-1199,-3000,-12000,165000,67676,
3444,2236,15172,660,338,-1062,-2000,-11000,165000,67688,
3376,2232,15104,603,254,-1026,-2000,-11000,165000,67691,
3372,2248,14996,523,269,-989,-2000,-11000,165000,67693,
3172,2512,14740,150,133,-888,-2000,-11000,165000,67706,
3120,2556,14604,66,113,-848,-2000,-11000,165000,67708,
3040,2580,14756,35,91,-851,-2000,-11000,165000,67711,
2948,2564,14548,-55,25,-813,-2000,-11000,164000,67713,
2868,2504,14436,-380,-56,-723,-2000,-11000,164000,67725,
2868,2540,14464,-506,-83,-681,-2000,-11000,164000,67728,
2864,2660,14296,-562,-41,-691,-2000,-11000,164000,67730,
2672,2580,14064,-935,-108,-441,-2000,-11000,164000,67743,
2588,2680,14160,-1016,-47,-444,-2000,-11000,164000,67745,
2568,2592,14188,-1072,-124,-362,-2000,-11000,164000,67748,
2744,3028,13916,-1603,-83,119,-2000,-11000,164000,67760,
2716,3088,13964,-1726,-174,256,-2000,-11000,164000,67763,
2784,3032,13976,-1878,-210,362,-2000,-11000,164000,67765,
3148,3388,13420,-2740,-307,1029,-2000,-12000,164000,67778,
3164,3384,13400,-2933,-285,1125,-3000,-12000,164000,67780,
3192,3388,13360,-3111,-203,1296,-3000,-12000,164000,67782,
3176,3588,12924,-4055,137,2071,-3000,-12000,165000,67795,
2960,3544,12816,-4225,217,2161,-3000,-12000,165000,67797,
2932,3600,12780,-4403,249,2324,-3000,-12000,165000,67799,
2560,4004,12200,-5605,447,2780,-3000,-11000,165000,67812,
2600,4132,12136,-5935,423,2907,-4000,-11000,165000,67814,
2428,4224,12064,-6210,466,2986,-4000,-11000,165000,67817,
1836,4636,11448,-7541,669,3457,-4000,-11000,165000,67829,
2016,4828,11760,-7763,602,3421,-4000,-11000,165000,67832,
1200,4952,11808,-7842,770,3440,-5000,-11000,165000,67834,
1824,4608,11708,-9356,1190,4209,-5000,-11000,166000,67847,
1740,4600,11836,-9577,1155,4382,-6000,-11000,166000,67849,
1928,3924,12232,-10683,1311,5131,-6000,-11000,166000,67862,
1932,3736,12128,-10838,1305,5264,-7000,-11000,166000,67864,
1856,3628,12252,-11042,1309,5379,-7000,-11000,166000,67867,
1464,2788,12168,-11720,709,5970,-8000,-11000,167000,67879,
1376,2692,11996,-11917,532,6048,-8000,-11000,167000,67882,
1152,2568,12028,-11988,299,6158,-8000,-11000,167000,67884,
520,2112,11540,-12833,-1079,6871,-10000,-11000,168000,67897,
404,2260,11700,-12953,-1443,6964,-10000,-11000,168000,67899,
504,2080,11632,-13105,-1801,7112,-10000,-11000,168000,67901,
584,2060,10964,-13850,-3594,7640,-12000,-11000,169000,67914,
756,1852,10812,-14079,-3875,7873,-12000,-11000,169000,67916,
600,1580,10912,-14093,-4260,8051,-12000,-11000,169000,67919,
1360,1312,10832,-15011,-4711,8847,-14000,-11000,170000,67931,
1356,1080,11136,-14991,-4835,8978,-14000,-11000,170000,67934,
1532,816,11072,-15213,-4747,9045,-14000,-11000,171000,67936,
2316,-340,11172,-15876,-4693,9577,-16000,-11000,172000,67949,
2736,-312,11140,-16025,-4572,9673,-16000,-11000,172000,67951,
2492,-904,11124,-16258,-4464,9828,-16000,-11000,172000,67953,
2984,-2200,11372,-16991,-4338,10524,-18000,-11000,173000,67966,
3388,-2788,11104,-17188,-4234,10690,-19000,-11000,173000,67968,
3380,-2952,11652,-17218,-4361,10880,-19000,-11000,174000,67971,
3768,-4852,11596,-18037,-4028,11549,-21000,-11000,175000,67984,
3916,-5320,11468,-18109,-3992,11671,-21000,-11000,175000,67986,
3636,-5564,11648,-18258,-3951,11833,-22000,-11000,175000,67988,
4632,-7420,12912,-18548,-3703,11818,-24000,-11000,176000,68001,
4412,-7748,13100,-18655,-3761,11840,-24000,-11000,177000,68004,
4876,-8672,13564,-19001,-3669,11586,-26000,-11000,178000,68016,
4568,-8940,13956,-19072,-3667,11660,-27000,-11000,178000,68019,
5020,-9108,14016,-18996,-3606,11569,-27000,-11000,178000,68021,
5432,-9556,13920,-19478,-2873,11556,-29000,-11000,179000,68034,
5268,-9676,13992,-19516,-2884,11540,-30000,-11000,180000,68036,
5616,-9804,14168,-19671,-2762,11464,-30000,-11000,180000,68038,
5384,-10696,14016,-20161,-2291,11203,-32000,-10000,181000,68051,
5280,-10892,13848,-20193,-2154,11232,-33000,-10000,181000,68054,
5716,-11972,14460,-20180,-1360,11307,-35000,-10000,182000,68066,
5652,-12196,14468,-20142,-1152,11405,-35000,-10000,182000,68069,
5720,-12688,14636,-19971,-1278,11392,-36000,-10000,183000,68071,
5576,-13396,14080,-19735,-372,11446,-38000,-9000,183000,68084,
5900,-13188,14040,-19562,-143,11290,-38000,-9000,184000,68086,
5452,-13172,13528,-19677,186,11340,-39000,-9000,184000,68089,
4864,-13500,13332,-19297,915,10970,-41000,-8000,185000,68101,
4624,-13660,13528,-19167,892,10992,-41000,-8000,185000,68104,
4544,-13788,13332,-19044,913,10956,-41000,-8000,185000,68106,
4156,-15052,13884,-18598,773,10720,-43000,-7000,186000,68119,
4064,-15468,13780,-18432,554,10561,-44000,-7000,186000,68121,
4204,-15568,13656,-18355,273,10407,-44000,-7000,186000,68124,
4140,-16376,13104,-17513,-602,9726,-46000,-6000,187000,68136,
3880,-16524,13032,-17329,-766,9664,-46000,-6000,187000,68139,
4020,-16732,13384,-17093,-961,9490,-47000,-6000,187000,68141,
4712,-17188,12816,-15717,-1376,8811,-48000,-5000,187000,68154,
4632,-17108,13052,-15552,-1427,8550,-49000,-5000,188000,68156,
4684,-17140,12992,-14088,-1715,7315,-50000,-5000,188000,68169,
4556,-17176,12960,-13652,-1909,7089,-50000,-5000,188000,68171,
4484,-17116,12972,-13361,-1947,6883,-51000,-5000,188000,68174,
4352,-16864,12768,-11620,-2164,5788,-52000,-5000,189000,68186,
4236,-16684,12784,-11317,-2185,5577,-52000,-4000,189000,68189,
4216,-16608,12796,-11094,-2152,5365,-52000,-4000,189000,68191,
3684,-16012,12988,-9826,-2218,4688,-53000,-4000,190000,68204,
3668,-15912,12968,-9539,-2208,4607,-53000,-4000,190000,68206,
3756,-15920,12964,-9288,-2238,4466,-53000,-4000,190000,68209,
3740,-16036,13504,-7745,-2442,3262,-54000,-4000,190000,68225,
3808,-16184,13308,-7523,-2472,3101,-55000,-4000,190000,68227,
3668,-16104,13408,-7285,-2567,2924,-55000,-4000,190000,68230,
3760,-15884,13064,-6344,-2568,2259,-55000,-4000,191000,68243,
3940,-15988,12944,-6179,-2559,2171,-55000,-4000,191000,68245,
3928,-15816,12856,-6028,-2492,2080,-56000,-4000,191000,68247,
4492,-15768,12396,-5438,-2094,1619,-56000,-4000,191000,68260,
4524,-15688,12292,-5337,-1948,1540,-56000,-4000,191000,68263,
4696,-15760,12324,-5199,-1799,1471,-56000,-4000,191000,68265,
5252,-15600,12512,-4623,-528,1044,-57000,-4000,191000,68278,
5476,-15476,12672,-4471,-287,985,-57000,-4000,191000,68280,
5476,-15544,12532,-4348,-23,915,-57000,-4000,191000,68282,
5380,-15488,12504,-3586,1492,543,-57000,-4000,191000,68295,
5372,-15476,12584,-3502,1751,456,-57000,-4000,191000,68298,
5156,-15420,12604,-3310,2008,343,-57000,-4000,191000,68300,
4332,-15136,12744,-2559,2319,-141,-57000,-4000,191000,68313,
4144,-15076,12708,-2442,2237,-226,-57000,-4000,191000,68315,
4120,-15000,12768,-2336,2083,-260,-58000,-4000,191000,68318,
3560,-15272,12848,-1634,1136,-710,-58000,-4000,191000,68330,
3416,-15216,12836,-1572,938,-769,-58000,-4000,191000,68333,
3476,-15076,12856,-1430,735,-860,-58000,-4000,191000,68335,
3664,-15328,12792,-690,-340,-1167,-58000,-4000,191000,68348,
3724,-15176,12684,-532,-467,-1275,-58000,-4000,191000,68350,
3872,-15256,12748,-373,-647,-1315,-58000,-4000,191000,68352,
4372,-15276,12744,367,-950,-1775,-58000,-4000,191000,68365,
4308,-15272,12872,507,-958,-1830,-58000,-5000,191000,68368,
4536,-15268,12880,624,-881,-1896,-58000,-5000,191000,68370,
4384,-15232,13072,1356,-380,-2202,-57000,-5000,191000,68383,
4308,-15392,13036,1434,-220,-2234,-57000,-5000,191000,68385,
4352,-15384,13100,1561,-92,-2325,-57000,-5000,190000,68387,
4352,-15652,13496,2226,430,-2675,-57000,-5000,190000,68400,
4332,-15740,13692,2411,506,-2710,-57000,-5000,190000,68403,
4224,-15744,13564,2524,585,-2727,-57000,-5000,190000,68405,
4048,-15372,13464,3247,1016,-3065,-56000,-5000,190000,68418,
3920,-15248,13532,3305,1143,-3170,-56000,-5000,190000,68420,
3804,-15196,13664,3489,1170,-3253,-56000,-6000,190000,68423,
3324,-15080,14196,4108,1284,-3188,-56000,-6000,190000,68435,
3360,-14996,14272,4270,1285,-3190,-56000,-6000,190000,68438,
3368,-15020,14368,4345,1219,-3223,-56000,-6000,189000,68440,
3360,-14864,14804,5190,1053,-3453,-55000,-6000,189000,68453,
3492,-14804,15216,5331,1025,-3440,-55000,-6000,189000,68455,
3420,-14728,15052,5548,1141,-3498,-55000,-6000,189000,68458,
3888,-14996,15712,6413,1141,-3580,-54000,-6000,189000,68470,
3844,-15128,15640,6664,1236,-3697,-54000,-6000,189000,68473,
3964,-15040,15668,6817,1162,-3704,-54000,-6000,189000,68475,
3904,-15456,16008,7897,1202,-4044,-53000,-7000,188000,68488,
3876,-15540,15880,8115,1149,-4123,-53000,-7000,188000,68490,
3900,-15412,15872,8285,1068,-4193,-53000,-7000,188000,68493,
4000,-15140,15484,9217,866,-4844,-52000,-7000,188000,68505,
3992,-14868,15264,9340,886,-4947,-51000,-7000,188000,68508,
3968,-14964,15212,9567,921,-5065,-51000,-7000,188000,68510,
3692,-15204,15672,10516,1157,-5244,-50000,-8000,187000,68523,
3716,-15096,15596,10742,1188,-5232,-50000,-8000,187000,68525,
3792,-15312,15860,10939,1238,-5264,-50000,-8000,187000,68528,
4048,-15720,16416,12204,1290,-5747,-48000,-8000,187000,68540,
4104,-15840,16768,12488,1296,-5874,-48000,-8000,187000,68543,
4124,-15732,16796,12875,1221,-6036,-48000,-8000,186000,68545,
4584,-15972,17628,14416,1131,-6576,-46000,-9000,186000,68558,
4660,-16224,17692,14931,1098,-6684,-46000,-9000,186000,68560,
5668,-15872,18740,17123,1085,-7913,-44000,-9000,185000,68573,
5708,-15784,18640,17396,963,-8197,-44000,-9000,185000,68575,
5856,-15456,18616,17680,881,-8495,-43000,-9000,185000,68578,
5888,-14136,17920,18430,668,-9489,-42000,-10000,184000,68590,
5972,-13992,17776,18608,843,-9650,-41000,-10000,184000,68593,
5664,-13648,17712,18861,1127,-9711,-41000,-10000,184000,68595,
4972,-12996,17340,19633,2460,-9427,-39000,-11000,183000,68608,
5100,-13000,17144,19894,2657,-9303,-38000,-11000,183000,68610,
4980,-12736,17188,19925,2882,-9190,-38000,-11000,183000,68613,
5448,-12716,17600,20793,3182,-9135,-36000,-11000,182000,68625,
5560,-12588,17468,21014,3184,-9190,-35000,-11000,182000,68628,
5604,-12736,17540,21245,3148,-9297,-35000,-11000,181000,68630,
6076,-12692,17528,22183,2966,-9659,-32000,-12000,180000,68643,
5988,-12476,17272,22407,2983,-9794,-32000,-12000,180000,68645,
6164,-11152,18348,23278,3290,-10125,-30000,-12000,179000,68658,
6260,-10720,18360,23428,3341,-10124,-29000,-12000,179000,68660,
6344,-10340,18412,23488,3445,-10072,-29000,-12000,179000,68663,
6464,-8400,18008,23634,3795,-10278,-26000,-12000,178000,68675,
6484,-8148,17836,23595,3927,-10345,-26000,-12000,178000,68678,
6232,-7732,17868,23624,4116,-10505,-25000,-12000,177000,68680,
5704,-5924,16780,23060,4738,-10549,-23000,-12000,176000,68693,
5564,-5552,16452,23040,4968,-10515,-22000,-12000,176000,68695,
5308,-5228,16404,22849,5151,-10312,-22000,-12000,176000,68698,
4376,-4240,16156,22350,6201,-9593,-19000,-12000,175000,68710,
4268,-3748,15948,22275,6177,-9451,-19000,-12000,174000,68712,
3804,-2604,15848,21673,6326,-8870,-16000,-12000,173000,68725,
3916,-2272,15952,21392,6182,-8757,-16000,-12000,173000,68728,
3624,-2100,15672,21251,6182,-8668,-15000,-12000,173000,68730,
3888,-1808,15696,20395,5857,-8138,-13000,-11000,172000,68743,
3748,-1760,15688,20303,6007,-8053,-13000,-11000,172000,68745,
3924,-1412,15716,20144,6026,-7826,-12000,-11000,172000,68747,
3820,-988,15732,19513,6324,-7179,-10000,-11000,171000,68760,
4076,-980,15504,19345,6402,-6961,-10000,-11000,171000,68762,
3964,-988,15560,19194,6492,-6766,-10000,-10000,171000,68765,
3888,-472,14216,18272,6766,-6087,-8000,-10000,170000,68777,
3976,-304,14196,18114,6880,-6009,-7000,-10000,170000,68780,
3836,-108,13808,17965,6920,-5924,-7000,-10000,170000,68782,
3172,904,12428,16584,7189,-5390,-5000,-9000,169000,68795,
2948,1080,12352,16370,7165,-5269,-5000,-9000,169000,68797,
2888,1124,12376,16022,7148,-5112,-4000,-9000,169000,68800,
2436,1496,11852,14802,7039,-4267,-3000,-8000,168000,68812,
2384,1348,11800,14448,7010,-4095,-3000,-8000,168000,68815,
2212,1232,11924,14393,6993,-4004,-2000,-8000,168000,68817,
2536,792,12004,13323,6393,-3507,-1000,-7000,168000,68830,
2656,836,12164,13254,6304,-3420,-1000,-7000,168000,68832,
2680,616,12072,12968,6140,-3243,0,-7000,168000,68834,
3068,544,11896,12167,5834,-2873,0,-7000,167000,68847,
3396,468,11848,11987,5811,-2856,0,-7000,167000,68849,
3524,516,11884,11842,5784,-2939,0,-6000,167000,68852,
3388,568,11940,11777,5709,-2959,0,-6000,167000,68854,
3696,860,11640,10870,5532,-2660,2000,-6000,167000,68867,
3624,1004,11440,10653,5496,-2564,2000,-6000,167000,68869,
3644,1132,11272,10369,5488,-2394,2000,-6000,167000,68871,
3960,1256,10940,9582,5696,-2030,3000,-5000,167000,68884,
3900,1268,10996,9375,5724,-1964,3000,-5000,167000,68886,
3788,1316,10884,9243,5826,-1931,3000,-5000,167000,68889,
3056,1764,10716,8489,5861,-1767,4000,-5000,167000,68901,
2916,1908,10660,8372,5863,-1779,4000,-4000,167000,68904,
2732,2084,10552,8194,5777,-1693,4000,-4000,167000,68906,
2060,2588,10520,7422,5389,-1241,5000,-4000,166000,68919,
2140,2580,10528,7250,5225,-1131,5000,-4000,166000,68921,
2216,2620,10664,7171,5200,-1133,6000,-4000,166000,68923,
2300,2700,10560,6263,4187,-912,6000,-3000,166000,68936,
2308,2620,10584,6178,4012,-923,6000,-3000,166000,68939,
2312,2752,10576,5964,3787,-908,6000,-3000,166000,68941,
2652,2740,10832,5159,2934,-930,7000,-3000,166000,68957,
2680,2868,11000,5061,2924,-965,7000,-3000,166000,68960,
2600,2928,10856,4918,2790,-996,7000,-3000,166000,68962,
2548,3396,11136,4262,2613,-1013,8000,-3000,166000,68975,
2536,3432,11168,4151,2497,-955,8000,-3000,166000,68977,
2400,3488,11232,4047,2514,-903,8000,-3000,166000,68979,
2296,3684,11292,3465,2421,-700,8000,-2000,166000,68992,
2236,3736,11200,3334,2357,-728,8000,-2000,166000,68994,
2316,3784,11268,3262,2361,-727,9000,-2000,166000,68997,
2296,4036,11252,2541,2193,-707,9000,-2000,166000,69009,
2320,4108,11212,2462,2148,-714,9000,-2000,166000,69012,
2244,4152,11140,2312,2064,-709,9000,-2000,166000,69014,
