Ax,Ay,Az,Gx,Gy,Gz,Roll,Pitch,Yaw,Timestamp,Target
-6652,-3208,13620,-1170,564,86,-22000,24000,341000,346788,
-6968,-4212,12976,68,-161,179,-26000,26000,343000,344839,
-6856,-4132,13128,75,-229,144,-26000,26000,343000,344842,
-6876,-4152,12948,83,-157,173,-26000,26000,343000,344844,
-6828,-4164,12876,82,-130,145,-26000,26000,343000,344857,
-6832,-4180,12696,30,-141,142,-26000,26000,343000,344859,
-6912,-4064,12700,40,-81,147,-26000,26000,343000,344861,
-6704,-4056,12744,-15,-158,66,-26000,26000,343000,344874,
-6740,-4096,12656,-101,-184,43,-26000,26000,343000,344876,
-6716,-4040,12616,-53,-159,64,-26000,26000,343000,344878,
-6740,-3828,12556,-199,-332,-27,-26000,26000,343000,344891,
0,0,0,0,0,0,-26000,26000,343000,344891,
-6580,-3772,12400,-221,-349,-90,-26000,26000,343000,344896,
-633,-5292,13096,171,78,-687,-32000,28000,338000,349134,
-7312,-5348,13056,167,-80,-717,-32000,28000,338000,349119,
-7280,-5392,12952,104,21,-703,-32000,28000,338000,349132,
-7192,-5892,12240,-816,624,-461,-32000,28000,338000,348892,
-512416,7,-203,-589,-32000,28000,0,0,0,348892,
-5648,-3088,12228,-404,977,-680,-26000,26000,343000,344948,
-5616,-2960,12132,-483,1427,-967,-26000,26000,343000,344960,
-5548,-2984,12096,-457,1,28000,0,0,0,344960,
-5756,-2956,11904,-523,1928,-1354,-26000,27000,343000,344977,
-5752,-2748,11828,-585,1866,-1440,-26000,27000,343000,344980,
-5708,-2568,11924,-812,1616,-1934,-26000,27000,342000,345000,
-5620,-2892,11428,-1064,1635,-2293,-26000,27000,342000,345012,
-5668,-2956,11512,-1103,1582,-2329,-26000,27000,342000,345015,
-5676,-3032,11180,-1105,1570,-2321,-26000,27000,342000,345017,
-5840,-3168,10884,-1574,1427,-2637,-27000,27000,342000,345029,
-5736,-3304,10672,-1588,1444,-2654,-27000,27000,342000,345032,
-5712,-3380,10664,-1739,1355,-2729,-27000,27000,342000,345034,
-5596,-3480,9908,-2133,1240,-3046,-27000,27000,341000,345047,
-5488,-3812,8652,-2995,704,-3496,-28000,27000,341000,345066,
-5020,-3940,6972,-3726,-61,-4146,-28000,27000,340000,345079,
-5012,-4088,6528,-3857,-25,-4232,-28000,27000,340000,345081,
-4844,-4040,6156,-4143,-149,-4432,-28000,26000,340000,345084,
-3924,-3940,4616,-4989,-547,-5043,-1,342,-265,-32000,
-3656,-3996,4156,-5300,-695,-610,158,-210,-32000,28000,
-3288,-4076,3764,-6759,-1195,-6323,-31000,26000,339000,345116,
-3308,-4180,3784,-7052,-1363,-6508,-31000,26000,339000,345118,
-4772,-6668,4624,-11066,-2903,-8817,-34000,24000,337000,345148,
-4896,-6916,4616,-11463,-2996,-8928,-34000,24000,337000,345150,
-5140,-8876,4580,-32000,28000,337000,0,0,0,345150,
-5136,-9168,4372,-14075,-3320,-9631,-36000,23000,336000,345168,
0,0,0,0,0,0,-36000,23000,336000,345168,
-4792,-10536,4356,-16061,-2634,-9776,-39000,22000,335000,345183,
0,0,0,0,0,0,-39000,22000,335000,345183,
-4084,-11320,4448,-17523,-1032,-9411,-41000,21000,334000,345198,
-3960,-11540,4756,-17669,-672,-9405,-42000,21000,334000,345200,
-4216,-12516,4908,-18844,163,-9173,-44000,21000,334000,345213,
-4288,-12784,4800,-19166,136,-9155,-44000,21000,333000,345215,
-4512,-13124,4856,-19306,248,-9060,-45000,20000,333000,345217,
-5276,-14044,5140,-20456,-531,-9282,-47000,20000,333000,345230,
-5340,-14276,5224,-20549,-804,-9233,-47000,20000,333000,345232,
-5288,-14412,5396,-20736,-1212,-9268,-48000,19000,332000,345234,
-5520,-15208,5752,-21509,-3205,-9109,-50000,19000,332000,3452,
-4884,-16280,6468,-22324,-5449,-9190,-53000,17000,332000,345262,
-4660,-16456,6700,-22549,-5815,-9264,-53000,17000,332000,345264,
-4436,-16576,7012,-22585,-6006,-9260,-54000,17000,332000,345267,
-1388,-17784,9164,-23949,-3414,-9891,-62000,13000,332000,345311,
-4920,-19948,10404,-22387,-2994,-9940,-68000,10000,331000,345343,
-5388,-20028,10432,-22273,-3441,-9865,-68000,10000,331000,345345,
-6376,-20164,11124,-21486,-6381,-9314,-70000,9000,331000,345358,
-6312,-20160,11104,-21277,-6974,-9152,-71000,9000,331000,345361,
-5284,-20032,11932,-19799,-10435,-7504,-73000,8000,332000,345378,
-2820,-19960,12260,-18481,-10434,-6340,-75000,7000,333000,345390,
-2224,-19964,12172,-17912,-9767,-5965,-75000,7000,333000,345395,
-1724,-20120,12188,-16194,-7036,-4788,-76000,600,91,-3311,
-1820,-19704,12056,-14205,-3187,-3258,-78000,5000,334000,345422,
-1988,-19624,11836,-13980,-2770,-3156,-78000,5000,334000,345425,
-1944,-19584,11772,-13611,-2284,-3058,-78000,5000,334000,345427,
-2468,-18512,12160,-10396,2378,-1197,-81000,5000,334000,345457,
-2520,-18328,12108,-10097,2635,-1148,-81000,5000,334000,345459,
-3232,-17284,13196,-8590,3449,-943,-82000,5000,334000,345477,
-3936,-17648,13616,14624,2018,-2321,1916,-29000,26000,341000,
-4004,-17516,13628,14172,2356,-2505,1990,-29000,26000,342000,
-3668,-17192,14264,-6004,1293,-735,-83000,5000,333000,345509,
-3628,-17176,14124,-5903,1131,-488,-83000,5000,333000,345511,
-2744,-17016,14664,-4638,1247,-307,-83000,5000,333000,345524,
-2664,-16940,14776,-4452,1170,-417,-83000,5000,333000,345526,
-2968,-17152,15996,-2533,1202,-217,-84000,5000,333000,345543,
-3176,-17196,16388,-2320,1147,-162,-84000,5000,333000,345546,
-3068,-17820,16844,-1006,1228,420,-84000,5000,333000,345558,
-3044,-17880,16444,-776,1217,519,-83000,5000,333000,345561,
-3092,-17840,15868,845,1043,436,-83000,5000,333000,345573,
-3112,-17836,15708,1046,909,594,-83000,5000,333000,345576,
-3144,-17824,15640,1382,941,801,-83000,5000,333000,345578,
-2664,-18052,14956,2973,969,1897,-83000,5000,333000,345590,
-2420,-18172,14904,3275,1108,1925,-83000,5000,333000,345593,
-2408,-18156,14864,3510,1131,1887,-82000,5000,333000,345595,
-2356,-18280,15084,5276,1741,1955,-82000,6000,332000,345608,
-2448,-18248,15108,5497,1822,2002,-82000,6000,332000,345610,
-2724,-18244,153876,-4216,6724,1076,-135,151,-26000,25000,
0,0,0,0,0,0,-135,151,-26000,25000,
-2832,-18348,14724,8646,2589,2721,-79000,6000,332000,345642,
-2764,-18492,14688,8811,2717,2867,-79000,6000,332000,345644,
-2624,-18520,14664,9109,3030,2979,-79000,6000,332000,345647,
-2920,-18740,13744,10392,3769,2865,-77000,7000,332000,345664,
-3576,-19736,13292,12539,3790,3716,-74000,8000,331000,345694,
-3600,-19852,13040,12939,3897,3801,-74000,8000,331000,345696,
-357604,-1272,2152,-6364,-3867,-6584,-28000,23000,342000,349870,
-30,-5104,3404,-13402,-597,-10795,-32000,21000,340000,349904,
-3216,-19884,12324,15150,4889,4950,-71000,9000,330000,345728,
-3232,-19916,12268,15256,4990,5007,-70000,9000,330000,345731,
-3468,-19756,11904,16105,5031,5456,-69000,10000,330000,345743,
-3564,-19880,11704,16346,4990,5571,-68000,10000,330000,345746,
-3616,-19952,11720,16425,4986,5609,-68000,10000,330000,345748,
-3932,-20112,11392,17394,4641,6177,-66000,11000,330000,345761,
-4012,-20064,11356,17437,4585,6242,-66000,11000,330000,345763,
-4000,-20036,11372,17584,4425,6410,-66000,11000,3304,-13924,
-4392,-19556,10616,18545,3556,7058,-64000,12000,329000,345780,
-4188,-19420,10600,19216,2537,7556,-62000,13000,330000,345793,
-4176,-19300,10564,19393,2503,7661,-61000,13000,330000,345795,
-4040,-19272,10344,19378,2327,7711,-61000,13000,330000,345797,
-4160,-18916,9956,20054,1443,8036,-59000,14000,330000,345810,
-4208,-18940,10008,20196,1249,8073,-59000,14000,330000,345812,
-4556,-18372,9848,20740,237,8507,-56000,15000,330000,345827,
-4720,-18268,9552,20828,173,8524,-56000,15000,331000,345829,
-4792,-18112,9312,20831,42,8612,-56000,15000,331000,345831,
-4652,-17708,9096,21257,-724,8771,-53000,16000,331000,345844,
-4672,-17500,8996,21345,-922,8815,-53000,16000,331000,345846,
-4824,-16892,8840,21440,-1433,8922,-51000,17000,332000,345859,
-2908,-11180,5208,21428,-4455,8906,-35000,18000,338000,345948,
-3056,-11024,5068,21197,-4205,8841,-34000,18000,339000,345950,
-3232,-10868,5408,21113,-3963,8801,-34000,18000,339000,345953,
-3132,-9804,5588,20204,-3119,8445,-32000,19000,340000,345965,
-2908,-9448,5376,20065,-2959,8408,-32000,19000,340000,345967,
-2972,-9304,5352,19783,-2657,8264,-31000,19000,340,7000,
-2404,-7920,4888,18434,-1464,7692,-29000,19000,341000,345985,
-2408,-7668,4820,18240,-1270,7600,-29000,19000,341000,345987,
-2584,-6192,4932,16785,-198,6948,-27000,19000,342000,346000,
-2572,-6060,4892,16583,-51,6853,-27000,19000,342000,346002,
-2744,-5828,4816,16192,135,6732,-26000,19000,342000,346004,
-2948,-4840,4636,14611,476,6089,-25000,20000,342000,346017,
-3008,-4628,4716,14301,476,5956,-25000,20000,342000,346019,
-2984,-4464,4776,14077,465,5821,-24000,20000,342000,346022,
-2928,-3368,4724,12329,742,5224,-23000,20000,343000,346034,
-2804,-3332,4948,12121,806,5096,-23000,20000,343000,346036,
-2736,-2988,4960,11765,831,4986,-23000,20000,343000,346039,
-2772,-35,-3361,-81000,4000,325000,0,0,0,346039,
-2912,-2008,5512,9859,917,4198,-21000,21000,343000,346053,
-2824,-1900,5564,9609,1005,4060,-21000,21000,344000,346056,
-3008,-1712,5916,7939,883,3436,-20000,21000,344000,346068,
-3116,-1660,6024,7726,927,3280,-20000,21000,344000,346070,
-3072,-1572,6192,7412,933,3195,-20000,21000,344000,346073,
-3072,-1324,6480,5960,854,2625,-19000,21000,344000,346085,
-3072,-1264,6632,5684,921,2496,-19000,21000,344000,346087,
-3120,-1308,6684,5391,844,2387,-19000,21000,344000,346090,
-3064,-1212,7532,4157,1170,1754,-18000,21000,344000,346102,
-3004,-1112,7548,3938,1185,1672,104,15176,-5853,-328,
-3476,-1064,8304,2670,1750,966,-18000,22000,345000,346119,
-3608,-1132,8620,2524,1817,862,-18000,22000,345000,346122,
-3816,-1172,8684,2360,1792,795,-18000,22000,345000,346124,
-4040,-952,9120,1515,1966,427,-18000,22000,345000,346136,
-4140,-832,9224,1293,1867,405,-18000,22000,345000,346139,
-4120,-916,9284,1180,1806,246,-18000,22000,345000,346141,
-4264,-708,9872,555,1326,-293,-17000,220,345000,346153,
-4416,-688,9976,459,1299,-377,-17000,22000,344000,346156,
-4408,-732,10108,350,1235,-482,-17000,22000,344000,346158,
-4536,-920,10596,-166,1035,-773,-17000,22000,344000,346170,
-4448,-840,10824,-152,1005,-812,-17000,22000,344000,346173,
-4372,-956,11052,-241,1047,-854,-17000,22000,344000,346175,
-4488,-1176,11716,-576,971,-1160,0,0,0,346175,
-3948,-18468,13276,6319,-307,3035,-84000,4000,324000,350381,
-4548,-1424,12172,-659,1013,-1275,-17000,22000,344000,346192,
-5208,-1936,12788,-825,1070,-1509,-17000,22000,344000,346204,
-5220,-1936,12788,-863,1045,-1547,-18000,22000,344000,346207,
-5780,-2192,12776,-804,960,-1629,-18000,22000,344000,346219,
-5908,-2280,12768,-838,861,-1657,-18000,22000,344000,346221,
-5792,-2252,12668,-765,892,-1637,-18000,22000,344000,346224,
-5776,-1692,12508,-80,7000,324000,0,0,0,346224,
-5772,-1652,12452,-747,662,-1577,-18000,22000,344000,346239,
-5764,-1512,12444,-80,7000,324000,0,0,0,346239,
-5344,-1068,12960,-102200,324000,350487,0,0,0,346239,
-5372,-976,13084,-982,1160,-1499,-18000,22000,343000,346258,
-5500,-844,13472,-1408,1593,-1522,-18000,23000,343000,346271,
-5488,-924,13416,-1399,1709,-1538,-18000,23000,343000,346273,
-5512,-1072,13664,-1497,1688,-1498,-18000,23000,343000,346275,
-6004,-1024,14068,-1717,1882,-1501,-18000,23000,343000,346288,
-6172,-1044,14040,-1834,1833,-1526,-180,-19292,9680,16316,
-6248,-1304,14408,-2146,1563,-1511,-18000,23000,343000,346307,
-5972,-1704,14388,-2367,1473,-1480,-19000,23000,343000,346319,
-5924,-1712,14480,-2323,1509,-1492,-19000,23000,343000,346322,
-5976,-1728,14460,-2411,1494,-1469,-19000,23000,342000,346324,
-6084,-1816,14504,-2429,1598,-1364,-19000,23000,342000,346336,
-6092,-1776,14508,-2478,1557,-1333,-19000,23000,342000,346339,
-5604,-2056,14888,-2159,500,-1062,-20000,23000,342000,346401,
-5648,-2004,14944,-2211,459,-1056,-20000,23000,342000,346404,
-5728,-1984,14992,-2130,502,-1059,-20000,23000,342000,346406,
-5888,-2116,15004,-2052,593,-1041,-20000,23000,342000,346418,
-6040,-2160,15084,-2045,649,-1046,-20000,23000,342000,346421,
-6028,-2308,14948,-2059,594,-1029,-20000,23000,342000,346423,
-6244,-2540,14972,-1864,588,-949,-20000,23000,342000,346436,
-6148,-2480,14824,-1841,563,-945,-20000,23000,342000,346438,
-6236,-2556,14940,-1845,467,-920,-20000,23000,342000,346440,
-6156,-2420,15004,-1727,424,-819,-21000,23000,341000,346453,
-6076,-2484,14912,-1659,388,-771,-21000,23000,341000,346455,
-6040,-2464,14888,-1658,307,-744,-21000,23000,341000,346457,
-5984,-2648,15020,-1505,278,-676,-21000,23000,341000,346470,
-6100,-2680,15000,-1546,203,-675,-21000,23000,341000,346472,
-6092,-2728,14768,-1408,265,-536,-21000,23000,341000,346487,
-6048,-2760,14652,-1361,329,-502,-21000,23000,341000,346489,
-6140,-2568,14720,-1336,438,-421,-21000,23000,341000,346501,
-6104,-2720,14844,-1279,494,-377,-21000,23000,341000,346504,
-6180,-2676,14692,-1308,485,-381,-21000,23000,341000,346506,
-6428,-2804,14776,-1243,451,-313,-21000,23000,341,-2628,
-5524,-2624,14388,-866,515,-126,-21000,23000,341000,346612,
-6120,-2788,13768,-844,452,-233,-21000,24000,341000,346702,
-6120,-2888,13880,-864,895,-184,-22000,24000,341000,346714,
-6076,-2820,13828,-925,1004,-187,-22000,24000,341000,346719,
-6296,-2888,13724,-1062,1215,-174,-22000,24000,341000,346732,
-6392,-2880,13692,-1080,1267,-141,-22000,24000,341000,346736,
-6728,-3000,13564,-1092,1172,-128,-22000,24000,341000,346749,
-6736,-3048,13600,-1166,1063,-147,-22000,24000,341000,346751,
-6768,-3128,13524,-1124,1068,-146,-22000,24000,341000,346754,
-6796,-3228,13796,-1192,815,-55,-22000,24000,341000,346766,
-6480,-3300,13576,-1227,565,166,-22000,24000,341000,346801,
-6428,-3388,13516,-1188,702,220,-22000,24000,341000,346803,
-6416,-3304,13628,-1202,642,230,-22000,24000,341000,346805,
-6500,-3308,13652,-1230,768,332,-22000,24000,341000,346818,
-6440,-3300,13544,-1229,717,328,-22000,24000,341000,346820,
-6404,-3292,13556,-1206,792,360,-22000,24000,341000,346823,
-6488,-3324,13660,-1279,744,425,-22000,24000,341000,346835,
-6456,-3280,13692,-1253,802,422,-22000,24000,341000,346837,
-6504,-3284,13748,-1282,725,433,-22000,24000,341000,346840,
-6440,-3512,13808,-1272,650,412,-22000,25000,341000,346852,
-6436,-3452,13612,-1315,551,444,-22000,25000,341000,346855,
-6504,-3624,13796,-1258,553,428,-22000,25000,341000,346857,
-6460,-3632,13676,-1286,376,519,-22000,25000,341000,346870,
-6448,-3580,13680,-1291,400,512,-22000,25000,341000,346872,
-6332,-3496,13724,-1274,355,554,-22000,25000,341000,346874,
-6116,-3456,13808,-1316,659,576,-22000,25000,341000,346891,
-6044,-3588,13832,-1329,1007,598,-23000,25000,341000,346904,
-7388,-5260,12980,98,77,-675,-32000,28000,338000,349136,
-7432,-5188,13032,95,194,-671,-32000,28000,338000,349149,
-7532,-5180,12956,50,129,-695,-32000,28000,338000,349151,
-7556,-5320,12856,91,0,351017,0,0,0,349151,
-5080,-1652,11400,-230,1354,580,-22000,24000,341000,351012,
-5176,-1720,11364,-319,1659,579,-22000,24000,341000,351014,
-5416,-1968,9512,1749,445,1584,-22000,23000,340000,350958,
0,0,0,0,0,0,-22000,23000,340000,350958,
-7460,-5376,12316,-103,21,-614,-32000,28000,338000,349220,
-7376,-5340,12344,-106,-9,-622,-32000,28000,338000,349222,
-7604,-5300,12116,-233,74,-618,-32000,28000,338000,349239,
-7452,-5344,12220,-237,217,-567,0,340000,351081,0,
-6960,-1964,12876,-1965,1279,-68,-22000,25000,340000,351083,
-7696,-5420,12280,-219,229,-581,25000,340000,351101,0,
-7644,-5444,12168,-230,263,-510,-32000,28000,337000,349269,
-7500,-5412,12148,-292,201,-492,-32000,28000,337000,349271,
-7560,-5384,12232,-265,276,-498,-32000,28000,337000,349274,
-7560,-5204,12068,-319,258,-417,-32000,28000,337000,349286,
-7524,-5280,12136,-255,342,-417,-32000,28000,337000,349289,
-7508,-5260,12316,-310,313,-429,-32000,28000,337000,349291,
-7580,-5404,12208,-322,375,-368,-32000,28000,337000,349304,
-7640,-5436,12328,-344,320,-357,-32000,28000,337000,349306,
-7580,-5340,12320,-371,365,-365,-32000,28000,337000,349308,
-7624,-5464,12064,-360,35,983,-243,-23000,25000,340000,
-7440,-5392,12212,-3744016,-2311,512,-278,-24000,25000,340000,
-7628,-5424,12152,-563,213,-214,-32000,28000,337000,349355,
-7612,-5432,12268,-585,177,-189,-32000,28000,337000,349360,
-7568,-5428,12336,-731,52,-175,-32000,28000,337000,349372,
-7532,-5372,12140,-699,64,-130,-32000,28000,337000,349375,
-7428,-5360,12204,-767,-14052,-1857,-33,-136,-24000,25000,
-7416,-5324,12368,-864,22,-73,-32000,28000,337000,349392,
-7460,-5304,12412,-939,-18,-15,-32000,28000,337000,349407,
-7392,-5276,12432,-919,35,-24,-32000,28000,337000,349409,
-7496,-5388,12660,-945,-209,22,-32000,28000,337000,349426,
-7572,-5368,12712,-966,-171,4,-32000,28000,337000,349429,
-7472,-5376,12728,-933,-485,69,-32000,28000,337000,349446,
-7432,-5360,13072,-857,-411,84,-32000,28000,338000,349459,
-7236,-5340,12824,-900,-454,85,-32000,28000,338000,349461,
-7356,-5388,12932,-872,-371,87,-3232,13932,-1838,490,
-6400,-3328,13832,-1802,467,22,-25000,26000,340000,351303,
-7228,-5284,12992,-885,-7,135,-32000,28000,338000,349480,
-7344,-5256,13136,-803,172,173,-32000,28000,338000,349493,
-7472,-5160,13232,-853,65,236,-32000,28000,338000,349495,
-7536,-5188,13160,-784,95,219,-32000,28000,338000,349498,
-7728,-5384,13492,-757,-238,307,-32000,28000,338000,349510,
-7880,-5288,13424,-744,-393,369,-32000,281945,618,-5,
-7920,-4768,13692,-561,-966,595,-32000,28000,338000,349530,
-7952,-4588,13748,-504,-1016,615,-32000,28000,338000,349532,
-8004,-3976,14216,-571,-1784,862,0,0,0,349532,
-8000,-3868,14456,-613,-2057,902,-2196,602,-38,-26000,
-7848,-4508,14844,-614,-2853,1081,-31000,27000,339000,349564,
-7768,-4576,14944,-607,-2950,1115,-31000,27000,339000,349567,
-7572,-5136,15056,-412,-3285,1243,-31000,27000,339000,349579,
-7456,-5256,15212,-402,-3381,1226,-31000,27000,339000,349582,
-7312,-5896,15456,149,-3198,1319,-31000,27000,340000,349601,
