Ax,Ay,Az,Gx,Gy,Gz,Roll,Pitch,Yaw,Timestamp,Target
-2744,4476,15844,-891,360,-283,8000,11000,268000,617535,
-2760,4584,15936,-730,94,-197,8000,11000,268000,617547,
-2800,4616,15908,-848,21,-156,8000,11000,268000,617549,
-2772,4644,15740,-743,19,-148,8000,11000,268000,617552,
-2968,4816,15808,-774,-253,-130,8000,11000,268000,617564,
-2852,4736,15752,-828,-349,-131,8000,11000,268000,617567,
-2896,4760,15808,-791,-361,-90,8000,11000,268000,617569,
-2668,4772,15936,-829,-494,-89,8000,11000,268000,617581,
-2540,4816,15868,-660,-438,-62,8000,11000,268000,617583,
-2472,4708,15944,-763,-493,-108,8000,11000,268000,617586,
-2440,4520,15972,-498,-241,-30,8000,11000,268000,617598,
-2460,4500,15760,-628,-246,-39,8000,11000,268000,617601,
-2516,4376,15904,-464,-152,-60,8000,11000,268000,617603,
-2304,4396,15800,-344,245,-118,8000,11000,268000,617615,
-2236,4412,15672,-376,279,-202,8000,11000,268000,617618,
-2264,4484,15732,-316,390,-152,8000,11000,268000,617620,
-2548,4328,15476,-294,712,-165,8000,11000,268000,617632,
-2608,4356,15476,-145,809,-170,8000,11000,268000,617635,
-2644,4328,15468,-279,821,-123,8000,11000,268000,617637,
-2732,4596,15344,-120,914,-97,8000,11000,268000,617649,
-2816,4596,15336,-204,873,-39,8000,11000,268000,617652,
-2908,4628,15436,-99,805,-35,8000,11000,268000,617654,
-3408,4820,15452,-319,285,140,8000,11000,268000,617667,
-3112,4828,15372,-412,133,97,8000,11000,268000,617669,
-3128,4920,15396,-392,65,98,8000,11000,268000,617671,
-2880,4388,15168,-552,-486,-3,8000,11000,268000,617683,
-2856,4400,15304,-434,-507,30,8000,11000,268000,617686,
-2976,4244,15124,-576,-634,8,8000,11000,268000,617688,
-2528,4528,15228,-444,-637,123,8000,11000,268000,617700,
-2428,4592,15196,-562,-594,111,8000,11000,268000,617703,
-2276,4584,15208,-444,-495,109,8000,11000,268000,617705,
-1700,4584,15368,-453,-67,-100,8000,11000,268000,617717,
-1944,4600,15276,-424,-5,-155,8000,11000,268000,617720,
-1964,4440,15304,-418,134,-143,8000,11000,268000,617722,
-2208,4476,15300,-314,649,-131,8000,11000,268000,617734,
-2156,4652,15084,-173,818,-114,8000,11000,268000,617737,
-2152,4532,15160,-270,800,-135,8000,11000,268000,617739,
-2792,4840,15092,-74,850,-149,8000,11000,268000,617751,
-2812,4804,15116,-252,728,-173,8000,11000,268000,617754,
-2896,5064,15180,-113,705,-175,8000,11000,268000,617756,
-2640,5112,15392,-424,190,-195,8000,11000,268000,617768,
-2732,5016,15328,-400,119,-216,8000,11000,268000,617771,
-2580,4936,15324,-469,66,-234,8000,11000,268000,617773,
-2748,4624,15212,-489,-116,-237,8000,11000,268000,617785,
-2900,4540,15112,-415,-91,-198,8000,11000,268000,617788,
-2844,4528,15100,-511,-215,-214,8000,11000,268000,617790,
-2368,4868,15100,-433,-282,-196,8000,11000,268000,617803,
-2396,4908,15128,-574,-255,-196,8000,11000,268000,617805,
-2284,4932,15076,-443,-141,-214,8000,11000,268000,617807,
-2484,4496,14940,-508,205,-381,8000,11000,268000,617819,
-2604,4480,14940,-496,266,-400,8000,11000,268000,617822,
-2556,4424,15092,-513,261,-406,8000,11000,268000,617824,
-2388,4800,14952,-527,320,-359,8000,11000,268000,617837,
-2316,4788,14884,-491,379,-323,8000,11000,268000,617839,
-2360,4836,14772,-519,408,-365,8000,11000,268000,617841,
-2896,4716,14836,-522,633,-466,8000,11000,268000,617854,
-2888,4652,14824,-627,539,-528,8000,11000,268000,617856,
-3068,4564,14708,-557,556,-460,8000,11000,268000,617858,
-3032,4376,14752,-797,185,-428,8000,11000,267000,617871,
-2940,4252,14708,-662,204,-419,8000,11000,267000,617873,
-3080,4264,14860,-827,80,-419,8000,11000,267000,617875,
-2980,4392,15140,-850,48,-356,8000,11000,267000,617888,
-2908,4416,15204,-891,86,-327,8000,11000,267000,617890,
-2720,4372,15284,-855,107,-326,8000,11000,267000,617892,
-2756,4268,14880,-815,209,-192,8000,11000,267000,617905,
-2812,4272,15052,-855,133,-225,8000,11000,267000,617907,
-2948,4220,15004,-777,145,-123,8000,11000,267000,617909,
-2924,4824,15240,-856,61,-17,8000,11000,267000,617922,
-2824,4868,15148,-721,141,21,8000,11000,267000,617924,
-2688,4900,15340,-845,79,-12,8000,11000,267000,617926,
-2768,4564,15168,-702,65,-189,8000,11000,267000,617938,
-2916,4488,14984,-752,4,-179,8000,11000,267000,617941,
-3072,4328,15184,-659,-36,-192,8000,11000,267000,617943,
-2816,4696,15012,-596,-78,-80,8000,11000,267000,617956,
-2600,4824,15136,-688,-81,-135,8000,11000,267000,617958,
-2476,4772,15060,-633,-11,-65,8000,11000,267000,617960,
-2872,4824,15060,-682,33,-59,8000,11000,267000,617973,
-2948,4828,15108,-539,61,-33,8000,11000,267000,617975,
-3124,4952,15276,-727,-66,-35,8000,11000,267000,617977,
-3136,5212,15264,-834,-492,99,8000,11000,267000,617990,
-3080,5180,15136,-991,-629,113,8000,11000,267000,617992,
-3272,5184,15200,-934,-692,91,8000,11000,267000,617994,
-3056,4752,15340,-1074,-1268,60,8000,11000,267000,618007,
-3252,4720,15236,-1192,-1452,-19,8000,11000,267000,618009,
-2988,4668,15192,-1087,-1523,-6,8000,11000,267000,618011,
-3032,4676,14864,-1230,-2022,40,8000,11000,267000,618024,
-2896,4776,14932,-1116,-2022,46,8000,11000,267000,618026,
-3024,4704,15008,-1277,-2122,44,8000,11000,267000,618028,
-2720,4904,15192,-1223,-2353,-45,8000,10000,267000,618041,
-2600,4968,15216,-1344,-2388,-57,8000,10000,267000,618043,
-2492,4984,15308,-1277,-2391,-24,8000,10000,267000,618045,
-2528,4808,15380,-1475,-2699,-47,7000,10000,267000,618058,
-2572,4636,15288,-1476,-2776,-66,7000,10000,267000,618060,
-2780,4624,15364,-1503,-2792,-44,7000,10000,267000,618062,
-2192,4244,15692,-1612,-2807,-176,7000,10000,267000,618075,
-1824,4224,15712,-1445,-2663,-209,7000,10000,267000,618077,
-1820,4124,15796,-1559,-2643,-256,7000,9000,267000,618080,
-1376,3936,15536,-1190,-1686,-363,7000,9000,267000,618092,
-1416,3860,15368,-1215,-1454,-343,7000,9000,267000,618094,
-1376,3860,15148,-1074,-1162,-382,7000,9000,267000,618097,
-1560,4104,14968,-775,189,-252,7000,9000,267000,618109,
-1792,4184,15068,-884,312,-273,7000,9000,267000,618112,
-1840,4284,15204,-759,543,-214,7000,9000,267000,618114,
-2336,4412,15572,-876,1060,-231,7000,9000,267000,618126,
-2264,4516,15528,-751,1169,-258,7000,9000,267000,618129,
-2284,4472,15720,-880,1133,-242,7000,9000,267000,618131,
-2940,4088,15836,-849,1003,-107,7000,9000,267000,618143,
-2952,4048,15752,-906,895,-45,7000,9000,267000,618146,
-3140,3956,15520,-794,808,-9,7000,10000,267000,618148,
-2908,4236,15436,-777,214,158,7000,10000,267000,618160,
-2888,4288,15348,-833,45,110,7000,10000,267000,618163,
-2732,4380,15208,-787,-2,174,7000,10000,267000,618165,
-2540,4376,15244,-906,-273,74,7000,10000,267000,618177,
-2508,4388,15172,-752,-243,90,7000,9000,267000,618180,
-2572,4304,15060,-923,-290,47,7000,9000,267000,618182,
-2272,4504,15564,-790,-94,148,7000,9000,267000,618194,
-2100,4460,15264,-911,-45,190,7000,9000,267000,618197,
-1996,4464,15496,-807,62,202,7000,9000,267000,618199,
-2140,4376,15320,-922,87,237,7000,9000,267000,618201,
-2252,4260,15376,-894,467,138,7000,9000,267000,618214,
-2312,4212,15412,-852,526,153,7000,9000,267000,618216,
-2256,4112,15384,-880,538,121,7000,10000,267000,618218,
-2180,4480,15436,-812,744,133,7000,10000,267000,618231,
-2176,4460,15472,-921,691,99,7000,10000,267000,618233,
-2272,4532,15464,-816,722,149,7000,10000,267000,618235,
-2360,4452,15484,-994,579,40,7000,10000,267000,618248,
-2488,4420,15600,-934,571,18,7000,10000,267000,618250,
-2332,4356,15744,-1046,489,5,7000,10000,267000,618252,
-2472,4248,15816,-1058,56,-26,7000,10000,267000,618265,
-2532,4260,15800,-964,28,42,7000,10000,267000,618267,
-2392,4236,15928,-1072,-114,2,7000,10000,267000,618269,
-2380,4268,15988,-909,-370,6,7000,10000,267000,618282,
-2396,4420,16024,-1036,-441,-13,7000,10000,267000,618284,
-2388,4492,15996,-908,-406,-21,7000,10000,267000,618286,
-1908,4344,15988,-922,-363,-110,7000,10000,267000,618299,
-1948,4372,16044,-908,-347,-159,7000,9000,267000,618301,
-1912,4300,16232,-889,-275,-146,7000,9000,267000,618303,
-1828,4188,16012,-778,38,-190,7000,9000,267000,618316,
-1924,4164,16072,-652,185,-152,7000,9000,267000,618318,
-1904,4128,16032,-730,209,-186,7000,9000,267000,618320,
-1824,4280,16200,-458,641,-150,7000,10000,267000,618333,
-1952,4340,16396,-562,656,-160,7000,10000,267000,618335,
-1876,4412,16072,-446,742,-168,7000,10000,267000,618338,
-2504,4428,16064,-432,690,-117,7000,10000,267000,618350,
-2644,4332,16176,-437,591,-128,7000,10000,267000,618352,
-2800,4340,16112,-446,543,-71,7000,10000,267000,618355,
-2708,4196,16336,-515,53,-105,7000,10000,267000,618367,
-2552,4208,16340,-398,79,-106,7000,10000,267000,618369,
-2540,4116,16320,-512,-47,-152,7000,10000,267000,618372,
-2300,4016,16096,-275,-67,-138,7000,10000,267000,618384,
-2408,3900,15960,-346,-69,-109,7000,10000,267000,618386,
-2424,4020,16032,-202,0,-78,7000,10000,267000,618389,
-2244,4216,15788,-76,290,134,7000,10000,267000,618401,
-2072,4228,15704,-100,273,80,7000,10000,267000,618403,
-2212,4392,15688,-28,368,143,7000,10000,267000,618406,
-2208,4220,15716,-64,374,117,7000,10000,267000,618408,
-2360,4160,15664,47,599,131,7000,10000,268000,618421,
-2240,4164,15820,-79,545,89,7000,10000,268000,618423,
-2312,4112,15884,85,582,88,7000,10000,268000,618425,
-2284,3956,15872,42,575,140,7000,10000,268000,618438,
-2388,4064,15632,120,541,165,7000,10000,268000,618440,
-2448,4128,15664,27,502,221,7000,10000,268000,618442,
-2340,4096,15600,111,507,232,7000,10000,268000,618445,
-2528,4204,15668,37,192,210,7000,10000,268000,618457,
-2356,4068,15644,-60,89,189,7000,10000,268000,618459,
-2396,4108,15584,41,138,181,7000,10000,268000,618462,
-2284,4208,15460,-33,-37,112,7000,10000,268000,618474,
-2200,4184,15496,52,-14,135,7000,10000,268000,618477,
-2104,4272,15512,-49,-55,180,7000,10000,268000,618479,
-2100,4280,15396,3,96,208,7000,10000,268000,618491,
-2144,4184,15284,26,151,205,7000,10000,268000,618493,
-2004,4148,15284,95,189,147,7000,10000,268000,618496,
-2060,4256,15160,50,203,153,7000,10000,268000,618498,
-2016,4544,15224,-1,121,83,7000,10000,268000,618510,
-2044,4668,15336,57,115,130,7000,10000,268000,618513,
-2132,4568,15196,-22,36,86,7000,10000,268000,618515,
-2308,4584,15312,3,49,56,7000,10000,268000,618527,
-2220,4488,15336,-135,-22,0,7000,10000,268000,618530,
-2204,4472,15132,-41,27,2,7000,10000,268000,618532,
-2272,4324,15208,-143,-55,-66,7000,10000,268000,618534,
-2368,4424,14944,-71,-250,-23,7000,10000,268000,618547,
-2336,4412,14980,-167,-332,21,7000,10000,268000,618549,
-2216,4744,14888,-95,-372,-6,7000,10000,268000,618551,
-1960,5100,15504,-289,-281,-44,7000,10000,268000,618564,
-1804,4956,15396,-356,-243,-135,7000,10000,268000,618566,
-1976,4760,15376,-338,-134,-120,7000,10000,268000,618568,
-2216,4032,15024,-408,38,-243,7000,10000,268000,618581,
-2336,4004,15148,-242,124,-202,7000,10000,268000,618583,
-2204,4084,14884,-371,12,-198,7000,10000,268000,618585,
-2060,4260,15076,-210,181,-197,7000,10000,268000,618598,
-2060,4204,15152,-267,207,-174,7000,10000,268000,618600,
-2136,4348,14972,-182,310,-223,7000,10000,268000,618602,
-2460,4264,15008,-206,564,-230,7000,10000,268000,618615,
-2476,4208,14784,-241,557,-272,7000,10000,268000,618617,
-2188,4176,15136,-261,615,-200,7000,10000,268000,618619,
-2140,4128,15000,-248,822,-40,7000,10000,268000,618632,
-2040,4112,15020,-92,956,22,7000,10000,268000,618634,
-2232,4096,14940,-188,896,16,7000,10000,268000,618636,
-3000,4760,14908,-111,818,265,7000,10000,268000,618649,
-2896,4688,15048,-269,660,275,7000,10000,268000,618651,
-2816,4812,15192,-189,609,280,8000,10000,268000,618653,
-2572,4796,15328,-498,-14,88,8000,10000,268000,618666,
-2580,4716,15492,-524,-158,-26,8000,10000,268000,618668,
-2516,4712,15596,-544,-173,-12,8000,10000,268000,618670,
-2172,4272,15700,-598,-318,-210,8000,10000,268000,618683,
-2088,4296,15444,-482,-225,-206,8000,10000,268000,618685,
-2020,4304,15520,-535,-270,-253,7000,10000,268000,618687,
-1776,4916,15388,-378,82,-238,8000,10000,268000,618700,
-1960,4920,15312,-446,132,-248,8000,10000,268000,618702,
-1932,4984,15412,-352,202,-266,8000,10000,268000,618704,
-2444,4956,15832,-438,241,-326,8000,10000,268000,618717,
-2504,4956,15656,-473,183,-398,8000,10000,268000,618719,
-2504,4908,15800,-459,225,-379,8000,10000,268000,618721,
-2472,4632,15792,-532,56,-377,8000,10000,268000,618734,
-2512,4596,15916,-382,128,-336,8000,10000,268000,618736,
-2444,4608,15848,-490,64,-365,8000,10000,268000,618738,
-2688,4840,15980,-368,7,-277,8000,10000,268000,618751,
-2576,4820,15880,-478,-50,-224,8000,10000,268000,618753,
-2792,4928,15800,-366,-30,-267,8000,10000,268000,618756,
-2528,4576,16032,-463,-101,-301,8000,10000,268000,618768,
-2464,4568,15956,-466,-137,-352,8000,10000,268000,618770,
-2592,4428,15980,-431,-92,-307,8000,10000,268000,618773,
-2536,4204,15760,-340,23,-217,8000,10000,268000,618785,
-2628,4016,15832,-184,106,-184,8000,10000,268000,618787,
-2556,4092,15616,-285,66,-186,8000,10000,268000,618790,
-2460,4272,15780,-50,214,-122,8000,10000,268000,618802,
-2468,4244,15500,-86,204,-81,8000,10000,268000,618804,
-2456,4248,15592,25,214,-105,8000,10000,268000,618807,
-2620,4036,15344,41,200,0,8000,10000,268000,618819,
-2480,4052,15376,-3,126,-3,8000,10000,268000,618822,
-2396,4180,15464,115,141,40,8000,10000,268000,618824,
-2424,4004,15220,42,103,53,8000,10000,268000,618826,
-2260,4184,14836,259,58,267,8000,10000,268000,618839,
-2360,4120,15016,148,-73,302,8000,10000,268000,618841,
-2244,4272,14700,269,-92,328,8000,10000,268000,618843,
-2260,4480,14368,57,-526,312,8000,10000,268000,618856,
-2032,4596,14224,125,-571,315,8000,10000,268000,618858,
-2180,4404,14268,-2,-650,283,8000,10000,268000,618860,
-1540,4256,13672,-207,-1036,152,8000,10000,268000,618873,
-1348,4260,13580,-193,-1021,138,8000,10000,268000,618875,
-1432,4216,13512,-273,-1086,83,8000,9000,268000,618877,
-996,4332,12856,-351,-1077,-110,8000,9000,268000,618890,
-852,4428,12928,-538,-1180,-195,8000,9000,268000,618892,
-948,4348,12848,-446,-1172,-206,8000,9000,268000,618894,
-624,4748,12180,-884,-1618,-445,8000,9000,268000,618907,
-420,4876,12164,-868,-1691,-492,8000,9000,268000,618909,
-396,4884,12072,-1068,-1895,-542,8000,9000,268000,618911,
-428,4700,11956,-1549,-2608,-937,8000,9000,268000,618924,
-372,4740,11756,-1649,-2674,-998,8000,9000,268000,618926,
-512,4600,11640,-1728,-2763,-1087,8000,9000,268000,618928,
16,4120,11568,-2143,-3040,-1381,8000,8000,267000,618941,
316,4076,11532,-2327,-3098,-1513,8000,8000,267000,618943,
436,4028,11492,-2284,-2989,-1535,8000,8000,267000,618945,
780,3552,11020,-2620,-2364,-1754,7000,8000,267000,618958,
596,3432,11048,-2499,-2123,-1777,7000,8000,267000,618960,
604,3400,11028,-2676,-1967,-1796,7000,8000,267000,618962,
364,2972,10504,-2823,-763,-1926,7000,8000,267000,618975,
416,2992,10832,-2920,-500,-1895,7000,8000,267000,618977,
380,3092,10764,-2898,-314,-1954,7000,8000,267000,618979,
-112,2564,10316,-3146,782,-1965,7000,8000,267000,618992,
-236,2524,10052,-3297,880,-1987,7000,8000,267000,618994,
-148,2572,10144,-3266,1041,-1920,7000,8000,267000,618996,
-1024,2316,9560,-3642,1201,-1680,6000,8000,266000,619009,
-1096,2288,9620,-3558,1177,-1624,6000,8000,266000,619011,
-1180,2408,9696,-3780,981,-1565,6000,8000,266000,619013,
-1400,2476,9452,-4215,29,-1438,6000,8000,266000,619026,
-1636,2492,9436,-4417,-200,-1398,6000,8000,266000,619028,
-1628,2516,9364,-4426,-480,-1431,6000,8000,266000,619031,
-1840,2440,9468,-5223,-2453,-1248,5000,8000,266000,619043,
-2032,2380,9728,-5432,-2885,-1288,5000,8000,266000,619045,
-1968,2448,9612,-5580,-3239,-1225,5000,8000,266000,619048,
-892,2356,9756,-6393,-4832,-1351,4000,7000,266000,619060,
-640,2312,9780,-6360,-4963,-1372,4000,7000,266000,619063,
-428,2420,9900,-6596,-5187,-1453,4000,7000,266000,619065,
432,2260,9560,-7135,-5264,-1627,3000,6000,266000,619077,
496,2224,9368,-7289,-5157,-1621,3000,6000,266000,619080,
580,2144,9168,-7348,-5043,-1677,3000,6000,265000,619082,
500,1660,8848,-7981,-3829,-1794,2000,6000,265000,619095,
708,1572,8692,-8259,-3639,-1878,2000,6000,265000,619097,
668,1472,8580,-8288,-3302,-1914,2000,6000,265000,619099,
864,688,8400,-9157,-2022,-2424,1000,5000,265000,619112,
732,592,8400,-9175,-1698,-2490,1000,5000,265000,619114,
816,332,8448,-9489,-1431,-2545,1000,5000,265000,619116,
632,-344,8932,-10140,155,-2487,0,5000,265000,619129,
404,-516,9068,-10282,335,-2414,0,5000,265000,619131,
360,-724,8964,-10349,502,-2410,0,5000,265000,619133,
300,-832,9212,-10526,670,-2325,0,5000,265000,619136,
-440,-1044,9768,-11174,1535,-2216,-1000,5000,264000,619148,
-264,-844,7476,-11543,1391,-2232,-1000,5000,264000,619150,
-756,-1308,8756,-11836,1403,-2231,-1000,5000,264000,619153,
-1552,-696,9024,-12966,862,-2332,-2000,6000,264000,619165,
-1608,-560,9096,-13402,580,-2473,-3000,6000,264000,619167,
-1332,-608,9428,-13552,400,-2561,-3000,6000,264000,619170,
-880,-1092,9756,-15183,-691,-3649,-4000,5000,264000,619182,
-1012,-1376,9876,-15423,-753,-3862,-5000,5000,264000,619184,
-976,-1536,10072,-15748,-897,-4013,-5000,5000,263000,619187,
-1016,-2608,10820,-16937,-1450,-4662,-7000,5000,263000,619199,
-876,-2824,10840,-17103,-1459,-4707,-7000,5000,263000,619202,
-540,-3084,11016,-17411,-1505,-4873,-7000,5000,263000,619204,
448,-3716,11812,-17862,-1067,-5473,-9000,5000,262000,619216,
444,-3808,11892,-18079,-890,-5640,-10000,5000,262000,619219,
620,-4384,11720,-18330,643,-6150,-11000,5000,262000,619231,
480,-4412,11832,-18403,954,-6145,-12000,5000,262000,619234,
312,-4660,11856,-18466,1270,-6260,-12000,5000,261000,619236,
-820,-5472,11828,-18736,2201,-5931,-14000,5000,261000,619248,
-1248,-5692,11856,-18894,2076,-5828,-14000,5000,261000,619251,
-1764,-5796,11764,-18815,1982,-5670,-15000,5000,261000,619253,
-4388,-6864,12560,-19559,-6,-4874,-17000,5000,260000,619266,
-4864,-7272,12708,-19545,-522,-4696,-17000,5000,260000,619268,
-5124,-7336,12992,-19751,-1259,-4581,-17000,5000,260000,619270,
-5576,-8524,14340,-20581,-5963,-4263,-20000,4000,260000,619283,
-5224,-8560,14428,-20604,-6829,-4239,-20000,4000,260000,619285,
-2720,-9452,15048,-21232,-10306,-4292,-22000,3000,260000,619298,
-1764,-9772,15432,-21122,-10443,-4215,-22000,3000,260000,619300,
-1284,-9760,15676,-21185,-10539,-4202,-23000,3000,260000,619302,
2040,-10348,15764,-20411,-8838,-3954,-25000,2000,260000,619315,
2608,-10572,15728,-20234,-8054,-3731,-25000,1000,260000,619317,
3084,-10628,15444,-20112,-7204,-3707,-26000,1000,260000,619319,
4596,-11084,14484,-19334,-1405,-3803,-27000,1000,259000,619332,
4584,-11028,14236,-19321,-335,-4035,-28000,1000,259000,619334,
4532,-11364,12864,-18568,5691,-5398,-30000,1000,259000,619347,
4368,-11460,12492,-18504,6548,-5617,-30000,1000,259000,619349,
4228,-11496,12288,-18386,7371,-5833,-30000,1000,258000,619352,
280,-11608,12204,-18504,9968,-5837,-32000,2000,257000,619364,
-232,-11780,12296,-18702,10159,-5841,-33000,2000,257000,619367,
-464,-11832,12608,-18700,10260,-5816,-33000,2000,257000,619369,
-2004,-13452,13924,-19255,8763,-6503,-35000,2000,256000,619382,
-2176,-13860,14216,-19076,8802,-6493,-35000,2000,256000,619384,
-3868,-15556,14312,-19588,5346,-6717,-37000,2000,255000,619396,
-4128,-15504,14224,-19613,4695,-6655,-38000,2000,255000,619399,
-3992,-15532,14264,-19671,3995,-6436,-38000,2000,255000,619401,
-3596,-14712,14084,-20089,726,-5516,-40000,2000,254000,619413,
-3220,-14560,13912,-20047,399,-5328,-40000,2000,254000,619416,
-2944,-14432,13932,-20274,-80,-5270,-41000,2000,254000,619418,
-2832,-14948,12800,-20659,-1328,-4808,-43000,2000,254000,619431,
-2864,-15376,12396,-20803,-1543,-4695,-43000,1000,254000,619433,
-2944,-17456,11864,-21180,-2272,-4182,-45000,1000,254000,619446,
-2968,-18108,11792,-21081,-2396,-4045,-46000,1000,254000,619448,
-3184,-18244,11516,-21208,-2691,-4004,-46000,1000,254000,619450,
-3196,-18236,11596,-21352,-3361,-3600,-48000,0,254000,619463,
-2816,-17876,11700,-21582,-3528,-3577,-49000,0,254000,619465,
-2644,-17728,12104,-21512,-3593,-3525,-49000,0,254000,619467,
-1616,-16364,13460,-22015,-4404,-3559,-51000,0,254000,619480,
-1424,-16348,13920,-22087,-4441,-3640,-52000,0,254000,619482,
-796,-16340,15144,-22413,-4886,-3931,-54000,0,254000,619495,
-684,-16328,15512,-22604,-4985,-4002,-54000,0,254000,619497,
-524,-16564,15780,-22473,-4929,-3944,-54000,0,254000,619500,
-96,-17424,16316,-22398,-4493,-3697,-57000,-1000,254000,619512,
-164,-17544,16348,-22328,-4263,-3682,-57000,-1000,254000,619515,
232,-17328,16700,-22280,-4048,-3605,-57000,-1000,254000,619517,
376,-17432,16644,-21826,-2821,-3791,-59000,-1000,254000,619529,
312,-17396,16796,-21635,-2606,-3721,-60000,-1000,254000,619532,
24,-18056,17092,-21008,-1767,-3665,-62000,-2000,254000,619544,
-228,-18264,17292,-20671,-1575,-3556,-62000,-2000,254000,619546,
-300,-18432,17524,-20615,-1484,-3509,-62000,-2000,254000,619549,
-760,-18712,18172,-19413,-733,-2963,-64000,-2000,254000,619561,
-540,-18648,18536,-19150,-696,-2877,-64000,-2000,254000,619564,
-396,-18628,18764,-18828,-647,-2841,-65000,-2000,254000,619566,
-68,-17992,19260,-17510,31,-2899,-66000,-2000,254000,619579,
-96,-17904,19328,-17283,109,-2985,-67000,-2000,254000,619581,
-1264,-18600,19684,-15785,654,-2817,-68000,-3000,254000,619593,
-1164,-18564,19764,-15656,643,-2718,-68000,-3000,254000,619596,
-1340,-18584,19816,-15284,822,-2643,-68000,-3000,254000,619598,
72,-17464,20504,-14035,1563,-2422,-70000,-3000,254000,619610,
124,-17288,20456,-13790,1706,-2485,-70000,-3000,253000,619613,
172,-17016,20648,-13551,1719,-2402,-70000,-3000,253000,619615,
-728,-17144,20592,-12334,2029,-1767,-71000,-3000,253000,619628,
-1052,-17220,20888,-11947,1953,-1616,-71000,-3000,253000,619630,
-732,-16160,20984,-10518,1284,-1452,-72000,-3000,253000,619642,
-752,-16276,21072,-10144,1221,-1330,-72000,-3000,253000,619645,
-616,-15980,20936,-10180,1047,-1287,-72000,-3000,253000,619647,
-648,-15780,20480,-8586,973,-1249,-73000,-3000,253000,619660,
-1240,-16132,20616,-8659,994,-1406,-73000,-3000,253000,619662,
-1428,-16156,21200,-8323,780,-1502,-73000,-3000,253000,619664,
352,-15604,21812,-6782,973,-1726,-73000,-3000,253000,619677,
776,-15336,22032,-6623,959,-1823,-73000,-3000,253000,619679,
720,-15124,21796,-6337,964,-1756,-74000,-3000,253000,619681,
1756,-15104,22108,-5009,1272,-991,-74000,-3000,252000,619694,
1780,-15112,22432,-4556,1439,-817,-74000,-3000,252000,619696,
992,-15400,22680,-2961,1445,-859,-74000,-3000,252000,619709,
624,-15284,22760,-2571,1413,-941,-74000,-3000,252000,619711,
380,-15368,22712,-2320,1312,-1047,-74000,-3000,252000,619713,
-460,-15128,22136,-665,14,-1313,-74000,-4000,252000,619726,
-460,-15164,21872,-258,-121,-1274,-74000,-4000,252000,619728,
-320,-15128,21676,-77,-295,-1305,-74000,-4000,252000,619730,
-372,-15180,21148,1486,-1591,-1211,-73000,-4000,252000,619743,
-460,-15072,21024,1654,-1633,-1216,-73000,-4000,252000,619745,
-496,-15084,21308,2190,-1694,-1191,-73000,-4000,252000,619748,
-736,-15928,20748,3605,-2004,-1266,-73000,-4000,252000,619760,
-776,-15896,20552,3845,-2070,-1299,-72000,-4000,252000,619762,
-712,-15808,20480,4110,-2063,-1260,-72000,-4000,252000,619765,
-548,-15676,20556,5243,-1946,-1181,-72000,-4000,252000,619777,
-488,-15816,20632,5681,-1691,-1105,-72000,-4000,252000,619780,
156,-16544,19576,6872,-779,-302,-71000,-4000,253000,619792,
248,-16672,19492,7282,-459,-182,-71000,-4000,253000,619794,
468,-16612,19188,7380,-259,-76,-70000,-4000,253000,619797,
228,-16608,19008,8773,615,86,-69000,-4000,252000,619809,
52,-16648,18880,8886,710,123,-69000,-4000,252000,619811,
-84,-16716,19048,9228,810,116,-69000,-4000,252000,619814,
-40,-16960,19164,10343,1040,27,-68000,-4000,252000,619826,
-184,-17072,19072,10494,978,-41,-68000,-4000,252000,619829,
-104,-17164,19220,10711,1052,63,-67000,-4000,252000,619831,
20,-17544,18976,11775,746,258,-66000,-4000,252000,619843,
-280,-17584,18772,12132,652,278,-66000,-4000,252000,619846,
-340,-17688,18888,12219,426,380,-66000,-4000,252000,619848,
-460,-17412,18624,13394,-291,722,-64000,-4000,252000,619861,
-480,-17424,18764,13550,-384,778,-64000,-4000,252000,619863,
-396,-17268,18728,13795,-516,780,-64000,-4000,252000,619865,
-96,-17468,18456,14831,-831,752,-62000,-4000,252000,619878,
236,-17572,18268,14889,-904,719,-62000,-4000,252000,619880,
340,-17764,18204,15155,-792,758,-61000,-4000,252000,619883,
700,-18152,17560,16085,-611,1048,-60000,-4000,253000,619895,
648,-18280,17652,16351,-488,1164,-60000,-4000,253000,619897,
584,-18324,17668,16413,-366,1256,-59000,-4000,253000,619900,
504,-18308,17128,17276,17,1386,-58000,-3000,253000,619912,
456,-18336,17032,17531,174,1434,-57000,-3000,253000,619914,
588,-18172,16888,17528,259,1472,-57000,-3000,253000,619917,
1116,-17792,16780,18275,809,1456,-55000,-3000,253000,619929,
964,-17900,16748,18186,842,1436,-55000,-3000,253000,619932,
1156,-17860,16880,18426,1027,1440,-54000,-3000,253000,619934,
1200,-18052,16716,18791,1497,1353,-53000,-3000,253000,619946,
1364,-17900,16552,19016,1614,1319,-52000,-3000,253000,619949,
1236,-17864,16420,18972,1686,1289,-52000,-3000,253000,619951,
928,-17856,15912,19452,2112,1178,-50000,-3000,252000,619964,
940,-17804,15760,19623,2214,1216,-50000,-3000,252000,619966,
648,-17716,15484,19592,2095,1202,-49000,-3000,252000,619968,
-184,-17504,15304,19976,1660,1406,-47000,-2000,252000,619981,
-472,-17424,15152,19840,1467,1427,-47000,-2000,252000,619983,
108,-17404,14876,20011,1017,1372,-45000,-2000,252000,619995,
392,-17248,14880,20006,1028,1371,-45000,-2000,252000,619998,
460,-17152,14868,20026,972,1341,-44000,-2000,252000,620000,
-76,-16484,14952,20197,918,1550,-42000,-2000,252000,620013,
-196,-16100,14964,19998,887,1620,-42000,-2000,253000,620015,
-132,-16188,15148,20149,975,1719,-42000,-2000,253000,620017,
360,-15816,15272,19964,773,1658,-40000,-2000,253000,620030,
376,-15792,15368,20090,742,1591,-40000,-2000,253000,620032,
300,-15688,15316,20004,755,1565,-39000,-2000,253000,620034,
112,-15628,14868,20142,770,1524,-37000,-1000,253000,620047,
100,-15488,14856,20272,818,1588,-37000,-1000,253000,620049,
192,-15276,14936,20204,688,1588,-37000,-1000,253000,620052,
340,-14724,13556,20214,585,1788,-35000,-1000,253000,620064,
292,-14836,16592,20427,982,1785,-34000,-1000,253000,620067,
44,-14424,14328,20464,471,1808,-34000,-1000,253000,620069,
328,-13568,14712,20316,292,1699,-32000,-1000,253000,620081,
356,-13496,14896,20458,241,1684,-32000,-1000,253000,620084,
448,-13528,14784,20346,196,1658,-31000,-1000,253000,620086,
588,-13484,14668,20487,170,1486,-30000,-1000,253000,620098,
568,-13408,14616,20484,276,1549,-29000,-1000,253000,620101,
812,-13344,14436,20503,358,1461,-29000,-1000,253000,620103,
752,-12804,14128,20618,933,1420,-27000,-1000,253000,620115,
868,-12588,14124,20492,1096,1454,-27000,-1000,253000,620118,
680,-12548,13908,20623,1356,1505,-26000,-1000,253000,620120,
400,-11576,13128,20350,1870,1665,-24000,0,253000,620132,
52,-11348,12980,20421,1928,1730,-24000,0,253000,620135,
0,-11144,13004,20189,1952,1837,-24000,0,253000,620137,
340,-10556,13228,19720,1876,2019,-22000,0,253000,620150,
404,-10580,13332,19660,1990,2006,-22000,0,254000,620152,
692,-10492,13420,19583,2047,1903,-21000,0,254000,620154,
1036,-9876,13272,19520,2754,1558,-20000,0,254000,620167,
812,-9912,13072,19361,2719,1581,-19000,0,254000,620169,
704,-9832,12796,19450,2823,1692,-19000,0,254000,620171,
384,-9184,12464,19019,3588,2087,-17000,0,254000,620184,
408,-9088,12196,19057,3537,2036,-17000,0,254000,620186,
276,-9048,12052,18910,3633,2050,-17000,0,254000,620188,
80,-8140,11500,18555,4197,1861,-15000,0,254000,620201,
292,-7948,11412,18611,4350,1908,-15000,0,254000,620203,
248,-7896,11388,18417,4487,1851,-14000,0,254000,620205,
-260,-7252,11068,18070,4547,2014,-13000,1000,254000,620218,
-260,-7160,11092,17798,4512,2060,-12000,1000,254000,620220,
-244,-7044,11020,17851,4568,2082,-12000,1000,254000,620222,
860,-5912,11196,17324,4857,2225,-11000,2000,254000,620235,
808,-5772,11128,17341,4851,2200,-10000,2000,254000,620237,
904,-5852,10972,17213,4847,2186,-10000,2000,254000,620239,
-228,-4776,10432,16753,5362,2494,-8000,2000,254000,620252,
-344,-4668,10272,16711,5346,2587,-8000,2000,254000,620254,
-404,-4608,10096,16477,5225,2621,-8000,2000,254000,620256,
-796,-3956,9332,15809,4547,2605,-7000,3000,254000,620269,
-1024,-3880,9688,15515,4324,2619,-6000,3000,254000,620271,
-836,-3724,9792,15519,4210,2562,-6000,3000,255000,620274,
828,-2088,10696,14514,3455,2000,-5000,3000,255000,620286,
1060,-1844,10796,14439,3468,1813,-4000,3000,255000,620288,
1144,-1564,10736,14201,3407,1773,-4000,3000,255000,620291,
724,-680,10356,13488,3931,1473,-3000,4000,255000,620303,
372,-688,9916,13356,4010,1575,-3000,4000,255000,620305,
-152,-660,9912,13113,4063,1572,-2000,4000,255000,620308,
-900,-1320,9504,12414,4143,1635,-1000,4000,255000,620320,
-992,-1276,9288,12068,3887,1485,-1000,4000,255000,620322,
-1120,-1436,9212,12057,3833,1401,-1000,4000,255000,620325,
-1244,-924,9060,11185,3109,848,0,5000,255000,620337,
-1512,-660,8868,11151,3016,805,0,5000,255000,620339,
-1460,-384,8780,10853,2912,820,0,5000,255000,620342,
-1424,-352,8844,10734,2872,856,0,5000,255000,620344,
-1324,440,8784,9972,2424,1452,1000,5000,255000,620356,
-1592,612,8608,9757,2263,1552,1000,5000,255000,620359,
-1524,680,8740,9635,2241,1727,1000,5000,255000,620361,
-1256,1220,8980,8752,1732,2313,2000,5000,256000,620374,
-1180,1364,8716,8749,1353,2360,2000,5000,256000,620376,
-1064,1536,8412,8419,1262,2411,2000,6000,256000,620378,
-1136,1752,9436,8058,32,2699,3000,6000,256000,620391,
-1932,2096,9568,7858,-461,2766,3000,5000,256000,620393,
-1528,1876,9736,7838,-161,2773,4000,5000,256000,620395,
-1280,2440,9700,7334,-85,2853,4000,5000,256000,620408,
-1152,2584,9148,7082,-335,2822,4000,5000,256000,620410,
-1168,2576,9352,7111,-313,2851,5000,5000,256000,620412,
-1156,2984,9472,6500,-672,3037,5000,5000,257000,620425,
-1264,2992,9308,6582,-820,3047,5000,5000,257000,620427,
-1256,3124,9452,6368,-1034,3035,6000,5000,257000,620429,
-1208,3560,8784,5892,-1393,2879,6000,5000,257000,620442,
-1236,3604,8828,5617,-1515,2836,6000,5000,257000,620444,
-1404,3760,8904,5601,-1576,2809,7000,5000,257000,620446,
-308,4196,9572,4751,-1524,2727,7000,5000,257000,620459,
28,4296,9512,4632,-1494,2660,7000,5000,257000,620461,
320,4408,9528,4527,-1350,2661,7000,5000,258000,620463,
1176,4856,10124,4057,-20,2264,8000,5000,258000,620476,
1228,4716,10000,4148,364,2276,8000,5000,258000,620478,
1064,4696,10004,3986,561,2207,8000,5000,258000,620480,
-212,4444,10100,3908,1539,2233,8000,5000,258000,620493,
-392,4432,10108,3729,1582,2263,9000,5000,258000,620495,
-528,4484,10196,3830,1666,2340,9000,5000,258000,620497,
-1328,5152,10196,3270,1370,2492,9000,5000,258000,620510,
-1536,5360,10180,3229,1217,2437,9000,5000,258000,620512,
-1632,5460,10240,3048,995,2416,9000,5000,259000,620514,
-1304,6276,10952,2224,-185,2167,10000,5000,259000,620527,
-980,6328,11356,2161,-311,2165,10000,5000,259000,620529,
-792,6256,11400,1992,-560,2051,10000,5000,259000,620531,
-92,5584,11992,1703,-830,1934,10000,5000,259000,620544,
-60,5504,12196,1493,-803,1925,10000,5000,259000,620546,
-4,5388,12060,1623,-612,1955,10000,5000,259000,620548,
92,4896,11940,1575,74,1884,10000,5000,259000,620561,
380,4852,11780,1677,173,1860,10000,5000,259000,620563,
300,4856,11624,1605,265,1853,10000,5000,259000,620565,
268,4912,11636,1730,411,1841,10000,5000,259000,620567,
-508,5504,11172,1496,1262,1958,11000,5000,260000,620580,
-484,5808,11168,1418,1263,1958,11000,5000,260000,620582,
-472,5916,11332,1429,1396,2039,11000,5000,260000,620585,
-432,6500,11732,1059,1027,2200,11000,5000,260000,620597,
-420,6592,11908,1100,959,2281,11000,5000,260000,620599,
-524,6660,12188,888,811,2235,11000,5000,260000,620602,
-108,6704,13096,486,210,2105,11000,5000,260000,620614,
172,6632,13188,265,47,1969,11000,5000,260000,620616,
212,6596,13768,357,8,1914,11000,5000,260000,620619,
328,6416,13592,167,-161,1749,11000,5000,260000,620621,
248,5820,13984,22,-330,1194,11000,5000,260000,620633,
-12,5792,13856,-114,-433,1135,11000,5000,260000,620636,
-104,5660,13976,7,-459,1086,11000,5000,260000,620638,
-452,5704,14148,-303,-598,839,12000,4000,261000,620650,
-312,5824,14244,-295,-610,692,12000,4000,261000,620653,
-316,5880,14364,-359,-573,654,12000,4000,261000,620655,
308,6048,14144,-495,-88,26,12000,4000,261000,620667,
544,6052,14008,-433,132,6,12000,4000,261000,620670,
500,5844,13904,-543,262,-97,12000,4000,261000,620672,
504,5800,13940,-483,511,-74,12000,4000,261000,620674,
40,5484,13556,-607,1231,126,12000,4000,261000,620687,
112,5492,13396,-481,1335,201,12000,4000,261000,620689,
40,5632,13276,-614,1376,315,12000,4000,261000,620691,
-584,6032,13632,-674,1754,593,12000,5000,261000,620704,
-708,6044,13668,-691,1722,631,12000,5000,261000,620706,
-980,6176,13712,-723,1655,607,12000,5000,261000,620708,
-1820,6052,14444,-1019,931,403,12000,5000,261000,620721,
-1664,5984,14660,-1194,640,318,12000,5000,261000,620723,
-1616,6032,14756,-1157,454,305,12000,5000,261000,620725,
-960,5576,15276,-1462,-608,-53,11000,5000,261000,620738,
-1092,5544,15316,-1337,-568,-105,11000,5000,261000,620740,
-984,5416,15292,-1472,-671,-165,11000,5000,261000,620742,
-488,5660,15176,-1270,-465,-255,11000,5000,261000,620755,
-360,5772,15308,-1276,-412,-204,11000,5000,261000,620757,
-432,5820,15452,-1256,-344,-223,11000,5000,261000,620759,
-12,6032,15344,-1121,416,-250,11000,5000,261000,620772,
-92,6036,15300,-1196,483,-361,11000,5000,261000,620774,
-188,5908,15056,-1072,680,-386,11000,5000,261000,620777,
-1092,5348,14848,-1120,1092,-408,11000,5000,261000,620789,
-1144,5396,14692,-985,1120,-367,11000,5000,261000,620791,
-1364,5280,14624,-1129,1050,-327,11000,5000,261000,620794,
-1276,5588,14912,-1077,1008,-71,11000,5000,261000,620806,
-1184,5684,15036,-1089,1013,1,11000,5000,261000,620808,
-964,5892,15376,-1060,1014,-44,11000,5000,261000,620811,
-732,5872,15728,-1033,1227,-102,11000,5000,261000,620823,
-756,5796,15792,-1154,1141,-136,11000,5000,261000,620825,
-820,5712,15764,-1022,1198,-104,11000,5000,261000,620828,
-988,5488,15716,-954,1035,-205,11000,5000,261000,620840,
-952,5608,15688,-812,1115,-208,11000,5000,261000,620842,
-1132,5528,15492,-907,1105,-215,11000,5000,261000,620845,
-1460,5916,15516,-733,1099,-281,11000,5000,261000,620857,
-1728,6012,15680,-729,1042,-211,11000,5000,261000,620859,
-1596,6152,15848,-687,932,-224,11000,5000,261000,620862,
-1468,6464,15816,-621,620,-255,11000,5000,261000,620874,
-1144,6412,15776,-751,578,-313,11000,5000,261000,620877,
-1292,6296,15692,-586,571,-299,11000,5000,261000,620879,
-1728,5536,15348,-632,467,-215,11000,5000,261000,620891,
-1520,5652,15344,-494,472,-187,11000,5000,261000,620894,
-1448,5532,15336,-567,401,-147,11000,5000,261000,620896,
-1404,5672,15172,-385,436,-109,11000,5000,261000,620908,
-1308,5688,15300,-306,537,-67,11000,5000,261000,620911,
-1480,5676,15180,-306,553,-108,11000,5000,261000,620913,
-1852,5740,14964,-195,933,7,11000,6000,261000,620925,
-1796,5876,14772,-335,812,-2,11000,6000,261000,620928,
-1756,5924,14924,-219,820,97,11000,6000,261000,620930,
-1660,6428,14944,-428,458,379,11000,6000,261000,620942,
-1840,6256,15112,-394,394,379,11000,6000,261000,620945,
-1632,6192,15136,-478,365,355,11000,6000,261000,620947,
-1860,5716,14976,-584,310,177,11000,6000,261000,620959,
-1676,5568,15040,-550,357,196,11000,6000,261000,620962,
-1536,5692,15196,-594,343,159,11000,6000,261000,620964,
-1244,5932,15296,-381,261,242,11000,6000,261000,620976,
-1212,6024,15144,-543,276,257,11000,6000,261000,620979,
-1248,6020,15316,-368,406,248,11000,6000,261000,620981,
-1192,5940,14908,-451,711,125,11000,6000,261000,620993,
-1184,5864,14708,-299,816,66,11000,6000,261000,620996,
-1260,5820,14640,-422,765,61,11000,6000,261000,620998,
-1828,6200,15232,-515,296,-51,11000,6000,261000,621010,
-1776,6404,15120,-591,170,7,11000,6000,261000,621013,
-1784,6468,15392,-553,81,-52,11000,6000,261000,621015,
-1232,6488,15344,-785,-43,-319,11000,6000,261000,621027,
-1360,6372,15444,-873,-91,-404,11000,6000,261000,621030,
-1388,6144,15456,-763,-38,-399,11000,6000,261000,621032,
-1924,5316,15080,-878,-205,-292,11000,6000,261000,621044,
-1796,5276,15124,-748,-130,-223,11000,6000,261000,621047,
-1564,5288,15224,-858,-230,-229,11000,6000,261000,621049,
-944,5700,15120,-456,363,-318,11000,6000,261000,621061,
-860,5912,15008,-500,562,-261,11000,6000,261000,621064,
-932,5940,14840,-367,786,-290,11000,6000,261000,621066,
-1672,5560,14048,-245,1626,-33,11000,6000,261000,621078,
-1440,5520,14100,-326,1696,-4,11000,6000,261000,621081,
-1468,5444,14228,-240,1819,65,11000,6000,261000,621083,
-1580,6184,14560,-239,1596,149,11000,6000,261000,621095,
-1676,6352,14652,-125,1684,169,11000,6000,261000,621098,
-1716,6352,14796,-299,1595,181,11000,6000,261000,621100,
-2016,6232,14844,-429,1194,89,11000,6000,261000,621112,
-2300,5868,14696,-553,1073,108,11000,6000,261000,621115,
-2184,5756,14596,-542,934,24,11000,6000,261000,621117,
-1844,5404,14884,-681,316,-135,11000,6000,261000,621129,
-1692,5628,14720,-813,129,-159,11000,6000,261000,621132,
-1696,5688,14852,-712,127,-132,11000,6000,261000,621134,
-1536,6192,15060,-982,175,-95,11000,6000,261000,621146,
-1484,6188,15064,-858,256,-141,11000,6000,261000,621149,
-1416,6224,14828,-1001,246,-196,11000,6000,261000,621151,
-1544,5512,14784,-948,419,-372,11000,6000,261000,621163,
-1560,5476,14628,-965,470,-368,11000,6000,261000,621166,
-1832,5436,14632,-922,477,-428,11000,6000,261000,621168,
-1708,5468,14452,-894,705,-337,11000,7000,261000,621180,
-1524,5476,14624,-961,724,-388,11000,7000,261000,621183,
-1532,5516,14620,-877,821,-337,11000,7000,261000,621185,
-1724,5384,14484,-876,1134,-160,11000,7000,261000,621197,
-1944,5372,14396,-707,1166,-97,11000,7000,261000,621200,
-1836,5584,14568,-804,998,-24,11000,7000,261000,621202,
-2176,6584,14908,-869,567,502,11000,7000,261000,621214,
-2156,6684,14876,-992,441,551,11000,7000,261000,621217,
-2008,6648,15120,-917,389,523,11000,7000,261000,621219,
-1960,6012,15364,-1160,-261,149,11000,7000,261000,621231,
-1960,5824,15328,-1149,-401,14,11000,7000,261000,621234,
-1876,5804,15244,-1217,-455,-28,11000,7000,261000,621236,
-1472,5300,15456,-1153,-315,-161,11000,7000,261000,621249,
-1288,5296,15332,-969,-136,-111,11000,7000,261000,621251,
-1336,5280,15320,-1051,-82,-107,11000,7000,261000,621253,
-1144,5668,14924,-695,1023,-114,11000,7000,261000,621266,
-1180,5852,14948,-772,1092,-113,11000,7000,261000,621268,
