Ax,Ay,Az,Gx,Gy,Gz,Roll,Pitch,Yaw,Timestamp,Target
-5672,-3332,14184,-444,-127,-417,-21000,21000,160000,1137190,
-5504,-3348,14164,-397,-131,-435,-21000,21000,160000,1137203,
-5636,-3484,14060,-375,-194,-440,-21000,21000,159000,1137205,
-5496,-3284,14152,-369,-110,-433,-21000,21000,159000,1137208,
-5436,-3324,14152,-286,-104,-422,-21000,21000,159000,1137220,
-5464,-3380,14124,-298,-29,-418,-21000,21000,159000,1137222,
-5392,-3308,14372,-298,-57,-402,-21000,21000,159000,1137225,
-5400,-3296,14280,-246,77,-411,-21000,21000,159000,1137237,
-5532,-3408,14404,-237,99,-410,-21000,21000,159000,1137240,
-5456,-3380,14308,-229,143,-383,-21000,21000,159000,1137242,
-5472,-3440,14324,-168,150,-405,-21000,21000,159000,1137255,
-5628,-3388,14416,-206,142,-426,-21000,21000,159000,1137257,
-5496,-3448,14400,-149,135,-386,-21000,21000,159000,1137259,
-5436,-3464,14448,-174,218,-419,-20000,21000,159000,1137272,
-5420,-3372,14348,-123,138,-433,-20000,21000,159000,1137274,
-5560,-3372,14452,-137,222,-402,-20000,21000,159000,1137276,
-5480,-3348,14304,-158,191,-416,-20000,21000,159000,1137289,
-5516,-3352,14476,-149,255,-399,-20000,21000,159000,1137291,
-5408,-3360,14300,-181,208,-408,-20000,21000,159000,1137294,
-5576,-3276,14360,-148,225,-400,-20000,21000,159000,1137306,
-5548,-3232,14336,-176,162,-408,-20000,21000,159000,1137309,
-5556,-3280,14412,-176,199,-404,-20000,21000,159000,1137311,
-5536,-3192,14300,-168,156,-390,-20000,21000,159000,1137324,
-5520,-3180,14436,-173,159,-398,-20000,21000,159000,1137326,
-5508,-3344,14432,-193,144,-420,-20000,21000,159000,1137338,
-5664,-3260,14384,-206,107,-421,-20000,21000,159000,1137341,
-5616,-3292,14532,-212,181,-381,-20000,21000,159000,1137343,
-5604,-3348,14340,-264,86,-418,-20000,21000,159000,1137356,
-5564,-3232,14384,-229,24,-439,-20000,21000,159000,1137358,
-5612,-3220,14400,-268,38,-454,-20000,21000,159000,1137360,
-5596,-3276,14436,-236,-26,-456,-20000,21000,159000,1137373,
-5568,-3288,14244,-317,-92,-435,-20000,21000,159000,1137375,
-5564,-3372,14436,-242,-71,-417,-20000,21000,159000,1137377,
-5364,-3360,14468,-309,-116,-415,-20000,21000,159000,1137390,
-5424,-3260,14480,-269,-130,-429,-20000,21000,159000,1137392,
-5416,-3388,14396,-293,-85,-442,-20000,21000,159000,1137394,
-5548,-3256,14536,-291,-28,-470,-20000,21000,159000,1137407,
-5472,-3236,14544,-331,-60,-414,-20000,21000,159000,1137409,
-5392,-3192,14512,-282,16,-423,-20000,21000,159000,1137412,
-5388,-3244,14560,-365,6,-420,-20000,21000,159000,1137424,
-5476,-3292,14448,-321,40,-416,-20000,21000,159000,1137427,
-5444,-3268,14484,-386,2,-414,-20000,21000,159000,1137429,
-5488,-3284,14388,-341,30,-406,-20000,21000,159000,1137441,
-5456,-3224,14508,-398,-31,-407,-20000,21000,159000,1137444,
-5496,-3252,14400,-339,-9,-418,-20000,21000,159000,1137446,
-5284,-3272,14604,-409,-72,-393,-20000,21000,159000,1137458,
-5384,-3284,14388,-359,-6,-382,-20000,21000,159000,1137461,
-5428,-3288,14416,-413,-58,-403,-20000,21000,159000,1137463,
-5364,-3288,14428,-358,8,-358,-20000,21000,159000,1137475,
-5516,-3224,14520,-402,2,-349,-20000,21000,159000,1137478,
-5412,-3292,14484,-351,-11,-374,-20000,21000,159000,1137480,
-5416,-3292,14360,-370,100,-316,-20000,21000,159000,1137492,
-5344,-3380,14528,-353,75,-302,-20000,21000,159000,1137495,
-5428,-3312,14472,-348,174,-302,-20000,21000,159000,1137497,
-5468,-3248,14496,-372,146,-309,-20000,21000,159000,1137510,
-5412,-3304,14440,-338,211,-317,-20000,21000,159000,1137512,
-5468,-3352,14408,-385,115,-324,-20000,21000,159000,1137525,
-5452,-3280,14272,-327,140,-324,-20000,21000,159000,1137527,
-5468,-3188,14236,-365,110,-301,-20000,21000,159000,1137529,
-5400,-3232,14264,-295,151,-313,-20000,21000,159000,1137542,
-5360,-3360,14320,-330,88,-316,-20000,21000,159000,1137544,
-5432,-3384,14316,-290,121,-320,-20000,21000,159000,1137547,
-5364,-3284,14444,-304,83,-308,-20000,21000,159000,1137559,
-5428,-3240,14260,-256,94,-310,-20000,21000,159000,1137561,
-5396,-3316,14460,-287,86,-305,-20000,21000,159000,1137564,
-5408,-3352,14476,-248,162,-313,-20000,21000,159000,1137576,
-5364,-3260,14520,-249,91,-298,-20000,21000,159000,1137579,
-5468,-3328,14308,-189,135,-299,-20000,21000,159000,1137581,
-5412,-3172,14572,-275,133,-323,-20000,21000,159000,1137594,
-5448,-3256,14604,-219,164,-333,-20000,21000,159000,1137596,
-5496,-3184,14412,-274,150,-352,-20000,21000,159000,1137598,
-5516,-3220,14432,-275,154,-313,-20000,21000,159000,1137611,
-5512,-3248,14412,-326,56,-331,-20000,21000,159000,1137613,
-5388,-3208,14616,-278,112,-350,-20000,21000,159000,1137615,
-5440,-3156,14516,-384,-40,-349,-20000,20000,159000,1137628,
-5376,-3172,14620,-327,-20,-375,-20000,20000,159000,1137630,
-5432,-3236,14332,-395,-38,-383,-20000,20000,159000,1137633,
-5420,-3200,14508,-381,-48,-392,-20000,20000,159000,1137645,
-5352,-3180,14320,-459,-64,-401,-20000,20000,159000,1137648,
-5496,-3140,14392,-392,-47,-383,-20000,20000,159000,1137650,
-5512,-3148,14496,-449,-112,-407,-20000,20000,159000,1137663,
-5512,-3160,14448,-435,-126,-423,-20000,20000,159000,1137665,
-5392,-3216,14472,-472,-116,-395,-20000,20000,159000,1137667,
-5524,-3308,14468,-466,-240,-402,-20000,20000,159000,1137680,
-5540,-3212,14328,-461,-132,-395,-20000,20000,159000,1137682,
-5496,-3296,14248,-473,-239,-401,-20000,20000,159000,1137684,
-5476,-3268,14392,-409,-145,-363,-20000,20000,159000,1137697,
-5328,-3272,14584,-483,-173,-412,-20000,20000,159000,1137699,
-5320,-3280,14476,-393,20,-340,-20000,20000,159000,1137712,
-5368,-3292,14476,-444,-35,-380,-20000,20000,159000,1137714,
-5380,-3152,14468,-376,35,-339,-20000,20000,159000,1137716,
-5424,-3216,14372,-386,83,-365,-20000,20000,159000,1137729,
-5460,-3340,14352,-340,138,-323,-20000,20000,159000,1137731,
-5356,-3336,14392,-371,127,-366,-20000,20000,159000,1137734,
-5428,-3252,14512,-301,180,-369,-20000,20000,159000,1137746,
-5448,-3340,14244,-331,138,-337,-20000,20000,159000,1137748,
-5480,-3172,14472,-294,150,-379,-20000,20000,159000,1137751,
-5580,-3324,14332,-316,82,-347,-20000,20000,159000,1137763,
-5564,-3176,14448,-265,73,-367,-20000,20000,159000,1137765,
-5404,-3248,14396,-295,97,-376,-20000,20000,159000,1137768,
-5440,-3324,14332,-267,91,-383,-20000,20000,159000,1137780,
-5436,-3300,14456,-275,112,-398,-20000,20000,159000,1137782,
-5488,-3284,14356,-278,72,-379,-20000,20000,159000,1137785,
-5300,-3204,14428,-263,139,-427,-20000,20000,159000,1137797,
-5380,-3172,14468,-325,73,-414,-20000,20000,159000,1137799,
-5352,-3116,14376,-258,134,-419,-20000,20000,159000,1137802,
-5412,-3176,14292,-323,29,-395,-20000,20000,159000,1137814,
-5248,-3168,14392,-275,123,-407,-20000,20000,159000,1137817,
-5308,-3136,14308,-344,72,-409,-20000,20000,158000,1137819,
-5324,-3288,14444,-280,14,-434,-20000,20000,158000,1137832,
-5276,-3332,14376,-316,32,-432,-20000,20000,158000,1137834,
-5420,-3336,14296,-259,-7,-442,-20000,20000,158000,1137836,
-5376,-3224,14224,-284,-32,-413,-20000,20000,158000,1137849,
-5300,-3252,14232,-288,-94,-406,-20000,20000,158000,1137851,
-5336,-3236,14320,-279,29,-436,-20000,20000,158000,1137853,
-5312,-3196,14340,-234,-8,-444,-20000,20000,158000,1137866,
-5444,-3216,14272,-254,30,-438,-20000,20000,158000,1137868,
-5416,-3300,14344,-225,-42,-413,-20000,20000,158000,1137871,
-5272,-3324,14316,-223,26,-450,-20000,20000,158000,1137883,
-5264,-3128,14328,-202,9,-445,-20000,20000,158000,1137885,
-5232,-3292,14432,-192,43,-442,-20000,20000,158000,1137888,
-5312,-3192,14308,-169,19,-449,-20000,20000,158000,1137900,
-5380,-3308,14320,-219,69,-440,-20000,20000,158000,1137903,
-5284,-3208,14444,-153,34,-406,-20000,20000,158000,1137905,
-5300,-3296,14388,-195,17,-417,-20000,20000,158000,1137918,
-5372,-3304,14484,-172,19,-400,-20000,20000,158000,1137920,
-5320,-3340,14424,-174,43,-422,-20000,20000,158000,1137922,
-5264,-3292,14544,-177,34,-406,-20000,20000,158000,1137935,
-5220,-3180,14324,-165,-18,-394,-20000,20000,158000,1137937,
-5340,-3220,14604,-147,65,-402,-20000,20000,158000,1137940,
-5336,-3200,14520,-197,8,-400,-20000,20000,158000,1137952,
-5252,-3316,14560,-169,95,-398,-20000,20000,158000,1137954,
-5336,-3256,14660,-190,6,-367,-20000,20000,158000,1137957,
-5304,-3312,14524,-165,64,-385,-20000,20000,158000,1137969,
-5356,-3268,14444,-216,-19,-381,-20000,20000,158000,1137972,
-5384,-3276,14572,-165,92,-359,-20000,20000,158000,1137974,
-5384,-3172,14324,-258,-61,-399,-20000,20000,158000,1137986,
-5412,-3224,14408,-217,-16,-397,-20000,20000,158000,1137989,
-5412,-3160,14580,-275,-78,-412,-20000,20000,158000,1137991,
-5500,-3140,14548,-288,-153,-407,-20000,20000,158000,1138004,
-5464,-3296,14444,-330,-216,-422,-20000,20000,158000,1138006,
-5456,-3104,14460,-298,-215,-427,-20000,20000,158000,1138008,
-5360,-3132,14404,-359,-343,-406,-20000,20000,158000,1138021,
-5404,-3092,14460,-378,-315,-414,-20000,20000,158000,1138023,
-5516,-3072,14364,-471,-523,-438,-20000,20000,158000,1138035,
-5372,-3072,14512,-459,-527,-450,-20000,20000,158000,1138038,
-5456,-3136,14392,-486,-557,-442,-20000,20000,158000,1138040,
-5452,-3216,14448,-504,-725,-436,-20000,20000,158000,1138053,
-5396,-3204,14184,-535,-751,-470,-20000,20000,158000,1138055,
-5440,-3108,14376,-531,-806,-477,-20000,20000,158000,1138057,
-5356,-3176,14404,-556,-891,-540,-20000,20000,158000,1138070,
-5368,-3280,14268,-525,-941,-509,-20000,20000,158000,1138072,
-5284,-3236,14404,-575,-956,-504,-20000,20000,158000,1138074,
-5152,-3360,14708,-506,-859,-565,-20000,20000,158000,1138087,
-5208,-3268,14628,-554,-929,-570,-20000,19000,158000,1138089,
-5148,-3260,14724,-548,-723,-609,-20000,19000,158000,1138101,
-5216,-3276,14784,-548,-795,-536,-20000,19000,158000,1138104,
-5200,-3276,14752,-515,-716,-573,-20000,19000,158000,1138106,
-5176,-3244,14720,-548,-757,-578,-20000,19000,158000,1138119,
-5152,-3444,14624,-501,-688,-604,-20000,19000,158000,1138121,
-5196,-3404,14808,-561,-733,-630,-20000,19000,158000,1138123,
-5152,-3520,14696,-490,-606,-620,-20000,19000,158000,1138136,
-5068,-3320,14724,-549,-694,-644,-20000,19000,158000,1138138,
-5076,-3292,14732,-492,-615,-646,-20000,19000,158000,1138141,
-5040,-3268,14724,-470,-574,-644,-20000,19000,158000,1138153,
-5080,-3484,14764,-512,-558,-661,-20000,19000,158000,1138156,
-5032,-3316,14764,-478,-500,-667,-20000,19000,158000,1138158,
-5032,-3324,14844,-474,-393,-658,-20000,19000,158000,1138171,
-4892,-3308,14740,-468,-449,-665,-20000,19000,158000,1138173,
-5048,-3312,14768,-483,-422,-692,-20000,19000,158000,1138175,
-4932,-3272,14704,-413,-352,-672,-20000,19000,158000,1138188,
-4984,-3284,14808,-466,-442,-645,-20000,19000,158000,1138190,
-4884,-3320,14656,-359,-297,-597,-20000,19000,158000,1138203,
-4904,-3236,14668,-411,-272,-606,-20000,19000,158000,1138205,
-4884,-3256,14628,-363,-243,-559,-20000,19000,158000,1138208,
-4780,-3296,14708,-371,-150,-545,-20000,19000,158000,1138220,
-4652,-3244,14668,-296,-112,-529,-20000,19000,158000,1138222,
-4696,-3212,14772,-328,-97,-523,-20000,19000,158000,1138225,
-4672,-3376,14572,-247,-8,-445,-20000,19000,158000,1138237,
-4752,-3376,14664,-242,77,-449,-20000,19000,158000,1138239,
-4724,-3360,14476,-266,-2,-450,-20000,19000,158000,1138242,
-4744,-3352,14528,-173,259,-426,-20000,19000,158000,1138254,
-4696,-3288,14512,-185,203,-398,-20000,19000,158000,1138257,
-4692,-3328,14472,-126,266,-428,-20000,19000,158000,1138259,
-4700,-3320,14672,-86,378,-402,-20000,19000,158000,1138272,
-4780,-3272,14596,-22,431,-386,-20000,19000,158000,1138274,
-4852,-3304,14608,-97,373,-393,-20000,19000,158000,1138276,
-4764,-3312,14512,47,545,-378,-20000,19000,158000,1138289,
-4788,-3200,14444,26,484,-357,-20000,19000,158000,1138291,
-4872,-3236,14588,44,534,-374,-20000,19000,158000,1138293,
-4804,-3180,14556,90,623,-354,-20000,19000,158000,1138306,
-4852,-3192,14736,73,570,-350,-20000,19000,158000,1138308,
-4940,-3196,14588,98,654,-366,-20000,19000,158000,1138310,
-4920,-3164,14560,37,550,-309,-20000,19000,158000,1138323,
-5016,-3124,14560,113,583,-292,-20000,19000,158000,1138325,
-4992,-3148,14664,49,522,-316,-20000,19000,158000,1138328,
-5024,-3120,14924,39,429,-285,-20000,19000,158000,1138340,
-5024,-3180,14660,-34,319,-297,-20000,19000,158000,1138343,
-5016,-3108,14824,15,382,-246,-20000,19000,158000,1138345,
-4992,-3112,14792,-121,268,-276,-20000,19000,158000,1138357,
-4988,-3112,14872,-136,184,-268,-20000,19000,158000,1138359,
-5104,-3080,14792,-144,217,-253,-20000,19000,158000,1138362,
-5004,-3052,14800,-322,84,-263,-20000,19000,158000,1138374,
-5116,-3052,14876,-294,91,-261,-20000,19000,158000,1138376,
-4964,-3076,14852,-352,12,-277,-20000,19000,158000,1138379,
-5068,-3196,14908,-453,41,-289,-20000,19000,158000,1138391,
-5140,-3096,14904,-519,-89,-302,-20000,19000,158000,1138393,
-5108,-3208,14892,-470,-31,-281,-20000,19000,158000,1138396,
-5024,-3244,14868,-591,-171,-335,-20000,19000,157000,1138408,
-5176,-3164,14896,-556,-140,-315,-20000,19000,157000,1138410,
-5124,-3308,14924,-645,-221,-387,-20000,19000,157000,1138423,
-5040,-3320,14768,-572,-193,-364,-20000,19000,157000,1138425,
-4984,-3384,14916,-648,-196,-362,-20000,19000,157000,1138427,
-4928,-3292,14764,-613,-95,-354,-20000,19000,157000,1138440,
-4936,-3300,14988,-666,-68,-354,-20000,19000,157000,1138442,
-5000,-3152,14900,-625,-74,-324,-20000,19000,157000,1138445,
-4884,-3260,14912,-699,-6,-340,-20000,19000,157000,1138457,
-4960,-3252,14736,-650,-10,-307,-20000,19000,157000,1138460,
-4904,-3284,14816,-668,10,-320,-20000,19000,157000,1138462,
-5004,-3268,14680,-643,-26,-297,-20000,19000,157000,1138474,
-4896,-3312,14732,-649,-76,-322,-20000,19000,157000,1138477,
-4876,-3180,14668,-598,-31,-329,-20000,19000,157000,1138479,
-4768,-3292,14684,-623,71,-294,-20000,19000,157000,1138492,
-4736,-3276,14576,-562,56,-282,-20000,19000,157000,1138494,
-4860,-3296,14648,-584,154,-283,-20000,19000,157000,1138496,
-4780,-3296,14628,-508,252,-286,-20000,19000,157000,1138509,
-4768,-3308,14676,-538,216,-278,-20000,19000,157000,1138511,
-4696,-3272,14552,-461,284,-224,-20000,19000,157000,1138513,
-4932,-3280,14484,-471,271,-213,-20000,19000,157000,1138526,
-4884,-3264,14612,-403,340,-205,-20000,19000,157000,1138528,
-4868,-3316,14560,-476,305,-188,-20000,19000,157000,1138531,
-4972,-3276,14528,-367,297,-151,-20000,19000,157000,1138543,
-4908,-3252,14472,-400,307,-143,-20000,19000,157000,1138545,
-4892,-3208,14572,-369,295,-140,-20000,19000,157000,1138548,
-4928,-3304,14596,-372,311,-147,-20000,19000,157000,1138560,
-5016,-3232,14600,-409,270,-105,-20000,19000,157000,1138563,
-4892,-3276,14480,-416,293,-134,-20000,19000,157000,1138565,
-4996,-3224,14352,-457,161,-182,-20000,19000,157000,1138578,
-4976,-3188,14484,-456,218,-194,-20000,19000,157000,1138580,
-5168,-3200,14412,-515,129,-253,-20000,19000,157000,1138593,
-5108,-3184,14308,-555,135,-266,-20000,19000,157000,1138595,
-5192,-3212,14472,-533,102,-255,-20000,19000,157000,1138597,
-5160,-3300,14464,-568,-71,-265,-20000,19000,157000,1138610,
-5000,-3204,14200,-587,-92,-304,-20000,19000,157000,1138612,
-5152,-3192,14324,-578,-136,-293,-20000,19000,157000,1138615,
-5220,-3180,14256,-635,-272,-315,-20000,19000,157000,1138627,
-5116,-3136,14320,-587,-321,-359,-20000,19000,157000,1138629,
-5072,-3188,14184,-642,-294,-334,-20000,19000,157000,1138632,
-5104,-3184,14160,-565,-470,-399,-20000,19000,157000,1138644,
-5180,-3268,14100,-617,-558,-412,-20000,19000,157000,1138646,
-5108,-3184,14164,-554,-477,-430,-20000,19000,157000,1138649,
-5028,-3284,14032,-540,-558,-496,-20000,19000,157000,1138661,
-4900,-3152,14036,-455,-478,-497,-20000,19000,157000,1138663,
-5000,-3296,13956,-427,-416,-550,-20000,18000,157000,1138676,
-5048,-3300,13996,-360,-443,-512,-20000,18000,157000,1138678,
-4992,-3280,14076,-341,-373,-549,-20000,18000,157000,1138680,
-5000,-3352,14000,-210,-326,-553,-20000,18000,157000,1138693,
-5144,-3428,14056,-121,-250,-560,-20000,18000,157000,1138695,
-5156,-3364,14060,-144,-275,-572,-20000,18000,157000,1138697,
-5092,-3356,13904,70,-59,-611,-20000,18000,157000,1138710,
-5032,-3380,14044,109,-57,-595,-20000,18000,157000,1138712,
-5024,-3348,14040,130,11,-603,-20000,18000,157000,1138715,
-5224,-3388,14032,253,180,-631,-20000,18000,157000,1138727,
-5336,-3296,14044,290,101,-678,-20000,18000,157000,1138729,
-5356,-3280,14264,314,182,-700,-20000,18000,157000,1138732,
-5444,-3332,14232,402,107,-761,-20000,18000,157000,1138744,
-5568,-3388,14312,441,171,-798,-20000,18000,157000,1138746,
-5532,-3356,14276,397,83,-801,-20000,18000,157000,1138749,
-5660,-3352,14408,507,81,-921,-20000,18000,157000,1138761,
-5736,-3448,14492,466,37,-965,-20000,18000,157000,1138763,
-5700,-3344,14432,520,-14,-1003,-20000,18000,157000,1138766,
-5840,-3364,14648,549,-47,-1208,-20000,18000,157000,1138778,
-5880,-3372,14884,519,-125,-1216,-20000,18000,157000,1138780,
-5908,-3316,14836,555,-101,-1250,-20000,18000,157000,1138783,
-5852,-3388,14980,498,-253,-1486,-20000,18000,157000,1138795,
-5912,-3336,15052,526,-240,-1569,-20000,18000,157000,1138798,
-5952,-3400,15108,542,-326,-1777,-20000,18000,156000,1138810,
-5920,-3416,15296,541,-260,-1845,-20000,18000,156000,1138813,
-5944,-3432,15356,547,-321,-1885,-20000,18000,156000,1138815,
-5888,-3540,15504,496,-221,-2096,-20000,18000,156000,1138828,
-5804,-3456,15628,503,-200,-2182,-19000,18000,156000,1138830,
-5868,-3484,15604,511,-195,-2201,-19000,18000,156000,1138832,
-5820,-3412,15852,472,-170,-2417,-19000,18000,156000,1138845,
-5748,-3428,15784,506,-111,-2455,-19000,18000,156000,1138847,
-5820,-3448,15760,446,-117,-2504,-19000,18000,156000,1138850,
-5864,-3280,15960,392,-134,-2701,-19000,18000,156000,1138862,
-5764,-3392,16196,356,-111,-2752,-19000,18000,156000,1138865,
-5812,-3416,16156,335,-159,-2812,-19000,18000,156000,1138867,
-5740,-3288,16128,258,-170,-2992,-19000,18000,155000,1138879,
-5736,-3256,16356,180,-243,-3034,-19000,18000,155000,1138882,
-5552,-3324,16508,153,-118,-3224,-19000,18000,155000,1138894,
-5588,-3404,16600,82,-146,-3302,-19000,18000,155000,1138897,
-5612,-3292,16564,102,-121,-3309,-20000,18000,155000,1138899,
-5404,-3212,16644,-31,17,-3522,-20000,17000,155000,1138911,
-5452,-3140,16824,-111,21,-3575,-20000,17000,154000,1138914,
-5420,-3260,16676,-91,41,-3595,-20000,17000,154000,1138916,
-5416,-3212,16792,-335,-36,-3755,-20000,17000,154000,1138929,
-5400,-3236,16616,-326,-1,-3811,-20000,17000,154000,1138931,
-5388,-3224,16788,-423,-82,-3805,-20000,17000,154000,1138933,
-5324,-3360,16764,-615,-224,-3987,-20000,17000,154000,1138946,
-5368,-3300,16824,-640,-301,-4027,-20000,17000,154000,1138948,
-5256,-3360,16756,-720,-263,-4066,-20000,17000,153000,1138951,
-5096,-3304,16812,-904,-438,-4200,-20000,17000,153000,1138963,
-4928,-3312,17008,-956,-484,-4231,-20000,17000,153000,1138965,
-4804,-3320,16940,-1213,-580,-4315,-20000,17000,153000,1138978,
-4652,-3300,16932,-1265,-616,-4320,-20000,16000,153000,1138980,
-4636,-3292,16836,-1314,-603,-4332,-20000,16000,153000,1138982,
-4308,-3480,17028,-1551,-740,-4385,-20000,16000,152000,1138995,
-4332,-3460,17008,-1563,-748,-4379,-20000,16000,152000,1138997,
-4264,-3504,17112,-1640,-822,-4378,-21000,16000,152000,1138999,
-3936,-3472,17180,-1842,-847,-4384,-21000,16000,152000,1139012,
-3876,-3528,17140,-1882,-751,-4352,-21000,16000,152000,1139014,
-3556,-3584,16940,-2192,-736,-4297,-21000,16000,151000,1139027,
-3524,-3484,17088,-2195,-647,-4251,-21000,16000,151000,1139029,
-3444,-3512,17016,-2289,-641,-4229,-21000,16000,151000,1139031,
-3260,-3640,17088,-2463,-544,-4083,-21000,15000,151000,1139044,
-3468,-3528,16984,-2562,-631,-4049,-21000,15000,151000,1139046,
-3280,-3628,17080,-2558,-586,-4002,-22000,15000,151000,1139048,
-3092,-3568,17028,-2958,-708,-3820,-22000,15000,150000,1139061,
-3024,-3592,17036,-2954,-642,-3763,-22000,15000,150000,1139063,
-2632,-3672,17004,-3353,-714,-3514,-22000,15000,150000,1139076,
-2628,-3596,17072,-3370,-627,-3443,-22000,15000,150000,1139078,
-2612,-3696,17024,-3495,-679,-3380,-22000,15000,150000,1139081,
-2340,-3772,16992,-3768,-573,-3040,-23000,14000,150000,1139093,
-2300,-3680,16936,-3900,-617,-2981,-23000,14000,150000,1139095,
-2300,-3756,16932,-3877,-534,-2904,-23000,14000,150000,1139098,
-1996,-3848,16888,-4336,-534,-2485,-23000,14000,149000,1139110,
-2048,-3868,16976,-4331,-444,-2408,-23000,14000,149000,1139113,
-1848,-4040,16744,-4749,-534,-1970,-24000,14000,149000,1139125,
-1832,-4016,16584,-4765,-488,-1891,-24000,14000,149000,1139128,
-1808,-3900,16672,-4889,-542,-1794,-24000,14000,149000,1139130,
-1724,-4040,16564,-5220,-635,-1342,-24000,14000,149000,1139143,
-1560,-4016,16444,-5381,-725,-1265,-24000,14000,149000,1139145,
-1536,-4028,16372,-5387,-696,-1179,-25000,14000,149000,1139147,
-1424,-4200,16136,-5780,-871,-667,-25000,13000,149000,1139160,
-1456,-4192,16272,-5792,-871,-583,-25000,13000,149000,1139162,
-1340,-4428,15824,-6178,-1116,-35,-26000,13000,149000,1139175,
-1328,-4464,15924,-6177,-1106,61,-26000,13000,149000,1139177,
-1248,-4532,15884,-6279,-1226,190,-26000,13000,149000,1139180,
-1044,-4640,15572,-6536,-1223,777,-26000,13000,149000,1139192,
-904,-4628,15728,-6604,-1281,869,-26000,13000,149000,1139194,
-1080,-4620,15512,-6688,-1275,985,-27000,13000,149000,1139197,
-768,-4804,15252,-6911,-1248,1493,-27000,13000,150000,1139209,
-776,-4924,15316,-7010,-1313,1573,-27000,13000,150000,1139212,
-892,-4928,15148,-7002,-1316,1694,-27000,13000,150000,1139214,
-872,-4992,14960,-7326,-1515,2223,-28000,13000,150000,1139226,
-852,-5048,14780,-7345,-1586,2325,-28000,13000,150000,1139229,
-860,-5080,14352,-7611,-1886,2843,-29000,13000,150000,1139241,
-812,-5120,14372,-7647,-1967,2952,-29000,13000,150000,1139244,
-916,-5252,14340,-7692,-2013,3030,-29000,13000,150000,1139246,
-840,-5544,14044,-7834,-2463,3561,-29000,13000,151000,1139259,
-724,-5516,13872,-7887,-2541,3647,-30000,13000,151000,1139261,
-844,-5540,13796,-7884,-2638,3762,-30000,13000,151000,1139263,
-936,-5592,13448,-8088,-3255,4214,-30000,12000,152000,1139275,
-996,-5556,13444,-8111,-3372,4328,-30000,12000,152000,1139278,
-1020,-5732,12824,-8284,-3834,4761,-31000,12000,152000,1139290,
-1032,-5564,12988,-8280,-3906,4819,-31000,12000,152000,1139292,
-1024,-5684,12792,-8308,-3974,4879,-31000,12000,153000,1139295,
-1000,-5660,12448,-8510,-4318,5313,-32000,12000,153000,1139307,
-1004,-5668,12312,-8573,-4371,5351,-32000,12000,153000,1139310,
-1008,-5732,12440,-8603,-4453,5441,-32000,12000,153000,1139312,
-1320,-5756,12236,-8701,-4901,5920,-33000,12000,154000,1139324,
-1352,-5880,12116,-8688,-5033,6029,-33000,12000,154000,1139327,
-1332,-6240,11844,-8615,-5496,6480,-33000,12000,155000,1139339,
-1100,-6316,11984,-8582,-5535,6595,-34000,12000,155000,1139342,
-1184,-6316,11940,-8552,-5518,6677,-34000,12000,155000,1139344,
-824,-6608,11896,-8355,-5219,7204,-34000,12000,156000,1139357,
-800,-6604,11856,-8250,-5035,7229,-34000,12000,157000,1139359,
-932,-6608,11692,-8280,-5030,7405,-34000,12000,157000,1139361,
-1084,-6632,11328,-8032,-4549,7857,-35000,12000,158000,1139374,
-1012,-6672,11320,-8007,-4532,7962,-35000,12000,158000,1139376,
-1404,-6756,11120,-7714,-4303,8438,-36000,12000,159000,1139389,
-1464,-6684,10984,-7595,-4125,8499,-36000,12000,159000,1139391,
-1544,-6840,10984,-7609,-4127,8632,-36000,12000,159000,1139393,
-1804,-6888,10752,-7186,-4002,9084,-36000,12000,160000,1139406,
-1876,-6824,10680,-7183,-4054,9189,-36000,12000,160000,1139408,
-1832,-6892,10732,-7037,-4068,9296,-36000,12000,160000,1139411,
-1792,-6980,10800,-6620,-4035,9744,-37000,12000,161000,1139423,
-1756,-6996,10796,-6553,-4057,9865,-37000,12000,162000,1139425,
-1708,-6864,10988,-6137,-3644,10319,-37000,13000,163000,1139438,
-1876,-6840,11104,-6120,-3671,10430,-37000,13000,163000,1139440,
-1904,-6820,11004,-6000,-3467,10504,-37000,13000,163000,1139443,
-1808,-6856,10928,-5703,-3290,11034,-38000,13000,164000,1139455,
-1844,-6804,10968,-5607,-3128,11043,-38000,13000,164000,1139458,
-1724,-6820,10916,-5638,-3131,11183,-38000,13000,164000,1139460,
-1960,-6796,10888,-5181,-2410,11582,-38000,14000,166000,1139473,
-1884,-6784,10992,-5158,-2336,11671,-38000,14000,166000,1139475,
-2068,-6464,10736,-4915,-1732,11997,-38000,14000,167000,1139488,
-2044,-6320,10784,-4828,-1596,12092,-38000,14000,167000,1139490,
-2164,-6440,10784,-4803,-1574,12089,-38000,15000,167000,1139492,
-2464,-6388,10732,-4514,-1138,12530,-38000,15000,168000,1139505,
-2456,-6388,10848,-4500,-1169,12594,-38000,15000,168000,1139507,
-2996,-6132,10836,-4311,-1085,12742,-38000,16000,169000,1139520,
-3100,-6144,10868,-4269,-1122,12765,-38000,16000,170000,1139522,
-3196,-6164,10916,-4284,-1198,12703,-38000,16000,170000,1139524,
-3360,-5940,10804,-4158,-1623,12905,-38000,17000,171000,1139537,
-3424,-5792,10784,-4185,-1789,13035,-38000,17000,171000,1139539,
-3548,-5784,10624,-4098,-1804,12967,-38000,17000,171000,1139542,
-3772,-5652,10608,-4113,-2484,13068,-38000,18000,173000,1139554,
-3904,-5660,10632,-4048,-2599,13037,-38000,18000,173000,1139556,
-4180,-5756,10680,-4021,-3374,13165,-38000,18000,174000,1139569,
-4084,-5784,10776,-3909,-3427,13161,-38000,19000,174000,1139571,
-4088,-5816,10736,-3947,-3583,13206,-38000,19000,175000,1139574,
-4004,-5708,10784,-3668,-3775,13259,-38000,19000,176000,1139586,
-4088,-5828,10872,-3640,-3819,13280,-38000,19000,176000,1139588,
-4108,-5680,10780,-3379,-3847,13395,-38000,20000,178000,1139601,
-4132,-5512,10832,-3358,-3772,13383,-38000,20000,178000,1139603,
-3996,-5536,10972,-3353,-3883,13459,-38000,20000,178000,1139605,
-4172,-5000,10748,-3140,-3973,13403,-38000,20000,179000,1139618,
-4384,-5016,10616,-3165,-4089,13453,-37000,20000,180000,1139620,
-4600,-5344,10680,-2938,-4183,13358,-37000,21000,181000,1139633,
-4696,-5456,10596,-2946,-4312,13409,-37000,21000,181000,1139635,
-4752,-5492,10680,-2831,-4252,13343,-37000,21000,182000,1139638,
-4744,-5652,10780,-2451,-4485,13283,-37000,22000,183000,1139650,
-4712,-5664,10700,-2448,-4571,13253,-37000,22000,183000,1139653,
-4776,-5592,10772,-2329,-4554,13239,-37000,22000,183000,1139655,
-4972,-5372,10444,-2025,-4592,12961,-36000,22000,185000,1139668,
-5108,-5280,10312,-1890,-4609,12965,-36000,22000,185000,1139670,
-5524,-5172,10352,-1698,-5111,12556,-36000,23000,186000,1139682,
-5652,-5232,10452,-1587,-5155,12481,-36000,23000,187000,1139685,
-5612,-5136,10264,-1558,-5341,12473,-36000,23000,187000,1139687,
-5628,-5236,10268,-1101,-5560,12321,-35000,23000,188000,1139700,
-5696,-5244,10568,-988,-5768,12272,-35000,23000,189000,1139702,
-5732,-5212,10524,-887,-5656,12204,-35000,23000,189000,1139704,
-5424,-5140,11176,-368,-5673,12223,-34000,23000,190000,1139717,
-5336,-5080,11176,-332,-5698,12218,-34000,23000,191000,1139719,
-5340,-4576,11344,287,-5414,12112,-33000,24000,192000,1139732,
-5244,-4676,11232,322,-5383,12240,-33000,24000,192000,1139734,
-5276,-4392,11296,457,-5299,12062,-33000,24000,193000,1139736,
-5528,-3948,11068,861,-4988,12018,-33000,24000,194000,1139749,
-5576,-3840,11028,990,-4922,11968,-32000,24000,194000,1139751,
-5520,-3752,11064,993,-4964,11971,-32000,24000,194000,1139754,
-6136,-3496,11020,1355,-5176,11667,-31000,24000,196000,1139766,
-6164,-3460,11172,1369,-5295,11616,-31000,24000,196000,1139768,
-6404,-3428,11428,1796,-5415,11246,-31000,24000,197000,1139781,
-6464,-3372,11292,1821,-5521,11197,-30000,24000,198000,1139783,
-6500,-3464,11224,1975,-5566,11112,-30000,24000,198000,1139786,
-6552,-3652,11400,2466,-5909,10668,-29000,24000,199000,1139798,
-6632,-3772,11476,2614,-5952,10619,-29000,24000,199000,1139801,
-6596,-3768,11528,2734,-5880,10523,-29000,24000,200000,1139803,
-6628,-3448,11708,3317,-5935,10149,-28000,24000,201000,1139816,
-6596,-3200,11856,3375,-5887,10013,-28000,24000,201000,1139818,
-6392,-2624,12136,3615,-6157,9430,-27000,24000,202000,1139830,
-6392,-2664,12184,3572,-6242,9317,-27000,24000,203000,1139833,
-6456,-2624,12132,3651,-6172,9172,-27000,24000,203000,1139835,
-6628,-2576,12480,3874,-6232,8747,-26000,24000,204000,1139848,
-6780,-2620,12384,3973,-6134,8628,-26000,24000,204000,1139850,
-6572,-2656,12584,3967,-6232,8528,-25000,24000,205000,1139852,
-6804,-2120,13044,4342,-6112,8009,-24000,24000,206000,1139865,
-6700,-1992,12980,4348,-6209,7930,-24000,24000,206000,1139867,
-6664,-1024,12956,4517,-6493,7313,-23000,24000,207000,1139880,
-6568,-924,12648,4580,-6742,7194,-23000,24000,207000,1139882,
-6696,-880,12596,4633,-6748,7018,-23000,24000,207000,1139884,
-6428,-976,12816,4821,-7244,6331,-22000,23000,208000,1139897,
-6556,-892,12780,4808,-7320,6179,-22000,23000,208000,1139899,
-6460,-1036,12804,4919,-7425,6054,-22000,23000,208000,1139901,
-6564,-1152,13352,5196,-7776,5371,-21000,23000,209000,1139914,
-6480,-1256,13608,5328,-7831,5281,-21000,22000,210000,1139916,
-6472,-1156,13692,5335,-7862,5137,-20000,22000,210000,1139919,
-5892,-1156,13712,5677,-7999,4451,-19000,22000,210000,1139931,
-5748,-1300,13688,5681,-8077,4354,-19000,22000,211000,1139934,
-5540,-1364,13484,6056,-8091,3578,-18000,21000,211000,1139946,
-5608,-1220,13516,6063,-8160,3458,-18000,21000,211000,1139948,
-5564,-1288,13480,6219,-8215,3310,-18000,21000,211000,1139951,
-5344,-1020,13088,6429,-8809,2458,-17000,20000,212000,1139963,
-5420,-828,13104,6545,-8919,2290,-17000,20000,212000,1139966,
-5264,-1040,13244,6561,-9082,2123,-17000,20000,212000,1139968,
-5016,-1068,13944,6962,-9536,1476,-16000,19000,213000,1139981,
-4848,-980,14236,6969,-9706,1305,-16000,19000,213000,1139983,
-4836,-1072,14128,7090,-9702,1179,-16000,19000,213000,1139985,
-4204,-876,14512,7274,-9810,442,-15000,18000,213000,1139998,
-3932,-920,14540,7388,-9742,329,-15000,18000,213000,1140000,
-3704,-660,14360,7620,-9635,-358,-14000,17000,213000,1140013,
-3880,-628,14576,7727,-9657,-459,-14000,17000,213000,1140015,
-3748,-668,14392,7765,-9563,-572,-13000,16000,214000,1140017,
-3812,-572,14744,8131,-9543,-1100,-12000,15000,214000,1140030,
-3476,-520,14620,8108,-9484,-1189,-12000,15000,214000,1140032,
-3520,-528,14936,8196,-9428,-1283,-12000,15000,214000,1140034,
-2928,-408,15132,8412,-9108,-1914,-11000,14000,214000,1140047,
-3024,-312,15284,8565,-8993,-1998,-11000,14000,214000,1140049,
-2848,-80,15996,8729,-8336,-2726,-10000,13000,214000,1140061,
-2916,24,16196,8800,-8361,-2867,-10000,13000,214000,1140064,
-2872,60,16160,8811,-8162,-2977,-10000,13000,214000,1140066,
-3296,268,16604,8828,-7803,-3612,-9000,12000,213000,1140078,
-3120,444,16488,8804,-7696,-3776,-9000,12000,213000,1140081,
-3044,432,16444,8804,-7771,-3953,-9000,12000,213000,1140083,
-3296,864,16348,8755,-7633,-4672,-8000,11000,213000,1140095,
-3368,948,16308,8812,-7748,-4745,-8000,11000,213000,1140098,
-3356,992,16460,8749,-7802,-4882,-8000,11000,213000,1140100,
-3620,1612,16700,8737,-8468,-5518,-7000,10000,212000,1140113,
-3592,1888,16940,8777,-8589,-5586,-7000,10000,212000,1140115,
-3544,1968,16824,8692,-8812,-5707,-6000,9000,212000,1140117,
-2944,2048,17256,8636,-10035,-6220,-6000,8000,212000,1140130,
-2968,2100,17304,8628,-10243,-6361,-5000,8000,212000,1140132,
-2900,2092,17396,8673,-10345,-6453,-5000,8000,212000,1140134,
-2420,2204,17236,8395,-11316,-6942,-5000,7000,211000,1140147,
-2148,2224,17180,8396,-11266,-7024,-4000,7000,211000,1140149,
-1472,1624,17156,8510,-11803,-7692,-4000,6000,210000,1140162,
-1292,1624,16952,8624,-11755,-7773,-3000,5000,210000,1140164,
-1244,1592,16988,8639,-11623,-7854,-3000,5000,210000,1140166,
-848,1924,17472,8990,-10831,-8361,-2000,4000,209000,1140179,
-788,2148,17468,9022,-10546,-8435,-2000,4000,209000,1140181,
-776,2156,17576,9076,-10526,-8572,-2000,4000,209000,1140183,
-408,2760,17728,9118,-9554,-9093,-1000,3000,208000,1140196,
-340,2932,17596,9164,-9377,-9158,-1000,2000,208000,1140198,
-344,2948,17580,9147,-9282,-9265,-1000,2000,208000,1140200,
-672,3332,16956,9176,-8628,-9814,0,1000,207000,1140213,
-568,3316,16988,9207,-8544,-9964,0,1000,207000,1140215,
-640,3196,17160,9178,-8566,-10144,0,1000,207000,1140217,
-532,3232,17000,9320,-8692,-10747,0,0,206000,1140230,
-532,3212,16956,9283,-8847,-10889,0,0,205000,1140232,
-348,3176,16940,9339,-8753,-11042,1000,0,205000,1140234,
-8,3044,17124,9601,-8813,-11874,2000,0,204000,1140247,
16,3112,17200,9568,-8734,-12010,2000,0,204000,1140249,
148,3152,17168,9656,-8663,-12119,2000,0,204000,1140251,
368,3756,17392,9819,-8505,-12792,3000,-1000,202000,1140264,
388,3892,17260,9835,-8354,-12868,3000,-1000,202000,1140266,
464,4056,17324,9740,-8375,-13007,3000,-1000,202000,1140269,
580,4712,17404,9719,-7956,-13523,4000,-2000,201000,1140281,
684,4864,17416,9632,-7899,-13619,5000,-2000,200000,1140284,
716,4944,17120,9634,-7867,-13734,5000,-2000,200000,1140286,
960,5368,16952,9426,-7522,-14237,6000,-3000,199000,1140298,
872,5448,16996,9503,-7485,-14343,6000,-3000,198000,1140301,
1068,5468,16928,9420,-7398,-14432,6000,-3000,198000,1140303,
1660,5784,17184,9377,-6771,-14900,7000,-3000,197000,1140316,
1764,5720,17188,9301,-6561,-14950,8000,-3000,196000,1140318,
1732,5848,17264,9309,-6416,-15055,8000,-3000,196000,1140320,
2056,6072,17272,9237,-5269,-15480,9000,-4000,194000,1140333,
2124,6100,17400,9233,-5138,-15608,9000,-4000,194000,1140335,
2020,6204,17412,9211,-4850,-15615,9000,-4000,194000,1140337,
1880,6468,17788,9128,-4030,-16005,10000,-4000,192000,1140350,
1820,6592,17992,9136,-3887,-15994,10000,-4000,192000,1140352,
1804,6692,18132,9056,-3914,-16031,11000,-4000,192000,1140355,
1352,7164,18568,9026,-4277,-16128,12000,-4000,190000,1140367,
1276,7248,18604,8928,-4376,-16114,12000,-4000,190000,1140369,
1244,7304,18728,8930,-4608,-16131,12000,-4000,189000,1140372,
1068,7468,18988,8706,-5757,-16169,13000,-4000,188000,1140384,
1120,7552,19048,8635,-5921,-16154,13000,-4000,188000,1140387,
1164,7612,19180,8592,-6180,-16181,13000,-4000,187000,1140389,
1956,8056,19204,8282,-6580,-16164,14000,-5000,186000,1140401,
2080,8040,19192,8211,-6676,-16182,15000,-5000,185000,1140404,
2768,8584,19492,7763,-5654,-16169,16000,-5000,184000,1140416,
2840,8644,19420,7597,-5459,-16179,16000,-5000,183000,1140419,
2936,8688,19344,7550,-5080,-16140,16000,-5000,183000,1140421,
2764,8688,19488,6873,-3468,-16154,17000,-5000,181000,1140434,
2744,8656,19592,6834,-3111,-16187,17000,-5000,181000,1140436,
2716,8764,19396,6681,-2863,-16177,17000,-5000,181000,1140438,
2304,8760,19792,6182,-1792,-16334,18000,-4000,179000,1140451,
2252,8792,19688,6014,-1782,-16387,18000,-4000,179000,1140453,
2232,8828,19984,6032,-1734,-16375,18000,-4000,179000,1140456,
1508,9076,19960,5432,-2052,-16292,19000,-4000,177000,1140468,
1384,9148,20084,5339,-2206,-16356,19000,-4000,177000,1140470,
1348,9304,20036,5241,-2236,-16218,19000,-4000,177000,1140473,
1424,9532,19860,4578,-2813,-16108,20000,-3000,175000,1140485,
1496,9560,19708,4402,-2902,-16078,20000,-3000,175000,1140487,
1924,10000,19684,3705,-3307,-15935,20000,-3000,173000,1140500,
1852,10064,19616,3532,-3362,-15861,20000,-3000,173000,1140502,
1868,10372,19776,3476,-3429,-15870,20000,-3000,173000,1140504,
1632,10528,19848,2507,-3625,-15647,21000,-3000,171000,1140517,
1504,10476,19712,2378,-3742,-15696,21000,-3000,171000,1140519,
1572,10448,19780,2209,-3770,-15610,21000,-3000,171000,1140522,
1748,10444,19576,1362,-4018,-15527,21000,-3000,169000,1140534,
1732,10428,19556,1179,-3945,-15477,21000,-3000,169000,1140536,
1872,10380,19544,1042,-4001,-15518,21000,-2000,168000,1140539,
1896,10444,19348,202,-3701,-15311,21000,-2000,167000,1140551,
1844,10568,19272,80,-3709,-15292,21000,-2000,167000,1140554,
1868,10520,19060,-644,-3531,-15005,21000,-2000,165000,1140566,
1896,10532,18980,-785,-3588,-15014,21000,-2000,165000,1140568,
1780,10540,18984,-871,-3446,-14933,21000,-2000,165000,1140571,
2304,10744,18724,-1459,-3200,-14597,21000,-2000,163000,1140583,
2448,10792,18656,-1641,-3130,-14536,21000,-2000,163000,1140586,
2444,10792,18596,-1711,-2977,-14429,21000,-2000,163000,1140588,
2408,10812,18528,-2342,-2303,-14037,21000,-1000,161000,1140601,
2484,10796,18768,-2373,-2188,-13967,21000,-1000,161000,1140603,
2280,10668,18224,-2985,-1691,-13558,21000,-1000,160000,1140615,
2252,10684,18308,-3118,-1561,-13493,21000,-1000,160000,1140618,
2320,10568,18240,-3214,-1554,-13436,21000,-1000,159000,1140620,
2316,10596,17980,-3725,-1067,-13049,21000,-1000,158000,1140632,
2364,10456,17800,-3894,-1099,-13029,21000,-1000,158000,1140635,
2428,10416,18044,-3917,-947,-12890,21000,0,158000,1140637,
2228,10288,17996,-4403,-802,-12452,20000,0,157000,1140650,
2248,10288,18072,-4444,-709,-12334,20000,0,156000,1140652,
2172,10184,18012,-4554,-763,-12273,20000,0,156000,1140654,
1792,10092,18044,-4963,-861,-11824,20000,0,155000,1140667,
1772,10048,17888,-5093,-951,-11739,20000,0,155000,1140669,
1692,10024,17860,-5160,-1043,-11706,20000,0,155000,1140671,
1728,9948,17696,-5624,-1687,-11162,19000,0,154000,1140684,
1856,9900,17556,-5726,-1810,-11096,19000,0,153000,1140686,
1816,9748,17576,-5793,-1902,-11013,19000,0,153000,1140688,
1948,9696,17244,-6246,-2231,-10418,18000,0,152000,1140701,
1932,9656,17148,-6340,-2264,-10350,18000,0,152000,1140703,
1936,9628,17176,-6352,-2344,-10243,18000,0,152000,1140706,
2032,9576,17160,-6781,-2574,-9687,18000,0,151000,1140718,
2016,9488,16980,-6834,-2583,-9628,17000,0,151000,1140720,
2136,9484,17032,-6874,-2620,-9485,17000,0,151000,1140723,
2228,9160,16952,-7194,-2768,-8797,17000,0,150000,1140735,
2180,9040,16948,-7318,-2726,-8693,17000,0,150000,1140738,
2248,9076,16916,-7373,-2720,-8554,16000,0,149000,1140740,
2464,8712,16808,-7743,-2170,-7997,16000,0,149000,1140752,
2396,8716,16744,-7808,-2032,-7866,16000,0,148000,1140755,
2376,8712,16760,-7856,-1946,-7756,16000,0,148000,1140757,
2420,8524,16516,-8250,-1233,-7299,15000,0,148000,1140770,
2384,8492,16428,-8403,-1183,-7263,15000,0,147000,1140772,
2436,8372,16448,-8381,-1005,-7140,15000,0,147000,1140774,
2332,7828,15728,-8759,-676,-6751,14000,0,147000,1140786,
2452,7728,15844,-8759,-600,-6694,14000,0,147000,1140789,
2356,7764,15640,-8786,-486,-6646,14000,0,146000,1140791,
2332,7296,15612,-8977,-338,-6324,13000,0,146000,1140803,
2216,7376,15420,-9019,-404,-6269,13000,0,146000,1140806,
2220,7220,15608,-9028,-336,-6217,12000,0,146000,1140808,
2228,6996,15568,-9179,-563,-5881,12000,0,145000,1140821,
2272,6888,15504,-9211,-648,-5823,11000,0,145000,1140823,
2320,6848,15664,-9192,-583,-5752,11000,0,145000,1140825,
2524,6468,15856,-9364,-624,-5362,10000,0,144000,1140838,
2488,6520,15796,-9394,-541,-5311,10000,0,144000,1140840,
2508,6460,15900,-9489,-590,-5266,10000,0,144000,1140842,
2644,6100,15760,-9578,-220,-4839,9000,0,144000,1140855,
2756,5960,15676,-9687,-219,-4797,9000,0,144000,1140857,
2724,6016,15652,-9650,-69,-4668,9000,0,144000,1140859,
2864,5776,15636,-9860,362,-4298,8000,0,143000,1140872,
2896,5668,15576,-9785,541,-4206,8000,0,143000,1140874,
3020,5520,15696,-9865,599,-4137,8000,0,143000,1140876,
2732,5380,15552,-10000,959,-3743,7000,0,143000,1140889,
2692,5276,15376,-10062,993,-3693,7000,0,143000,1140891,
2620,5248,15344,-10079,1063,-3612,7000,0,143000,1140893,
2832,4676,15348,-10196,1241,-3248,6000,0,142000,1140906,
2692,4704,15432,-10242,1229,-3170,6000,0,142000,1140908,
2728,4692,15400,-10212,1236,-3089,5000,0,142000,1140910,
2504,4412,15396,-10303,1193,-2670,4000,0,142000,1140923,
2496,4240,15408,-10233,1221,-2578,4000,0,142000,1140925,
2376,4352,15468,-10289,1203,-2488,4000,0,142000,1140928,
2380,4040,15548,-10378,1089,-2061,3000,0,142000,1140940,
2420,3956,15644,-10419,1115,-1979,3000,0,142000,1140942,
2424,3972,15760,-10446,1061,-1899,3000,0,142000,1140945,
2372,3648,15632,-10584,1138,-1423,2000,0,141000,1140957,
2468,3468,15472,-10599,1128,-1351,2000,0,141000,1140959,
2544,3496,15504,-10574,1147,-1286,2000,0,141000,1140962,
2624,3240,15572,-10658,1146,-839,1000,0,141000,1140974,
2532,3148,15268,-10626,1189,-741,0,0,141000,1140976,
2424,3176,15496,-10676,1216,-672,0,0,141000,1140979,
2436,3144,15568,-10687,1211,-599,0,0,141000,1140981,
2400,2632,15508,-10674,1338,-193,0,1000,141000,1140994,
2392,2628,15408,-10732,1273,-90,0,1000,141000,1140996,
2400,2604,15476,-10646,1307,-35,0,1000,141000,1140998,
2416,2416,15124,-10752,1346,345,-1000,1000,141000,1141011,
2372,2312,15224,-10686,1440,451,-1000,1000,141000,1141013,
2404,2292,15124,-10750,1440,530,-2000,1000,141000,1141015,
2264,2000,15284,-10696,1736,911,-3000,1000,141000,1141028,
2256,1948,15320,-10791,1742,971,-3000,1000,141000,1141030,
2328,1912,15120,-10701,1837,1053,-3000,1000,141000,1141032,
2104,1656,15040,-10794,1948,1475,-4000,1000,142000,1141045,
2104,1700,15100,-10759,1998,1525,-4000,1000,142000,1141047,
2208,1596,15032,-10746,2051,1590,-4000,1000,142000,1141049,
1892,1296,14804,-10732,1926,1994,-5000,1000,142000,1141061,
2008,1280,15028,-10654,1981,2061,-5000,1000,142000,1141064,
1864,1176,14952,-10724,1882,2153,-6000,1000,142000,1141066,
1852,852,14720,-10645,1750,2557,-6000,1000,142000,1141078,
1704,836,14748,-10663,1709,2617,-7000,1000,142000,1141081,
1656,804,14756,-10653,1642,2684,-7000,1000,142000,1141083,
1624,528,14972,-10502,1586,3143,-8000,2000,142000,1141095,
1704,596,14912,-10555,1512,3245,-8000,2000,143000,1141098,
1592,532,14876,-10456,1595,3297,-8000,2000,143000,1141100,
1780,232,14764,-10464,1661,3685,-9000,2000,143000,1141112,
1764,224,14804,-10409,1758,3762,-9000,2000,143000,1141115,
1764,128,14660,-10484,1781,3845,-9000,2000,143000,1141117,
1848,64,14816,-10397,2297,4198,-10000,2000,143000,1141130,
1824,36,14520,-10456,2354,4253,-10000,2000,143000,1141132,
1712,-28,14532,-10386,2550,4293,-11000,2000,144000,1141134,
1296,-228,14424,-10494,2853,4687,-12000,2000,144000,1141147,
1096,-188,14564,-10479,2853,4724,-12000,2000,144000,1141149,
1008,-356,14372,-10548,2787,4775,-12000,3000,144000,1141151,
820,-792,13996,-10454,2573,5068,-13000,3000,144000,1141164,
708,-940,13952,-10518,2449,5138,-13000,3000,145000,1141166,
664,-1000,13888,-10433,2446,5219,-13000,3000,145000,1141169,
760,-1416,13920,-10325,2172,5557,-14000,3000,145000,1141181,
756,-1292,13768,-10218,2153,5581,-14000,3000,145000,1141184,
764,-1388,13712,-10279,2036,5642,-14000,3000,145000,1141186,
584,-1556,13620,-10013,1898,5913,-15000,4000,146000,1141198,
540,-1712,13800,-10044,1865,5966,-15000,4000,146000,1141201,
480,-1628,13752,-9927,1821,6033,-16000,4000,146000,1141203,
244,-1976,13640,-9776,1593,6445,-16000,4000,147000,1141216,
320,-1952,13464,-9622,1626,6464,-17000,4000,147000,1141218,
320,-2052,13356,-9667,1564,6565,-17000,4000,147000,1141220,
348,-2268,13184,-9389,1719,6828,-18000,4000,147000,1141233,
276,-2308,13160,-9418,1723,6882,-18000,5000,147000,1141235,
336,-2284,13156,-9321,1848,6939,-18000,5000,148000,1141237,
120,-2704,12968,-9059,2259,7179,-19000,5000,148000,1141250,
40,-2764,12912,-8992,2334,7228,-19000,5000,148000,1141252,
-36,-2832,12964,-8955,2408,7262,-19000,5000,148000,1141255,
-232,-3084,12768,-8723,2638,7440,-20000,6000,149000,1141267,
-320,-3124,12804,-8701,2626,7525,-20000,6000,149000,1141269,
-344,-3184,12732,-8557,2680,7516,-20000,6000,149000,1141272,
-644,-3308,12624,-8446,2812,7705,-21000,6000,150000,1141284,
-820,-3348,12540,-8342,2892,7720,-21000,6000,150000,1141287,
-896,-3372,12572,-8356,2844,7764,-21000,6000,150000,1141289,
-1084,-3604,12688,-7974,2741,7944,-22000,7000,151000,1141302,
-1260,-3696,12592,-7909,2699,8029,-22000,7000,151000,1141304,
-1428,-3688,12528,-7857,2694,8019,-22000,7000,151000,1141306,
-1696,-3948,12812,-7561,2407,8265,-22000,8000,152000,1141319,
-1700,-4136,12812,-7469,2465,8234,-22000,8000,152000,1141321,
-1672,-4056,12728,-7476,2366,8284,-23000,8000,152000,1141324,
-1516,-4144,12732,-7060,2361,8371,-23000,8000,152000,1141336,
-1720,-4104,12692,-7086,2266,8436,-23000,8000,153000,1141339,
-1936,-4344,12536,-6793,2308,8533,-24000,9000,153000,1141351,
-1912,-4340,12500,-6796,2270,8564,-24000,9000,153000,1141354,
-1964,-4364,12580,-6642,2259,8552,-24000,9000,153000,1141356,
-2108,-4580,12496,-6403,2237,8627,-24000,10000,154000,1141368,
-2256,-4628,12732,-6291,2274,8664,-24000,10000,154000,1141370,
-2264,-4556,12568,-6313,2295,8695,-25000,10000,154000,1141373,
-2436,-4536,12772,-6030,2508,8737,-25000,11000,155000,1141385,
-2420,-4508,12756,-6078,2468,8781,-25000,11000,155000,1141388,
-2784,-4524,12812,-5957,2579,8877,-25000,11000,156000,1141400,
-2836,-4440,12892,-5971,2552,8923,-26000,11000,156000,1141402,
-2904,-4432,12888,-5915,2602,8901,-26000,11000,156000,1141405,
-3472,-4832,12504,-6002,2197,8864,-26000,12000,157000,1141417,
-3616,-4948,12540,-5916,2170,8857,-26000,12000,157000,1141419,
-3680,-4952,12652,-5877,1921,8885,-26000,12000,157000,1141422,
-3944,-5212,12512,-5476,1467,8850,-27000,13000,158000,1141434,
-3908,-5304,12356,-5410,1338,8881,-27000,13000,158000,1141437,
-4024,-5220,12692,-5380,1199,8904,-27000,13000,158000,1141439,
-3900,-4940,12572,-5077,946,8840,-27000,13000,159000,1141452,
-3956,-4948,12636,-5006,893,8853,-27000,14000,159000,1141454,
-4056,-4860,12664,-4860,909,8862,-27000,14000,160000,1141467,
-4068,-4832,12636,-4747,1021,8856,-27000,14000,160000,1141469,
-4124,-4860,12636,-4764,1019,8854,-27000,14000,160000,1141471,
-4384,-4956,12600,-4447,1421,8808,-27000,15000,161000,1141484,
-4448,-4964,12708,-4448,1456,8821,-28000,15000,161000,1141486,
-4496,-5156,12632,-4352,1541,8857,-28000,15000,161000,1141489,
-4956,-4844,12100,-4046,1762,8779,-28000,16000,162000,1141501,
-4956,-4844,12256,-4009,1646,8837,-28000,16000,162000,1141503,
-4956,-4916,12180,-3897,1715,8760,-28000,16000,162000,1141506,
-5340,-4768,12428,-3599,1788,8760,-28000,16000,163000,1141518,
-5484,-4776,12308,-3500,1821,8722,-28000,16000,163000,1141521,
-5868,-4556,12504,-3308,1703,8707,-28000,17000,163000,1141533,
-6024,-4372,12460,-3203,1716,8659,-28000,17000,164000,1141535,
-6260,-4344,12552,-3219,1670,8624,-28000,17000,164000,1141538,
-6624,-4284,12532,-3007,1473,8500,-28000,18000,164000,1141550,
-6724,-4284,12432,-3051,1368,8498,-28000,18000,165000,1141553,
-6812,-4220,12468,-2969,1377,8429,-28000,18000,165000,1141555,
-7128,-4068,12264,-2847,1019,8094,-28000,19000,165000,1141567,
-7236,-4064,12080,-2821,961,8025,-28000,19000,165000,1141570,
-7280,-3948,12264,-2814,843,7946,-28000,19000,166000,1141572,
-7524,-3788,12344,-2686,759,7504,-28000,19000,166000,1141585,
-7728,-3872,12220,-2748,715,7426,-28000,19000,166000,1141587,
-7888,-4072,12272,-2569,591,6982,-28000,20000,167000,1141600,
-8048,-3984,12240,-2596,582,6859,-28000,20000,167000,1141602,
-8108,-3916,12244,-2537,563,6790,-28000,20000,167000,1141604,
-8280,-3748,12268,-2504,527,6204,-28000,20000,168000,1141617,
-8340,-3596,12180,-2493,499,6134,-28000,20000,168000,1141619,
-8308,-3664,12128,-2494,498,6031,-28000,20000,168000,1141621,
-8692,-3608,11848,-2497,275,5465,-28000,21000,168000,1141634,
-8548,-3564,11804,-2486,313,5280,-28000,21000,169000,1141636,
-8756,-3804,11876,-2506,150,5206,-28000,21000,169000,1141639,
-8964,-4044,11832,-2356,-186,4557,-28000,21000,169000,1141651,
-8984,-4116,11780,-2380,-342,4425,-28000,21000,169000,1141653,
-9004,-4244,11912,-2070,-931,3826,-28000,21000,170000,1141666,
-9040,-4244,11976,-2088,-1092,3708,-28000,21000,170000,1141668,
-9008,-4360,12084,-2000,-1168,3601,-28000,22000,170000,1141670,
-8524,-4340,11948,-1778,-1829,2970,-28000,22000,170000,1141683,
-8596,-4480,11888,-1674,-1875,2834,-28000,22000,170000,1141685,
-8552,-4484,12004,-1635,-1895,2723,-28000,22000,170000,1141687,
-8244,-4768,11944,-1290,-2040,2139,-28000,22000,171000,1141700,
-8152,-4708,12052,-1214,-2022,2024,-28000,22000,171000,1141702,
-7712,-4816,12256,-822,-1757,1510,-28000,22000,171000,1141715,
-7584,-4740,12208,-792,-1668,1385,-28000,22000,171000,1141717,
-7584,-4764,12256,-719,-1607,1291,-28000,22000,171000,1141719,
-7352,-4740,12604,-445,-992,865,-28000,22000,171000,1141732,
-7216,-4688,12684,-389,-868,763,-28000,22000,171000,1141734,
-7196,-4696,12808,-386,-687,691,-28000,22000,171000,1141737,
-7024,-4712,12912,-85,-192,318,-28000,22000,171000,1141749,
-6988,-4700,12800,-105,-137,265,-28000,22000,171000,1141752,
-6932,-4636,12856,-4,-122,204,-28000,22000,171000,1141754,
-6928,-4504,12924,180,-31,-17,-28000,22000,171000,1141767,
-6984,-4600,12904,251,-55,-60,-28000,22000,171000,1141769,
-6904,-4572,12924,265,-63,-75,-28000,22000,171000,1141771,
-6748,-4444,13096,439,-168,-187,-28000,22000,171000,1141784,
-6688,-4488,13188,477,-145,-210,-28000,22000,171000,1141786,
-6620,-4516,13264,498,-202,-254,-27000,22000,171000,1141788,
-6244,-4524,13468,644,-52,-273,-27000,22000,171000,1141801,
-6272,-4564,13448,649,-44,-308,-27000,22000,171000,1141803,
-6216,-4580,13312,687,61,-316,-27000,22000,171000,1141806,
-6044,-4544,13728,747,276,-405,-27000,22000,171000,1141818,
-6016,-4524,13704,688,367,-461,-27000,22000,171000,1141820,
-5940,-4444,13640,704,400,-457,-27000,22000,171000,1141823,
-5868,-4552,13644,636,649,-617,-27000,22000,171000,1141835,
-5900,-4496,13676,622,669,-637,-27000,22000,171000,1141838,
-5996,-4488,13656,574,706,-651,-27000,22000,171000,1141840,
-6108,-4628,13560,530,399,-761,-27000,22000,171000,1141852,
-6176,-4692,13500,500,343,-755,-27000,22000,171000,1141855,
-6200,-4640,13580,480,241,-781,-27000,22000,171000,1141857,
-6244,-4536,13500,303,-217,-858,-27000,22000,171000,1141870,
-6076,-4588,13576,319,-343,-875,-27000,22000,171000,1141872,
-6068,-4576,13448,272,-421,-881,-27000,22000,171000,1141874,
-5776,-4576,13812,177,-865,-891,-27000,21000,171000,1141887,
-5604,-4736,13760,137,-813,-894,-27000,21000,171000,1141889,
-5580,-4768,13776,120,-918,-897,-27000,21000,171000,1141891,
-5448,-4712,13772,38,-898,-918,-27000,21000,171000,1141904,
-5400,-4856,14068,18,-919,-917,-27000,21000,171000,1141906,
-5312,-4876,13804,54,-869,-896,-27000,21000,171000,1141909,
-5140,-5004,14008,-41,-860,-930,-27000,21000,171000,1141921,
-5160,-5120,14080,3,-734,-920,-27000,21000,171000,1141924,
-5088,-5020,14012,-54,-745,-893,-27000,21000,171000,1141926,
-5036,-5068,14192,-68,-520,-899,-27000,21000,171000,1141939,
-5076,-5040,14200,-147,-574,-876,-27000,21000,171000,1141941,
-5112,-5100,14276,-105,-472,-899,-27000,21000,171000,1141943,
-5200,-4904,14084,-252,-584,-891,-27000,21000,171000,1141956,
-5116,-4896,14060,-216,-546,-871,-27000,21000,171000,1141958,
-5140,-4876,14096,-295,-629,-869,-27000,21000,171000,1141960,
-5128,-4976,13996,-249,-702,-839,-27000,21000,171000,1141973,
-5112,-4956,14012,-310,-779,-854,-27000,21000,171000,1141975,
-5008,-5024,13956,-291,-843,-797,-27000,21000,171000,1141988,
-5028,-5088,14000,-304,-803,-806,-27000,21000,171000,1141990,
-5060,-5044,13972,-313,-828,-782,-27000,21000,171000,1141992,
-4928,-5108,14188,-250,-630,-738,-27000,20000,171000,1142005,
-4868,-5128,14248,-329,-686,-722,-27000,20000,171000,1142007,
-4888,-5016,14196,-244,-580,-702,-27000,20000,171000,1142010,
-4968,-5012,14040,-311,-568,-623,-27000,20000,171000,1142022,
-4928,-4976,14160,-248,-489,-598,-27000,20000,171000,1142024,
-5000,-5140,14104,-312,-560,-583,-27000,20000,171000,1142027,
-5012,-5132,14216,-213,-417,-483,-27000,20000,171000,1142039,
-5076,-5236,14244,-192,-495,-443,-27000,20000,171000,1142042,
-5024,-5156,14040,-181,-368,-446,-27000,20000,171000,1142044,
-5052,-5180,14080,-215,-321,-399,-27000,20000,171000,1142057,
-4988,-5164,13904,-169,-234,-406,-27000,20000,171000,1142059,
-5016,-5260,14168,-201,-157,-406,-27000,20000,171000,1142071,
-5004,-5272,14016,-173,-66,-421,-27000,20000,171000,1142074,
