Ax,Ay,Az,Gx,Gy,Gz,Roll,Pitch,Yaw,Timestamp,Target
-6676,-2032,14544,-509,384,13,-14000,27000,211000,604587,
-6676,-2040,14664,-519,352,13,-14000,27000,211000,604589,
-6712,-1976,14628,-490,357,-1,-14000,27000,211000,604602,
-6776,-2056,14672,-510,324,48,-14000,27000,211000,604604,
-6836,-2136,14656,-518,232,8,-14000,27000,211000,604617,
-6868,-1936,14664,-531,202,45,-14000,27000,211000,604619,
-6780,-1988,14668,-531,229,27,-14000,27000,211000,604622,
-6844,-2000,14644,-561,178,55,-14000,27000,211000,604634,
-6800,-2032,14700,-556,213,36,-14000,27000,211000,604637,
-6724,-2028,14484,-513,170,50,-14000,27000,211000,604639,
-6748,-2012,14864,-551,296,4,-14000,27000,211000,604652,
-6760,-1924,14756,-511,258,30,-14000,27000,211000,604654,
-6728,-2024,14696,-559,310,25,-14000,27000,211000,604656,
-6720,-2064,14700,-548,415,70,-14000,27000,211000,604669,
-6848,-2048,14716,-538,458,51,-14000,27000,211000,604672,
-6704,-2060,14740,-531,459,35,-14000,27000,211000,604674,
-6920,-2040,14840,-529,418,21,-14000,27000,211000,604687,
-7028,-2204,14632,-502,352,33,-14000,27000,211000,604689,
-6992,-2132,14812,-523,356,43,-14000,27000,211000,604691,
-7004,-2052,14740,-514,66,45,-14000,27000,211000,604704,
-7024,-2132,14848,-523,78,20,-14000,27000,211000,604706,
-6912,-2044,15008,-463,18,10,-14000,27000,211000,604709,
-6776,-2152,14800,-460,6,-6,-14000,27000,211000,604721,
-6756,-2028,14792,-423,-15,37,-14000,27000,211000,604724,
-6756,-2076,14828,-467,15,49,-14000,27000,211000,604726,
-6552,-1968,14744,-386,82,84,-14000,27000,211000,604739,
-6580,-1964,14948,-412,146,72,-14000,27000,211000,604741,
-6560,-2132,14752,-344,140,50,-14000,27000,211000,604744,
-6524,-1980,14740,-349,293,75,-14000,27000,211000,604756,
-6532,-1860,14748,-331,270,72,-14000,27000,211000,604759,
-6604,-1876,14884,-344,269,96,-14000,27000,211000,604761,
-6792,-1816,14744,-310,220,93,-14000,27000,211000,604774,
-6760,-1904,14784,-342,214,97,-14000,27000,211000,604776,
-6736,-1956,14712,-292,222,46,-14000,27000,211000,604779,
-6644,-1880,14620,-319,95,19,-14000,27000,211000,604791,
-6712,-2040,14520,-304,58,-3,-14000,27000,211000,604794,
-6604,-1928,14580,-351,78,-7,-14000,27000,211000,604796,
-6644,-2060,14528,-329,82,-84,-14000,27000,211000,604809,
-6636,-2012,14672,-337,101,-59,-14000,27000,211000,604811,
-6672,-1992,14672,-334,151,-96,-14000,27000,211000,604814,
-6572,-2124,14604,-354,232,-111,-14000,27000,211000,604826,
-6628,-2056,14656,-293,265,-106,-14000,27000,211000,604829,
-6664,-2132,14740,-315,258,-87,-14000,27000,211000,604831,
-6716,-2064,14604,-310,326,-115,-14000,27000,211000,604844,
-6756,-2156,14512,-332,325,-82,-14000,27000,211000,604846,
-6884,-2200,14548,-340,362,-105,-14000,27000,211000,604849,
-6884,-2068,14528,-350,228,-50,-14000,27000,211000,604861,
-6848,-2124,14536,-360,232,-68,-14000,27000,211000,604864,
-6876,-2136,14448,-329,145,-48,-14000,27000,211000,604866,
-6888,-1992,14408,-388,112,-62,-14000,27000,211000,604879,
-6788,-2032,14488,-412,59,-28,-14000,27000,211000,604881,
-6712,-2064,14440,-440,78,-42,-14000,27000,211000,604883,
-6732,-1976,14508,-483,179,-24,-14000,27000,211000,604896,
-6704,-1824,14508,-503,233,-22,-14000,27000,211000,604899,
-6548,-1940,14528,-473,248,-11,-14000,27000,211000,604901,
-6784,-2060,14412,-555,455,-9,-14000,27000,211000,604914,
-6824,-1828,14392,-521,420,-25,-14000,27000,211000,604916,
-6732,-1888,14392,-611,442,-9,-14000,27000,211000,604919,
-6884,-1800,14352,-604,444,0,-14000,27000,211000,604931,
-6944,-1996,14492,-635,444,-14,-14000,27000,211000,604934,
-6988,-1760,14472,-616,485,-28,-14000,27000,211000,604936,
-7112,-1916,14400,-648,373,34,-14000,27000,211000,604949,
-7036,-1912,14556,-649,335,44,-14000,27000,211000,604951,
-7076,-1932,14560,-663,286,64,-14000,27000,211000,604954,
-7244,-2080,14640,-685,58,145,-14000,27000,211000,604966,
-7236,-1976,14440,-723,4,153,-14000,27000,211000,604969,
-7184,-1936,14652,-705,39,142,-14000,27000,211000,604971,
-7036,-1944,14668,-724,23,213,-14000,27000,211000,604984,
-7100,-1916,14592,-683,27,247,-14000,27000,211000,604986,
-6976,-1912,14628,-741,25,254,-14000,27000,211000,604988,
-6948,-1964,14680,-707,131,288,-14000,27000,211000,605001,
-6992,-1860,14748,-725,157,350,-14000,27000,211000,605004,
-7024,-1796,14828,-702,278,311,-14000,27000,211000,605006,
-7120,-2100,14780,-652,250,398,-14000,27000,211000,605022,
-7088,-2088,14740,-681,227,397,-14000,27000,211000,605025,
-7196,-2012,14728,-670,217,407,-14000,27000,211000,605027,
-7196,-2076,14752,-665,64,453,-14000,27000,211000,605040,
-7116,-2144,14688,-624,68,445,-14000,27000,211000,605042,
-7096,-2128,14788,-650,37,478,-14000,27000,211000,605045,
-6880,-2080,14640,-606,-85,487,-14000,27000,212000,605058,
-6940,-2148,14656,-626,-66,524,-14000,27000,212000,605060,
-6808,-2064,14760,-631,-15,508,-14000,27000,212000,605062,
-6484,-2192,14684,-609,-23,519,-14000,27000,212000,605075,
-6488,-2108,14784,-593,29,518,-14000,27000,212000,605078,
-6688,-2064,14812,-602,-10,514,-14000,27000,212000,605080,
-6456,-2144,14716,-530,16,460,-14000,27000,212000,605093,
-6320,-2144,14676,-579,26,469,-14000,27000,212000,605095,
-6316,-2128,14772,-569,57,413,-14000,27000,212000,605098,
-6360,-2024,14708,-563,42,363,-14000,27000,212000,605110,
-6256,-2208,14812,-549,86,277,-14000,27000,212000,605113,
-6360,-2176,14848,-502,60,277,-14000,27000,212000,605115,
-6236,-2348,14668,-460,101,166,-14000,27000,212000,605128,
-6184,-2228,14604,-487,114,180,-14000,27000,212000,605130,
-6228,-2240,14944,-500,144,151,-14000,27000,212000,605133,
-6124,-2252,14780,-452,245,61,-14000,27000,212000,605145,
-6152,-2352,14724,-427,307,20,-14000,27000,212000,605148,
-6216,-2384,14848,-398,261,37,-14000,27000,212000,605150,
-6264,-2340,14796,-323,370,-58,-14000,27000,212000,605163,
-6356,-2348,14728,-358,325,-67,-14000,27000,212000,605165,
-6332,-2312,14804,-356,371,-65,-14000,27000,212000,605167,
-6528,-2144,14712,-350,336,-98,-14000,27000,212000,605180,
-6412,-2312,14640,-337,402,-152,-14000,27000,212000,605182,
-6532,-2192,14692,-303,337,-141,-14000,27000,212000,605185,
-6444,-2256,14820,-284,331,-221,-14000,27000,212000,605198,
-6568,-2208,14780,-325,319,-215,-14000,27000,212000,605200,
-6472,-2168,14672,-350,332,-240,-14000,27000,212000,605202,
-6696,-2204,14872,-354,339,-259,-14000,27000,212000,605215,
-6580,-2196,14788,-333,405,-285,-14000,27000,212000,605217,
-6592,-2080,14604,-277,317,-275,-14000,27000,212000,605220,
-6692,-2096,14652,-282,362,-318,-14000,27000,212000,605233,
-6688,-2184,14656,-300,379,-289,-14000,27000,212000,605235,
-6768,-2116,14532,-347,373,-305,-14000,27000,212000,605237,
-6904,-2020,14572,-300,391,-308,-14000,27000,212000,605250,
-6756,-2044,14608,-307,447,-302,-14000,27000,212000,605252,
-6852,-2012,14712,-273,408,-306,-14000,27000,212000,605255,
-6916,-2088,14436,-283,444,-294,-14000,27000,212000,605268,
-6932,-2024,14492,-312,402,-275,-14000,27000,212000,605270,
-6872,-1928,14372,-318,435,-259,-14000,27000,212000,605272,
-7072,-2136,14436,-334,395,-210,-14000,27000,212000,605285,
-7152,-2048,14424,-407,416,-195,-14000,27000,212000,605287,
-7136,-1896,14500,-343,375,-168,-14000,27000,212000,605290,
-7096,-2008,14324,-425,313,-116,-14000,27000,212000,605303,
-7164,-1952,14328,-407,257,-71,-14000,27000,212000,605305,
-7272,-1992,14260,-441,249,-53,-14000,27000,212000,605307,
-7264,-1776,14460,-510,164,18,-14000,27000,212000,605320,
-7260,-1792,14472,-567,174,44,-14000,27000,212000,605322,
-7168,-1880,14296,-542,196,36,-14000,27000,212000,605325,
-7300,-2012,14300,-660,144,87,-14000,27000,212000,605337,
-7316,-2028,14352,-624,116,89,-14000,27000,212000,605340,
-7140,-1988,14108,-705,117,136,-14000,27000,212000,605342,
-7260,-2024,14412,-763,188,204,-14000,27000,212000,605355,
-7300,-1972,14440,-800,189,267,-14000,27000,212000,605357,
-7420,-1952,14376,-839,248,267,-14000,27000,212000,605360,
-7536,-2024,14400,-945,160,378,-14000,27000,212000,605372,
-7564,-2072,14400,-877,162,375,-14000,27000,212000,605375,
-7548,-2120,14528,-911,107,418,-14000,27000,212000,605377,
-7460,-2252,14472,-948,-71,570,-14000,27000,212000,605390,
-7536,-2064,14504,-959,-104,596,-14000,27000,212000,605392,
-7512,-2152,14548,-954,-93,622,-14000,27000,212000,605395,
-7096,-2120,14584,-887,-219,742,-14000,27000,212000,605411,
-7064,-2044,14564,-926,-229,764,-14000,27000,212000,605413,
-6896,-1992,14552,-913,-212,749,-14000,27000,212000,605416,
-6668,-1948,14600,-902,-161,791,-14000,27000,212000,605428,
-6616,-1864,14728,-850,-164,770,-14000,27000,212000,605431,
-6532,-1888,14580,-888,-125,806,-14000,27000,212000,605433,
-6416,-1944,14716,-843,12,798,-14000,27000,212000,605446,
-6280,-2020,14812,-876,82,786,-14000,27000,213000,605448,
-6328,-1972,14724,-837,92,753,-14000,27000,213000,605451,
-6316,-2040,14652,-846,96,642,-14000,27000,213000,605463,
-6324,-2000,14752,-789,74,635,-14000,27000,213000,605466,
-6320,-2004,14788,-800,63,601,-14000,27000,213000,605468,
-6244,-2252,14796,-732,-84,413,-14000,27000,213000,605481,
-6284,-2204,14844,-735,-97,419,-14000,27000,213000,605483,
-6284,-2196,14908,-717,-72,332,-14000,27000,213000,605486,
-6096,-2248,15028,-645,-92,240,-14000,27000,213000,605498,
-6108,-2360,15044,-591,-58,226,-14000,27000,213000,605501,
-5984,-2312,14928,-605,-51,196,-14000,27000,213000,605503,
-5948,-2340,14916,-491,133,74,-14000,27000,213000,605516,
-6040,-2396,15108,-503,179,56,-14000,27000,213000,605518,
-5992,-2432,14920,-513,253,6,-14000,27000,213000,605520,
-6208,-2448,15004,-409,389,-46,-14000,27000,213000,605533,
-6080,-2352,14960,-376,409,-97,-14000,27000,213000,605536,
-6128,-2384,14856,-359,371,-101,-14000,27000,213000,605538,
-6452,-2312,14912,-263,296,-220,-14000,27000,213000,605551,
-6356,-2400,14792,-295,287,-218,-14000,27000,213000,605553,
-6304,-2300,14952,-274,269,-243,-14000,27000,213000,605555,
-6348,-2132,14920,-244,124,-373,-14000,27000,213000,605568,
-6296,-2100,15016,-226,139,-405,-14000,27000,213000,605571,
-6232,-2296,14952,-221,72,-430,-14000,27000,213000,605573,
-6252,-2136,14884,-169,202,-573,-14000,27000,213000,605586,
-6348,-2008,14928,-184,204,-552,-14000,27000,213000,605588,
-6244,-2076,14852,-165,221,-577,-14000,27000,213000,605590,
-6452,-2172,14908,-133,456,-603,-14000,27000,213000,605603,
-6280,-2248,14700,-135,540,-629,-14000,27000,213000,605606,
-6264,-2040,14776,-86,574,-635,-14000,27000,213000,605608,
-6488,-2220,14720,-73,769,-650,-15000,27000,213000,605621,
-6628,-2120,14808,-44,701,-635,-15000,27000,213000,605623,
-6724,-2228,14704,-63,729,-637,-15000,27000,213000,605626,
-6916,-2204,14512,-49,591,-617,-15000,27000,212000,605638,
-7004,-2252,14656,-72,588,-615,-15000,27000,212000,605641,
-7032,-2076,14508,-18,567,-642,-15000,27000,212000,605643,
-6948,-2260,14532,-95,390,-609,-15000,27000,212000,605656,
-7044,-2212,14528,-88,323,-599,-15000,27000,212000,605658,
-7040,-2136,14600,-125,310,-588,-15000,27000,212000,605660,
-6992,-2040,14404,-152,441,-540,-15000,27000,212000,605673,
-7004,-2088,14496,-187,498,-495,-15000,27000,212000,605676,
-7012,-2192,14452,-215,555,-537,-15000,27000,212000,605678,
-7048,-2088,14300,-346,559,-409,-15000,27000,212000,605691,
-7164,-2236,14344,-336,573,-356,-15000,27000,212000,605693,
-7228,-2092,14040,-371,509,-332,-15000,27000,212000,605696,
-7448,-2100,13884,-484,145,-312,-15000,27000,212000,605708,
-7500,-2124,13884,-560,59,-328,-15000,27000,212000,605711,
-7500,-1928,14016,-606,55,-352,-15000,27000,212000,605713,
-7492,-1960,14216,-761,-89,-215,-15000,27000,212000,605726,
-7536,-2100,14096,-773,-164,-168,-15000,27000,212000,605728,
-7460,-2064,14220,-801,-184,-116,-15000,27000,212000,605730,
-7152,-2048,14252,-836,-175,-28,-15000,27000,212000,605743,
-7200,-2084,14420,-869,-133,-4,-15000,27000,212000,605746,
-7192,-2028,14392,-833,-85,-34,-15000,27000,212000,605748,
-7172,-2064,14580,-903,120,76,-15000,27000,212000,605761,
-7192,-2024,14336,-844,67,121,-15000,27000,212000,605763,
-7112,-2020,14452,-857,47,155,-15000,27000,212000,605765,
-7248,-2080,14632,-828,-67,205,-15000,27000,212000,605778,
-7156,-1952,14588,-839,-91,235,-15000,27000,212000,605781,
-7296,-2068,14652,-825,-118,228,-15000,27000,212000,605783,
-7236,-1956,14648,-839,-310,286,-15000,27000,212000,605796,
-7192,-1920,14752,-774,-351,234,-15000,27000,212000,605798,
-7092,-2016,14688,-793,-396,283,-15000,27000,212000,605800,
-6908,-2056,14776,-701,-518,255,-15000,27000,213000,605813,
-6880,-2024,14868,-738,-514,302,-15000,27000,213000,605816,
-6792,-2032,15008,-724,-461,288,-15000,27000,213000,605818,
-6460,-1960,14996,-691,-405,305,-15000,27000,213000,605831,
-6540,-2112,14968,-630,-357,288,-15000,27000,213000,605833,
-6496,-2000,15108,-638,-426,337,-15000,27000,213000,605835,
-6716,-1992,15020,-545,-392,326,-15000,27000,213000,605848,
-6684,-2216,14840,-589,-429,337,-15000,27000,213000,605851,
-6768,-2024,14848,-566,-415,318,-15000,27000,213000,605853,
-6580,-1976,14852,-603,-742,267,-15000,27000,213000,605866,
-6752,-2072,14760,-526,-883,251,-15000,27000,213000,605868,
-6788,-2176,14872,-560,-962,281,-15000,27000,213000,605871,
-6772,-2256,14664,-435,-1709,160,-15000,27000,213000,605883,
-6732,-2256,14736,-478,-1796,173,-15000,27000,213000,605886,
-6752,-2372,14680,-483,-1835,170,-15000,27000,213000,605888,
-6412,-2236,14564,-503,-2112,190,-15000,26000,213000,605901,
-6336,-2248,14536,-466,-2096,173,-15000,26000,213000,605903,
-6324,-2240,14528,-473,-2129,168,-15000,26000,213000,605905,
-5872,-2292,14644,-417,-1710,178,-15000,26000,213000,605918,
-5904,-2308,14672,-444,-1551,202,-15000,26000,213000,605921,
-5768,-2468,14704,-445,-1374,213,-15000,26000,213000,605923,
-6216,-2332,14788,-315,-709,306,-15000,26000,213000,605939,
-6108,-2452,14796,-291,-639,324,-15000,26000,213000,605942,
-6244,-2392,14928,-288,-518,305,-15000,26000,213000,605944,
-6512,-2352,14916,-193,-440,294,-15000,26000,213000,605957,
-6624,-2288,14868,-167,-378,281,-15000,26000,213000,605959,
-6664,-2420,15036,-118,-437,310,-14000,26000,213000,605962,
-6712,-2176,14932,-48,-625,304,-14000,26000,213000,605975,
-6752,-2156,15060,-82,-690,336,-14000,26000,213000,605977,
-6812,-2192,14892,-98,-728,294,-14000,26000,214000,605979,
-6544,-1896,14928,-102,-958,199,-14000,26000,214000,605992,
-6516,-1780,14996,-79,-962,170,-14000,26000,214000,605994,
-6432,-1936,15016,-65,-1037,147,-14000,26000,214000,605997,
-6364,-1952,15028,-93,-1128,82,-14000,26000,214000,606010,
-6240,-1900,15192,-120,-1151,94,-14000,25000,214000,606012,
-6180,-1868,14936,-117,-1101,87,-14000,25000,214000,606014,
-6080,-1952,14988,-165,-816,139,-14000,25000,214000,606027,
-6048,-2008,15012,-166,-731,114,-14000,25000,214000,606029,
-5892,-2032,15024,-145,-675,129,-14000,25000,214000,606032,
-5940,-2000,14840,-186,-273,110,-14000,25000,214000,606044,
-5940,-1980,14900,-232,-213,96,-14000,25000,214000,606047,
-5940,-2040,14960,-224,-115,87,-14000,25000,214000,606049,
-5984,-2004,14988,-261,37,28,-14000,25000,214000,606062,
-6072,-2036,15024,-261,115,8,-14000,25000,214000,606064,
-6044,-2140,15020,-212,69,-8,-14000,25000,214000,606067,
-6172,-2080,15048,-276,-131,-58,-14000,25000,214000,606079,
-6228,-2168,15016,-246,-256,-59,-14000,25000,214000,606082,
-6316,-2164,14900,-292,-343,-77,-14000,25000,214000,606084,
-6228,-2276,14972,-321,-793,-152,-14000,25000,214000,606097,
-6204,-2140,14964,-340,-835,-214,-14000,25000,214000,606100,
-6176,-2184,14996,-315,-932,-184,-14000,25000,214000,606102,
-5984,-2040,14832,-407,-1126,-239,-14000,25000,214000,606115,
-6044,-1948,14736,-399,-1156,-262,-14000,25000,214000,606117,
-5848,-2052,14836,-437,-1111,-237,-14000,25000,214000,606120,
-5596,-2032,14876,-476,-823,-284,-14000,25000,214000,606132,
-5616,-2028,14932,-472,-705,-317,-14000,25000,214000,606135,
-5428,-2072,14732,-469,-620,-325,-14000,25000,214000,606137,
-5416,-2060,14976,-497,-184,-369,-14000,25000,214000,606150,
-5416,-2056,14608,-444,-168,-352,-14000,25000,214000,606152,
-5508,-2120,14772,-470,-103,-331,-14000,25000,214000,606155,
-5824,-2240,14780,-450,10,-391,-14000,25000,214000,606167,
-5940,-2248,14680,-489,6,-438,-14000,25000,214000,606170,
-5944,-2220,14892,-428,21,-488,-14000,25000,214000,606172,
-6104,-2128,15124,-486,-347,-558,-14000,25000,214000,606185,
-6004,-2064,15120,-434,-417,-574,-14000,25000,214000,606187,
-6000,-2212,15088,-473,-528,-589,-14000,24000,214000,606190,
-5684,-2192,15456,-410,-865,-722,-14000,24000,214000,606202,
-5588,-2200,15196,-410,-871,-757,-14000,24000,214000,606205,
-5560,-2208,15404,-399,-874,-794,-14000,24000,214000,606207,
-5276,-2084,15260,-351,-823,-835,-14000,24000,214000,606220,
-5300,-2072,15360,-273,-807,-880,-14000,24000,214000,606222,
-5480,-1860,15288,-253,-848,-861,-14000,24000,214000,606225,
-5148,-1812,15192,-139,-847,-1076,-14000,24000,214000,606237,
-5056,-1952,15436,-177,-861,-1119,-14000,24000,214000,606240,
-5036,-1912,15452,-173,-847,-1204,-14000,24000,214000,606242,
-4972,-1848,15620,-82,-940,-1360,-14000,24000,214000,606255,
-4832,-1868,15488,-29,-914,-1433,-14000,24000,214000,606257,
-4960,-1736,15452,-13,-967,-1451,-14000,24000,214000,606260,
-4840,-1832,15228,85,-1083,-1682,-14000,24000,213000,606272,
-4824,-1804,15300,50,-1108,-1715,-14000,23000,213000,606275,
-4748,-1964,15232,60,-1105,-1810,-14000,23000,213000,606277,
-4072,-1940,14264,10,-1177,-2250,-14000,23000,213000,606290,
-4020,-1796,14320,-28,-1077,-2399,-14000,23000,213000,606292,
-3700,-1920,13944,-6,-1063,-2555,-14000,23000,213000,606294,
-2480,-1748,12616,-389,-189,-3536,-14000,23000,213000,606307,
-2352,-1800,12244,-491,72,-3740,-14000,23000,213000,606310,
-2180,-1700,12124,-640,413,-3927,-14000,23000,213000,606312,
-1476,-1252,10488,-1459,1959,-4914,-15000,23000,212000,606325,
-1436,-1168,10188,-1701,2271,-5136,-15000,23000,212000,606327,
-1308,-1008,9900,-1845,2516,-5323,-15000,23000,212000,606329,
-2872,-32,9392,-3600,3539,-6503,-16000,23000,211000,606346,
-3656,124,9856,-3887,3609,-6597,-16000,23000,211000,606348,
-4316,-152,10112,-4166,3597,-6606,-16000,23000,211000,606351,
-8560,-1400,11500,-5767,3287,-6107,-17000,23000,210000,606363,
-9140,-1732,11700,-6039,3034,-5894,-17000,23000,210000,606366,
-9972,-2032,11756,-6366,2840,-5679,-17000,23000,210000,606368,
-12276,-2612,11712,-7690,1356,-4282,-18000,24000,209000,606381,
-12528,-2616,11468,-8007,1053,-3972,-18000,24000,209000,606383,
-12820,-2652,11532,-8197,713,-3646,-18000,24000,209000,606386,
-13636,-2680,11716,-9433,-967,-1628,-19000,24000,209000,606399,
-13708,-2852,11760,-9607,-1257,-1165,-19000,24000,209000,606401,
-13868,-3024,11912,-9782,-1462,-694,-20000,24000,209000,606404,
-14364,-4332,13516,-10347,-1780,1901,-20000,24000,209000,606416,
-14412,-4600,13672,-10403,-1748,2360,-21000,24000,209000,606419,
-14832,-5224,15456,-10318,-1655,4560,-21000,24000,210000,606431,
-14676,-5176,15580,-10272,-1589,4928,-22000,24000,210000,606434,
-14752,-5312,15676,-10141,-1644,5268,-22000,24000,210000,606436,
-14532,-5276,16624,-9648,-1698,6822,-22000,24000,211000,606449,
-14544,-5340,17028,-9474,-1765,7076,-22000,24000,211000,606451,
-14480,-5248,17088,-9358,-1833,7324,-22000,24000,211000,606454,
-13840,-4988,18340,-8412,-2203,8501,-23000,24000,212000,606466,
-13704,-4792,18544,-8247,-2239,8741,-23000,24000,212000,606469,
-12648,-4372,19460,-7052,-2534,9739,-23000,25000,213000,606481,
-12500,-4432,19504,-6894,-2524,9923,-23000,25000,213000,606484,
-12284,-4328,19660,-6595,-2560,10097,-23000,25000,214000,606486,
-10708,-4368,19920,-5407,-2311,11018,-23000,25000,215000,606499,
-10488,-4240,19956,-5159,-2305,11165,-23000,25000,215000,606501,
-10292,-4440,20032,-4958,-2218,11330,-23000,25000,215000,606504,
-8876,-4448,19856,-3797,-1982,11963,-23000,25000,217000,606516,
-8604,-4520,19648,-3630,-1936,12082,-23000,25000,217000,606519,
-8236,-4456,19768,-2558,-1958,12612,-22000,26000,218000,606531,
-8076,-4568,19940,-2380,-2000,12669,-22000,26000,219000,606534,
-7996,-4444,19720,-2140,-2135,12687,-22000,26000,219000,606536,
-7108,-4644,19768,-1121,-2794,12699,-22000,26000,220000,606549,
-6984,-4540,19824,-944,-2972,12678,-22000,26000,220000,606551,
-6660,-4640,19868,-781,-3122,12594,-21000,26000,221000,606554,
-5904,-4600,19908,241,-3688,12449,-21000,26000,222000,606567,
-5772,-4824,19908,446,-3732,12403,-21000,26000,222000,606569,
-5496,-4788,20032,688,-3842,12339,-20000,26000,223000,606572,
-4868,-4656,20148,1635,-4088,12084,-20000,26000,224000,606584,
-4860,-4656,20396,1839,-4144,12019,-19000,26000,224000,606587,
-4608,-4684,20324,1972,-4095,11951,-19000,26000,225000,606589,
-4600,-4908,20732,2955,-3667,11732,-18000,26000,226000,606602,
-4588,-4964,20788,3141,-3490,11749,-18000,26000,226000,606604,
-4480,-4844,20936,3393,-3346,11699,-18000,26000,227000,606607,
-3888,-4852,21104,4540,-2456,11581,-17000,26000,228000,606619,
-3644,-4600,21032,4794,-2345,11490,-17000,26000,228000,606622,
-3448,-4124,21252,6002,-1497,11025,-16000,26000,229000,606634,
-3636,-4164,21152,6158,-1364,10917,-15000,26000,230000,606637,
-3824,-4028,21180,6403,-1218,10839,-15000,26000,230000,606639,
-4812,-4112,21028,7446,-1237,10481,-14000,26000,231000,606652,
-4932,-4092,20936,7665,-1340,10437,-14000,26000,231000,606654,
-4976,-4112,21032,7933,-1592,10348,-13000,26000,231000,606657,
-5488,-4144,20652,8987,-3481,10034,-12000,26000,232000,606670,
-5468,-4056,20760,9126,-3883,9925,-12000,26000,233000,606672,
-5424,-4108,20480,9350,-4193,9872,-11000,26000,233000,606674,
-4424,-3888,20516,10269,-5935,9374,-10000,25000,234000,606687,
-4236,-3764,20432,10455,-6183,9276,-10000,25000,234000,606690,
-3096,-3744,20412,11141,-6821,8663,-8000,24000,235000,606703,
-2892,-3796,20448,11372,-6829,8501,-8000,24000,235000,606705,
-2680,-3692,20536,11420,-6767,8385,-8000,24000,236000,606707,
-1672,-3844,20432,11973,-5745,7733,-6000,24000,237000,606720,
-1584,-3876,20440,12009,-5476,7646,-6000,24000,237000,606722,
-1280,-3972,20424,12142,-5135,7559,-5000,23000,237000,606725,
-468,-4016,20544,12557,-3316,6962,-4000,23000,238000,606738,
-452,-4028,20444,12704,-2900,6856,-4000,23000,238000,606740,
-244,-4076,20420,12735,-2562,6735,-3000,23000,238000,606742,
348,-3676,19900,13143,-738,6201,-2000,23000,239000,606755,
224,-3592,19812,13174,-425,6105,-2000,23000,239000,606757,
268,-3564,19820,13277,-107,6018,-1000,23000,239000,606760,
-580,-3140,19412,13643,538,5698,0,23000,239000,606772,
-880,-2936,19560,13676,506,5632,0,23000,239000,606775,
-1124,-2916,19512,13791,408,5564,0,23000,240000,606777,
-1724,-2552,19200,14108,-647,5124,1000,22000,240000,606790,
-1864,-2336,19056,14119,-907,5037,2000,22000,240000,606792,
-1716,-2172,19052,14146,-1228,4931,2000,22000,240000,606794,
-1544,-1632,18572,14250,-2733,4295,3000,22000,241000,606807,
-1368,-1456,18392,14474,-2947,4149,4000,22000,241000,606810,
-1300,-1392,18212,14311,-3231,4000,4000,22000,241000,606812,
-676,-1152,18076,14766,-4182,3183,5000,21000,241000,606825,
-844,-1188,17988,14753,-4240,3062,6000,21000,241000,606827,
-744,-1104,17812,14827,-4257,2910,6000,21000,241000,606829,
-268,-928,17044,15054,-4344,2201,7000,20000,241000,606842,
-160,-916,16920,15171,-4333,2031,8000,20000,241000,606844,
-56,-920,16964,15168,-4391,1874,8000,20000,241000,606847,
-328,-372,16012,15300,-4639,1066,9000,20000,241000,606859,
-380,-244,15788,15285,-4685,904,10000,20000,241000,606862,
-348,-148,15704,15381,-4704,723,10000,19000,241000,606864,
-696,252,14964,15490,-5416,-215,11000,19000,241000,606877,
-716,356,14768,15560,-5629,-408,11000,19000,241000,606879,
-768,456,14796,15579,-5879,-602,12000,19000,241000,606881,
-900,920,14052,15643,-7257,-1761,13000,18000,241000,606894,
-1020,984,13936,15590,-7496,-1948,13000,18000,241000,606896,
-896,948,13804,15561,-7718,-2188,14000,18000,241000,606899,
-656,1384,12864,15511,-8941,-3414,15000,17000,240000,606912,
-660,1436,12864,15510,-9145,-3661,15000,17000,240000,606914,
-640,1608,12740,15570,-9382,-3911,15000,16000,240000,606916,
-476,1728,12004,15339,-10236,-5112,17000,15000,239000,606929,
-364,1728,11868,15230,-10382,-5276,17000,15000,239000,606931,
-148,1816,11848,15194,-10483,-5527,17000,15000,239000,606934,
164,2084,11184,14846,-10902,-6743,18000,14000,238000,606946,
228,2308,11136,14789,-10966,-7033,18000,14000,237000,606949,
304,2372,11160,14714,-10990,-7227,19000,14000,237000,606951,
460,2608,10240,14125,-10844,-8443,20000,13000,236000,606964,
488,2608,10280,14001,-10791,-8611,20000,13000,236000,606966,
592,2712,10096,13991,-10690,-8809,20000,13000,236000,606968,
460,3116,9320,13281,-10359,-9935,21000,12000,234000,606981,
512,3284,9296,13191,-10278,-10181,21000,12000,234000,606983,
484,3312,9028,13082,-10211,-10402,21000,12000,234000,606986,
756,4012,8200,12174,-9906,-11686,22000,11000,232000,606998,
844,4040,8124,12003,-9889,-11855,22000,11000,232000,607001,
748,4212,8144,11784,-9866,-12198,23000,11000,232000,607003,
588,4584,7600,10752,-9796,-13395,23000,11000,230000,607016,
452,4620,7420,10542,-9723,-13636,23000,11000,230000,607018,
336,4716,7344,10397,-9655,-13891,24000,10000,230000,607021,
164,4620,7032,9108,-9251,-15009,24000,10000,228000,607033,
132,4636,7184,8923,-9211,-15177,24000,10000,228000,607036,
24,4524,7132,8646,-9117,-15311,24000,10000,227000,607038,
-232,4348,6896,7416,-8729,-16201,25000,10000,226000,607051,
-276,4256,6968,7169,-8683,-16349,25000,10000,225000,607053,
-260,4208,6880,6953,-8631,-16566,25000,10000,225000,607055,
-876,4084,6540,5667,-8054,-17202,25000,10000,223000,607068,
-992,3896,6436,5469,-7886,-17262,25000,10000,223000,607070,
-1120,3812,6372,5150,-7625,-17317,25000,10000,222000,607073,
-1472,3460,6364,3994,-6123,-17717,25000,10000,220000,607085,
-1428,3452,6308,3771,-5868,-17801,25000,10000,220000,607088,
-1480,3444,6124,3580,-5618,-17910,25000,10000,220000,607090,
-2216,3468,5212,2341,-4742,-18205,25000,11000,218000,607103,
-2320,3724,5132,2109,-4613,-18346,25000,11000,218000,607105,
-2676,3968,4948,1833,-4472,-18326,25000,11000,217000,607107,
-3212,4608,4860,305,-4210,-18610,25000,11000,216000,607120,
-3388,4900,4700,-45,-4213,-18649,25000,11000,215000,607122,
-3956,4876,4444,-1681,-4410,-18922,25000,12000,213000,607135,
-3920,4880,4612,-2041,-4485,-19004,25000,12000,213000,607137,
-3912,4868,4552,-2332,-4576,-19113,24000,12000,213000,607140,
-4216,4624,4732,-4066,-5086,-19274,24000,13000,211000,607152,
-4188,4476,4832,-4372,-5147,-19258,24000,13000,210000,607155,
-4192,4536,4836,-4736,-5198,-19207,23000,13000,210000,607157,
-4428,4180,5188,-6510,-5002,-19218,22000,13000,208000,607170,
-4356,4192,5416,-6884,-4840,-19199,22000,13000,208000,607172,
-4560,4056,5440,-7204,-4704,-19262,22000,13000,207000,607174,
-4928,3340,6288,-8874,-3166,-19021,21000,14000,205000,607187,
-5128,3040,6364,-9107,-2850,-18969,21000,14000,205000,607189,
-5476,3092,6364,-9356,-2447,-18830,20000,14000,205000,607192,
-6608,2364,6784,-10573,-744,-18504,19000,15000,203000,607205,
-6724,2224,6944,-10835,-561,-18395,18000,15000,203000,607207,
-7092,2140,6676,-11072,-320,-18402,18000,15000,202000,607209,
-8384,1636,7108,-12108,-203,-17862,17000,16000,201000,607222,
-8872,1548,7116,-12323,-234,-17847,16000,16000,200000,607224,
-10424,872,7768,-13255,-1008,-17010,14000,16000,199000,607237,
-10812,632,7968,-13436,-1216,-16911,14000,17000,198000,607239,
-11016,520,8024,-13581,-1443,-16640,14000,17000,198000,607242,
-11440,-180,8748,-14409,-2589,-15599,12000,17000,196000,607254,
-11528,-384,8984,-14552,-2779,-15402,11000,17000,196000,607257,
-11468,-312,8944,-14731,-2884,-15275,11000,17000,196000,607259,
-11088,-696,10104,-15423,-2750,-14161,9000,17000,194000,607272,
-11004,-796,10300,-15519,-2584,-14006,9000,17000,194000,607274,
-11032,-904,10440,-15606,-2368,-13670,8000,17000,194000,607277,
-10924,-1164,10984,-16095,-948,-12518,6000,18000,192000,607289,
-10896,-1236,11160,-16173,-654,-12302,6000,18000,192000,607292,
-11512,-1492,12072,-16427,1111,-11084,4000,18000,191000,607304,
-11648,-1536,11964,-16476,1455,-10872,3000,18000,191000,607307,
-11868,-1808,12024,-16548,1750,-10694,3000,18000,191000,607309,
-12308,-1704,12128,-16688,2661,-9437,1000,19000,190000,607322,
-12520,-1504,12060,-16681,2667,-9218,1000,19000,189000,607324,
-12436,-1412,12100,-16721,2735,-8977,0,19000,189000,607327,
-12772,-1000,12064,-16972,2536,-7917,-1000,19000,188000,607339,
-12792,-948,11868,-17072,2432,-7742,-1000,19000,188000,607342,
-12792,-1036,11792,-17174,2359,-7608,-1000,19000,188000,607344,
-12716,-1092,12508,-17649,1974,-6656,-3000,20000,187000,607357,
-12804,-1212,12936,-17687,1943,-6488,-4000,20000,187000,607359,
-12856,-2036,13448,-18032,2017,-5589,-6000,20000,187000,607372,
-12820,-2088,13600,-18006,1978,-5383,-6000,20000,187000,607374,
-12740,-2288,13672,-18114,1952,-5233,-6000,20000,186000,607376,
-12808,-2668,14808,-18331,2032,-4309,-8000,20000,186000,607389,
-13104,-2824,15052,-18404,2173,-4124,-9000,20000,186000,607392,
-13116,-2984,15136,-18397,2355,-3904,-9000,20000,186000,607394,
-13600,-3768,15160,-18525,3014,-2538,-11000,21000,185000,607407,
-13672,-3852,15052,-18472,3048,-2257,-11000,21000,185000,607409,
-13888,-4092,15408,-18622,3319,-1030,-13000,21000,185000,607422,
-13992,-4156,15332,-18589,3309,-731,-14000,21000,185000,607424,
-13912,-4352,15204,-18669,3330,-508,-14000,21000,185000,607427,
-14584,-4844,15668,-18614,3016,956,-16000,22000,185000,607439,
-14688,-4996,15732,-18664,3007,1275,-16000,22000,185000,607442,
-14760,-5196,15952,-18600,2887,1605,-16000,22000,185000,607444,
-15068,-5180,16592,-18606,2197,3289,-18000,22000,185000,607457,
-15104,-5180,16868,-18546,1974,3640,-18000,22000,186000,607459,
-15140,-5140,16964,-18614,1864,3955,-19000,23000,186000,607462,
-14784,-5180,17300,-18587,1198,5621,-20000,23000,186000,607474,
-14620,-5128,17356,-18624,1183,5958,-21000,23000,186000,607477,
-13860,-5580,18092,-18411,1266,7605,-22000,23000,187000,607489,
-13736,-5544,18228,-18349,1298,7951,-22000,24000,187000,607492,
-13756,-5624,18236,-18266,1386,8282,-23000,24000,187000,607494,
-13968,-5768,18388,-17912,1203,9914,-24000,24000,188000,607507,
-14032,-5760,18436,-17861,1120,10233,-24000,24000,188000,607509,
-14264,-5744,18480,-17860,1071,10547,-25000,24000,189000,607512,
-14708,-6096,18312,-17469,-88,11994,-26000,25000,190000,607525,
-14792,-6192,18540,-17418,-398,12313,-26000,25000,190000,607527,
-14360,-7256,20136,-16597,-2917,14169,-27000,26000,192000,607543,
-14036,-7448,20204,-16504,-3202,14477,-27000,26000,192000,607546,
-13816,-7672,20384,-16359,-3618,14706,-27000,26000,192000,607548,
-13068,-8264,20980,-15393,-4760,16008,-28000,26000,194000,607561,
-13008,-8340,21244,-15092,-4944,16236,-28000,26000,195000,607563,
-11492,-9036,22096,-13869,-5620,17549,-29000,27000,197000,607576,
-11100,-9084,22300,-13536,-5670,17653,-29000,27000,197000,607578,
-10728,-9044,22348,-13267,-5697,17811,-29000,27000,197000,607581,
-9204,-9572,22448,-11584,-5082,18367,-29000,27000,199000,607593,
-8936,-9528,22340,-11269,-4790,18548,-29000,27000,200000,607596,
-8692,-9568,22488,-10859,-4582,18663,-29000,27000,200000,607598,
-7428,-9816,23012,-9065,-3558,19378,-29000,28000,202000,607611,
-7252,-9892,23072,-8723,-3471,19369,-29000,28000,203000,607613,
-6472,-10196,23196,-6705,-3360,19457,-28000,29000,205000,607626,
-6316,-10248,23308,-6382,-3400,19411,-28000,29000,205000,607629,
-5964,-10212,23420,-6018,-3392,19479,-28000,29000,206000,607631,
-4244,-10156,23616,-3939,-3989,18993,-28000,29000,208000,607644,
-3812,-10000,23444,-3485,-4088,18906,-27000,29000,208000,607646,
-3652,-9996,23364,-3082,-4142,18745,-27000,29000,208000,607648,
-1728,-9528,22908,-864,-4120,17915,-26000,30000,210000,607661,
-1492,-9428,22824,-519,-4069,17652,-26000,30000,211000,607664,
-940,-9312,22556,-99,-3948,17442,-26000,30000,211000,607666,
1016,-8492,21376,1751,-3055,15822,-25000,30000,213000,607679,
1324,-8460,21212,2134,-2805,15479,-25000,30000,213000,607681,
1516,-8184,20956,2425,-2577,15101,-24000,30000,214000,607684,
2400,-7340,20004,3760,-1238,13303,-23000,30000,215000,607696,
2472,-7160,19804,3900,-955,12942,-23000,30000,215000,607699,
2600,-7084,19756,4089,-691,12645,-23000,30000,216000,607702,
2552,-6468,18848,4595,95,11066,-22000,30000,217000,607714,
2572,-6548,18588,4707,210,10829,-22000,30000,217000,607717,
2292,-6440,18116,4675,302,10508,-21000,31000,217000,607719,
1304,-6488,17040,4808,120,9340,-20000,31000,218000,607732,
1120,-6468,16996,4737,-68,9159,-20000,31000,218000,607734,
944,-6340,16760,4728,-278,9008,-20000,31000,219000,607737,
-216,-6148,15468,4402,-1728,8131,-19000,31000,220000,607749,
-416,-6044,15120,4345,-1994,7922,-19000,31000,220000,607752,
-500,-6028,14852,4248,-2303,7709,-19000,31000,220000,607754,
-700,-5528,13580,3776,-3320,6578,-18000,30000,221000,607767,
-652,-5412,13336,3647,-3441,6366,-18000,30000,221000,607770,
-624,-5412,13316,3569,-3499,6134,-18000,30000,221000,607772,
-708,-4916,12752,2960,-3383,5079,-17000,30000,222000,607785,
-740,-4872,12632,2853,-3227,4869,-17000,30000,222000,607787,
-888,-4908,12596,2672,-3067,4684,-17000,30000,222000,607790,
-1316,-4660,12216,2126,-1964,3772,-16000,30000,222000,607802,
-1552,-4576,12184,2013,-1676,3599,-16000,29000,222000,607805,
-1604,-4544,12128,1959,-1465,3372,-16000,29000,223000,607808,
-2588,-4352,12192,1478,-469,2428,-16000,29000,223000,607820,
-2840,-4384,12076,1406,-394,2248,-16000,29000,223000,607823,
-2964,-4284,12004,1270,-316,2098,-16000,29000,223000,607825,
-3764,-3996,11604,889,-326,1315,-16000,29000,223000,607838,
-3952,-4036,11764,816,-328,1150,-16000,29000,223000,607840,
-4060,-3844,11708,794,-413,1012,-16000,29000,223000,607843,
-4484,-3360,11392,421,-661,238,-16000,29000,223000,607855,
-4608,-3376,11536,389,-739,132,-16000,29000,223000,607858,
-4588,-3176,11452,295,-750,22,-16000,29000,223000,607860,
-4892,-2896,11332,38,-631,-555,-16000,29000,223000,607873,
-4928,-2820,11300,-51,-529,-672,-16000,29000,223000,607875,
-5388,-2584,11700,-288,-5,-1186,-16000,29000,223000,607888,
-5472,-2608,11688,-337,173,-1249,-16000,29000,223000,607890,
-5636,-2704,11820,-357,234,-1313,-16000,29000,223000,607893,
-6088,-2524,12040,-505,944,-1658,-16000,29000,223000,607905,
-6076,-2356,11956,-510,978,-1685,-16000,29000,223000,607908,
-6360,-2348,12036,-552,1058,-1748,-16000,29000,223000,607910,
-6984,-2264,12472,-772,1386,-1957,-16000,29000,222000,607923,
-7116,-2188,12612,-817,1471,-2009,-16000,29000,222000,607925,
-7424,-2188,12528,-781,1519,-2006,-16000,29000,222000,607928,
-7712,-2136,12648,-871,1552,-2024,-16000,29000,222000,607940,
-7880,-2076,12816,-864,1496,-2039,-16000,29000,222000,607943,
-7816,-1968,12828,-890,1509,-2022,-16000,29000,222000,607945,
-8024,-1832,13076,-945,1529,-2078,-17000,29000,222000,607958,
-8096,-1888,13216,-955,1548,-2095,-17000,29000,222000,607960,
-8168,-1792,13304,-983,1626,-2122,-17000,29000,222000,607963,
-8260,-1944,13252,-1058,1688,-1950,-17000,29000,221000,607975,
-8460,-2000,13436,-997,1696,-1926,-17000,29000,221000,607978,
-8492,-1856,13368,-1043,1718,-1880,-17000,29000,221000,607980,
-8572,-2000,13448,-981,1789,-1797,-17000,30000,221000,607993,
-8436,-1888,13588,-1030,1825,-1748,-17000,30000,221000,607995,
-8556,-1916,13668,-955,1901,-1797,-17000,30000,221000,607998,
-8476,-1944,13872,-998,2069,-1690,-17000,30000,221000,608011,
-8436,-1904,13956,-949,2041,-1669,-17000,30000,221000,608013,
-8524,-1980,13984,-972,2018,-1627,-17000,30000,221000,608016,
-8708,-2204,14060,-864,2028,-1512,-18000,30000,220000,608028,
-8524,-2236,14172,-882,2013,-1488,-18000,30000,220000,608031,
-8512,-2160,14124,-854,2023,-1496,-18000,30000,220000,608033,
-8592,-2388,14244,-838,2057,-1341,-18000,30000,220000,608046,
-8572,-2424,14384,-796,2007,-1360,-18000,30000,220000,608049,
-8520,-2424,14360,-802,2015,-1295,-18000,30000,220000,608051,
-8196,-2496,14344,-657,1988,-1215,-18000,30000,220000,608064,
-8152,-2464,14296,-671,2040,-1225,-18000,30000,220000,608066,
-7964,-2440,14260,-622,2100,-1208,-18000,30000,220000,608069,
-7636,-2340,14372,-636,2390,-1097,-18000,31000,220000,608081,
-7584,-2384,14352,-587,2405,-1086,-18000,31000,220000,608084,
-7660,-2376,14436,-620,2448,-1061,-18000,31000,220000,608086,
-7716,-2556,14456,-569,2666,-851,-18000,31000,220000,608099,
-7716,-2520,14476,-623,2692,-806,-18000,31000,219000,608102,
-7540,-2652,14412,-598,2724,-809,-18000,31000,219000,608104,
-7540,-2456,14800,-708,2620,-658,-18000,31000,219000,608117,
-7596,-2256,14632,-710,2545,-659,-18000,31000,219000,608119,
-7636,-2368,14744,-765,2395,-596,-18000,31000,219000,608122,
-7984,-2584,14848,-888,1777,-394,-18000,31000,219000,608134,
-7948,-2564,14772,-956,1626,-359,-18000,31000,219000,608137,
-7856,-2600,14832,-980,1493,-343,-18000,31000,219000,608139,
-7836,-2668,14868,-1111,677,-144,-19000,31000,219000,608152,
-7780,-2728,14816,-1068,571,-139,-19000,31000,219000,608155,
-7692,-2680,14820,-1130,426,-123,-19000,31000,219000,608157,
-7264,-2780,14908,-1149,150,-15,-19000,31000,219000,608170,
-7144,-2788,14904,-1220,128,27,-19000,31000,219000,608172,
-7124,-2812,14940,-1204,148,15,-19000,31000,219000,608175,
-7116,-3004,15228,-1198,208,197,-19000,31000,219000,608187,
-7224,-2880,15104,-1163,211,188,-19000,31000,219000,608190,
-7112,-3024,15152,-1191,238,226,-19000,31000,219000,608192,
-7192,-3152,14968,-1057,226,178,-19000,31000,219000,608205,
-7308,-3124,14948,-1039,225,130,-19000,31000,219000,608207,
-7248,-3140,14840,-1026,235,101,-19000,31000,219000,608210,
-7288,-3180,14680,-775,135,-23,-19000,31000,219000,608223,
-7268,-3120,14816,-693,108,-53,-19000,31000,219000,608225,
-7360,-3184,14684,-684,97,-50,-19000,31000,219000,608228,
-7356,-3108,14576,-425,222,-229,-19000,31000,219000,608240,
-7200,-3104,14664,-422,304,-249,-19000,31000,219000,608243,
-7012,-2944,14404,-149,706,-422,-19000,31000,219000,608256,
-7012,-2996,14476,-103,848,-471,-19000,31000,219000,608258,
-6940,-2896,14452,-38,896,-487,-19000,31000,219000,608260,
-6984,-2940,14448,191,1431,-651,-19000,31000,219000,608273,
-6940,-2924,14312,166,1471,-680,-19000,31000,219000,608276,
-7096,-2984,14348,189,1523,-710,-19000,31000,219000,608278,
-7444,-3000,13996,341,1513,-832,-19000,31000,219000,608291,
-7500,-2896,14068,407,1536,-850,-19000,31000,219000,608293,
-7500,-2904,14088,426,1399,-854,-19000,31000,219000,608296,
-7860,-2956,13988,481,1216,-973,-19000,32000,219000,608309,
-8020,-2972,13896,449,1156,-971,-19000,32000,219000,608311,
-7848,-2956,13828,434,1122,-983,-19000,32000,219000,608314,
-7636,-2936,13888,453,884,-1008,-19000,32000,219000,608326,
-7556,-2972,13872,446,905,-1050,-19000,32000,219000,608329,
-7552,-2956,13868,457,904,-1015,-19000,32000,219000,608331,
-7676,-3068,13860,449,1078,-945,-19000,32000,218000,608344,
-7680,-3032,13900,420,1103,-901,-19000,32000,218000,608346,
-7660,-2928,13920,395,1180,-918,-19000,32000,218000,608349,
-7688,-3044,13708,328,1263,-844,-19000,32000,218000,608362,
-7680,-2936,13620,344,1310,-881,-19000,32000,218000,608364,
-7628,-2896,13640,340,1260,-861,-19000,32000,218000,608367,
-7888,-2804,13716,229,1267,-801,-19000,32000,218000,608379,
-8060,-2864,13708,193,1210,-772,-19000,32000,218000,608382,
-8152,-2900,13676,101,1173,-737,-19000,32000,218000,608384,
-8288,-2880,13748,-29,798,-745,-19000,32000,218000,608397,
-8288,-2968,13648,-35,756,-754,-19000,32000,218000,608399,
-8292,-2920,13608,-14,659,-743,-19000,32000,218000,608402,
-8396,-2768,13812,-38,239,-749,-19000,32000,218000,608415,
-8404,-2912,13808,-115,141,-720,-19000,32000,218000,608417,
-8300,-2960,13956,-100,114,-716,-19000,32000,218000,608420,
-8264,-2976,13724,-106,-56,-639,-19000,32000,218000,608432,
-8228,-2892,13872,-135,-2,-663,-19000,32000,218000,608435,
-8212,-2960,13752,-69,-22,-610,-19000,32000,218000,608437,
-7896,-2852,13868,-108,265,-575,-19000,32000,218000,608450,
-7932,-2824,13852,-93,295,-561,-19000,32000,218000,608452,
-8000,-2772,13748,-131,384,-535,-19000,32000,218000,608455,
-7960,-2968,13980,-109,765,-464,-19000,32000,218000,608468,
-7996,-2960,13988,-109,851,-463,-19000,32000,218000,608470,
-7932,-2904,13816,-65,879,-432,-19000,32000,218000,608473,
-8344,-2908,13728,-95,823,-344,-19000,32000,218000,608485,
-8392,-2804,13680,-81,715,-363,-19000,32000,218000,608488,
-8468,-2860,13944,-114,655,-362,-19000,32000,218000,608490,
-8628,-2856,13888,-73,186,-305,-19000,32000,218000,608503,
-8468,-2828,13980,-124,111,-311,-19000,32000,218000,608505,
-8512,-2884,13868,-98,55,-353,-19000,32000,218000,608508,
-8260,-2800,13856,-75,-108,-299,-19000,32000,218000,608521,
-8228,-2888,13776,-73,-100,-306,-19000,32000,218000,608523,
-8200,-2876,13636,-74,-78,-257,-19000,32000,218000,608525,
-7860,-2684,13812,-68,166,-192,-19000,32000,218000,608538,
-7804,-2780,13780,-99,191,-172,-19000,32000,218000,608541,
-7672,-2752,13636,-62,335,-172,-19000,32000,218000,608543,
-8028,-2800,13812,-116,540,-117,-19000,32000,218000,608556,
-7916,-2808,13900,-95,608,-117,-19000,32000,218000,608558,
-7916,-2796,13788,-116,572,-92,-19000,32000,218000,608561,
-8252,-2796,13800,-131,450,-7,-19000,32000,218000,608573,
-8284,-2900,13512,-163,386,11,-19000,32000,218000,608576,
-8192,-2868,13660,-200,339,-24,-19000,32000,218000,608578,
-8256,-2896,13640,-216,14,-22,-19000,32000,218000,608591,
-8292,-2976,13604,-197,-33,-56,-19000,32000,218000,608594,
-8212,-3052,13564,-221,-115,-9,-19000,32000,218000,608596,
-7968,-2996,13528,-256,-107,33,-19000,32000,218000,608609,
-7844,-2868,13648,-311,-71,51,-19000,32000,218000,608611,
-7884,-3004,13672,-307,-17,62,-19000,32000,218000,608614,
-7880,-2976,13508,-351,148,131,-19000,32000,218000,608626,
-7860,-2936,13680,-362,230,115,-19000,32000,218000,608629,
-7948,-2984,13576,-322,225,134,-19000,32000,218000,608631,
-7876,-2968,13460,-415,331,174,-19000,32000,218000,608644,
-7860,-2956,13680,-443,304,147,-19000,32000,218000,608646,
-7840,-2956,13404,-444,342,134,-19000,32000,218000,608649,
-7956,-2948,13468,-497,237,101,-19000,32000,218000,608662,
-7988,-3024,13612,-527,263,82,-19000,32000,218000,608664,
-8112,-3008,13636,-529,215,72,-19000,32000,218000,608667,
-7856,-2972,13560,-560,177,27,-19000,32000,218000,608679,
-7740,-2992,13724,-570,143,9,-19000,32000,218000,608682,
-7804,-2908,13752,-612,173,39,-19000,32000,218000,608684,
-7620,-3004,13696,-614,197,41,-19000,32000,218000,608697,
-7684,-2896,13580,-616,281,36,-19000,32000,218000,608699,
-7648,-3096,13636,-562,267,45,-19000,32000,218000,608702,
-7724,-3064,13664,-626,382,37,-19000,32000,218000,608715,
-7720,-2988,13780,-621,361,52,-19000,32000,218000,608717,
