Ax,Ay,Az,Gx,Gy,Gz,Roll,Pitch,Yaw,Timestamp,Target
68,864,16708,-494,193,52,-3000,4000,90000,622476,
-92,824,16728,-512,153,29,-3000,4000,90000,622479,
-280,836,16844,-518,-35,4,-3000,4000,90000,622491,
-256,796,16872,-519,-58,43,-3000,4000,90000,622494,
-244,760,16788,-508,-84,37,-3000,4000,90000,622496,
-292,792,16884,-458,-135,76,-3000,4000,90000,622498,
-276,1036,16840,-436,-234,115,-3000,4000,90000,622511,
-72,948,16776,-411,-272,104,-3000,4000,90000,622513,
-196,1040,16868,-429,-280,133,-3000,4000,90000,622516,
32,1168,16992,-363,-31,146,-3000,4000,90000,622532,
124,1164,17212,-270,31,120,-3000,4000,90000,622534,
44,1116,17184,-212,15,118,-3000,4000,90000,622537,
20,1148,16908,-254,108,122,-3000,4000,90000,622539,
-344,1208,16944,-251,291,281,-3000,4000,90000,622552,
-428,1272,16848,-297,311,315,-3000,4000,90000,622554,
-428,1372,16932,-280,364,346,-3000,4000,90000,622556,
-544,1376,16900,-243,381,505,-3000,4000,90000,622569,
-452,1520,16980,-224,400,478,-3000,4000,90000,622571,
-576,1352,16852,-191,377,487,-3000,4000,90000,622574,
-608,1484,16748,-226,411,507,-3000,4000,90000,622576,
-316,1748,16644,-262,418,539,-2000,4000,90000,622588,
-400,1796,16788,-339,448,545,-2000,4000,90000,622591,
-292,1752,16840,-350,472,515,-2000,4000,90000,622593,
-584,1580,16908,-315,413,466,-2000,4000,90000,622606,
-524,1428,16940,-236,449,426,-2000,4000,90000,622608,
-520,1460,17088,-202,406,425,-2000,4000,90000,622611,
-564,1268,17020,-221,381,384,-2000,4000,90000,622613,
-700,1328,17116,-97,80,378,-2000,4000,90000,622626,
-844,1484,17144,-112,16,396,-2000,4000,90000,622628,
-796,1516,17216,-135,5,348,-2000,4000,90000,622630,
-584,1364,17160,-66,-269,195,-2000,4000,90000,622643,
-616,1388,17212,-52,-289,125,-2000,4000,90000,622645,
-480,1388,17132,11,-334,45,-2000,4000,90000,622647,
-412,1436,17192,-8,-360,16,-2000,4000,90000,622650,
-148,1208,17448,243,-420,-281,-2000,4000,90000,622662,
-148,1244,17568,242,-391,-307,-2000,4000,90000,622665,
-24,1120,17608,279,-373,-369,-2000,4000,90000,622667,
76,1260,17808,580,-190,-600,-2000,4000,90000,622680,
48,1280,17740,663,-85,-622,-2000,4000,90000,622682,
-92,1332,17852,794,-30,-658,-2000,4000,90000,622684,
-32,1300,17980,811,11,-660,-2000,4000,90000,622687,
-288,1560,17744,1185,414,-875,-2000,4000,90000,622699,
-296,1660,17756,1236,424,-870,-2000,4000,90000,622702,
-320,1720,17716,1276,506,-887,-2000,4000,90000,622704,
-268,1900,17636,1498,891,-988,-2000,4000,90000,622717,
-176,1948,17640,1538,956,-969,-2000,4000,90000,622719,
-168,2036,17752,1577,1044,-1004,-2000,4000,90000,622721,
-196,2044,17260,1739,1322,-945,-1000,4000,90000,622734,
-236,2184,17424,1790,1440,-956,-1000,4000,90000,622736,
-468,2144,17236,1857,1476,-909,-1000,4000,90000,622738,
-684,2312,17292,2020,1689,-706,-1000,4000,89000,622751,
-720,2348,17256,2049,1633,-624,-1000,4000,89000,622753,
-872,2360,17120,2017,1664,-566,-1000,4000,89000,622756,
-1176,2796,17124,2175,1571,-423,-1000,4000,89000,622768,
-1240,3036,17084,2136,1587,-389,-1000,4000,89000,622771,
-1256,2944,16980,2160,1661,-427,-1000,5000,89000,622773,
-1288,3084,16680,2001,1447,-405,0,5000,89000,622786,
-1264,3064,16468,2019,1394,-461,0,5000,89000,622788,
-1132,3080,16436,1971,1314,-463,0,5000,89000,622790,
-1180,3072,16548,1895,1209,-448,0,5000,89000,622793,
-1048,2596,16312,1737,932,-431,0,5000,89000,622805,
-988,2608,16236,1677,909,-397,0,5000,89000,622808,
-1016,2516,16384,1660,883,-400,0,5000,89000,622810,
-880,2540,16292,1674,797,-346,0,5000,89000,622812,
-624,2324,16192,1591,940,-220,0,5000,89000,622825,
-532,2392,16100,1642,976,-206,0,5000,89000,622827,
-504,2408,16088,1607,1006,-203,0,5000,89000,622830,
-692,2448,15900,1563,1140,-116,0,5000,89000,622842,
-844,2472,15896,1490,1103,-38,0,5000,89000,622845,
-872,2504,15832,1482,1107,13,0,5000,89000,622847,
-964,2504,15828,1446,1057,38,0,5000,89000,622849,
-900,2652,15788,1089,635,314,0,5000,89000,622862,
-1032,2724,16072,1127,516,319,0,5000,89000,622864,
-972,2716,15988,994,414,384,0,5000,89000,622867,
-864,2568,16048,978,329,376,0,5000,89000,622869,
-228,2196,16124,818,-37,435,0,5000,89000,622881,
-108,2084,16116,789,-70,412,0,5000,89000,622884,
28,1916,16120,848,-81,381,0,5000,89000,622886,
160,1884,16176,853,-97,400,0,5000,89000,622888,
644,1944,16080,1021,225,329,0,5000,89000,622901,
636,2120,16108,1038,306,340,0,5000,89000,622903,
744,2216,16080,1040,427,312,0,5000,89000,622906,
848,2268,16076,1125,603,307,0,5000,89000,622908,
680,2804,15372,1086,1440,239,1000,5000,89000,622924,
656,2840,15300,991,1575,207,1000,5000,89000,622927,
584,2728,15308,972,1702,178,1000,5000,89000,622929,
484,2736,15208,987,1813,146,1000,5000,89000,622931,
-176,2012,15356,743,2042,-31,1000,5000,89000,622944,
-344,1856,15400,798,1952,-62,1000,5000,89000,622946,
-508,1772,15460,729,1930,-67,1000,5000,89000,622949,
-748,864,16032,793,1450,-115,1000,6000,89000,622961,
-596,660,15952,761,1321,-102,1000,6000,89000,622964,
-564,344,15976,779,1207,-111,1000,6000,89000,622966,
-580,332,16228,842,1142,-77,1000,6000,89000,622968,
-316,28,16176,1019,1020,117,1000,6000,89000,622981,
-172,12,16088,1110,1008,165,1000,6000,89000,622983,
-168,24,16280,1122,1046,210,1000,6000,90000,622986,
12,100,15924,1125,1098,281,1000,6000,90000,622988,
344,484,15520,1277,1480,631,1000,6000,90000,623001,
388,560,15236,1281,1603,683,1000,6000,90000,623003,
504,596,15200,1288,1659,718,1000,6000,90000,623005,
368,476,14748,1111,1910,916,1000,6000,90000,623018,
164,380,14664,1097,1954,943,2000,6000,90000,623020,
156,496,14512,1069,1912,1010,2000,6000,90000,623023,
100,472,14548,959,1923,1057,2000,6000,90000,623025,
-552,908,14380,486,1442,1570,2000,6000,90000,623038,
-748,1052,14428,318,1313,1734,2000,6000,90000,623040,
-856,1312,14512,207,1097,1856,2000,6000,90000,623043,
-1012,1640,14824,36,745,2069,2000,6000,90000,623045,
-1528,3016,16240,-993,-823,2969,2000,6000,90000,623058,
-1524,3000,16276,-1256,-1039,3044,2000,6000,90000,623060,
-1332,2932,16136,-1534,-1233,3050,2000,6000,90000,623062,
-92,1148,15988,-2555,-3005,2090,1000,6000,91000,623075,
-164,860,16164,-2682,-3339,1876,1000,6000,91000,623077,
-24,408,16204,-2713,-3596,1677,1000,6000,91000,623080,
368,-560,15940,-2858,-3912,1603,1000,5000,91000,623092,
552,-592,15908,-2838,-3871,1671,1000,5000,91000,623095,
784,-628,15800,-2802,-3799,1769,1000,5000,91000,623097,
2260,184,15644,-2581,-2948,1873,1000,5000,91000,623110,
2556,360,15608,-2510,-2715,1798,1000,5000,91000,623112,
2588,648,15664,-2479,-2389,1692,1000,5000,91000,623114,
2584,2020,15484,-2322,-659,1053,0,4000,91000,623127,
2320,2288,15436,-2348,-348,947,0,4000,91000,623129,
2048,2272,15532,-2334,-56,815,0,4000,91000,623132,
1904,2516,15464,-2378,156,741,0,4000,91000,623134,
528,2456,16108,-2642,931,348,0,4000,91000,623147,
372,2424,16312,-2670,895,302,0,4000,91000,623149,
136,2248,16348,-2740,881,248,0,4000,91000,623151,
24,1952,16272,-2790,829,173,0,4000,91000,623154,
-800,1712,17132,-2879,154,-128,0,4000,91000,623166,
-932,1540,17340,-2866,48,-133,0,4000,91000,623168,
-1048,1604,17388,-2827,-172,-104,0,4000,91000,623171,
-1052,1584,17592,-2829,-326,-77,0,4000,91000,623173,
-500,2132,17916,-2649,-858,44,0,4000,91000,623186,
-436,2320,17856,-2695,-891,64,0,4000,91000,623188,
-308,2428,17816,-2679,-933,14,0,4000,91000,623190,
-284,2532,17740,-2636,-1018,-35,0,4000,91000,623193,
220,2680,17580,-2529,-1030,-327,0,4000,91000,623205,
276,2664,17596,-2461,-998,-373,0,4000,91000,623208,
260,2708,17364,-2454,-973,-403,0,4000,91000,623210,
396,2308,17112,-2218,-868,-649,0,4000,91000,623223,
324,2180,17184,-2213,-853,-667,0,4000,91000,623225,
260,2176,17140,-2136,-789,-713,0,4000,91000,623227,
320,2152,17184,-2056,-748,-722,0,4000,91000,623230,
136,2076,17436,-1732,-276,-700,0,4000,91000,623242,
168,2092,17484,-1618,-227,-705,0,4000,91000,623245,
152,2148,17612,-1577,-126,-668,0,4000,91000,623247,
160,2176,17732,-1546,-12,-661,0,4000,91000,623249,
-236,2204,17840,-1172,573,-593,0,4000,91000,623266,
-308,2172,17876,-1079,617,-528,0,4000,91000,623268,
-372,2048,17936,-1074,635,-526,0,4000,91000,623270,
-396,2068,17844,-1049,726,-512,-1000,4000,91000,623273,
-1084,1908,17712,-797,561,-297,-1000,4000,91000,623285,
-1088,1784,17824,-775,530,-269,-1000,4000,91000,623288,
-1204,1636,17872,-694,436,-194,-1000,4000,91000,623290,
-1440,1704,17568,-570,-18,99,-1000,4000,91000,623303,
-1248,1700,17716,-505,-159,155,-1000,4000,91000,623305,
-1244,1680,17588,-516,-258,224,-1000,4000,91000,623308,
-660,1704,17580,-371,-474,295,-1000,4000,91000,623320,
-440,1720,17556,-373,-457,312,-1000,4000,91000,623322,
-236,1744,17464,-342,-387,294,-1000,4000,91000,623325,
-168,1636,17380,-251,-353,279,-1000,4000,91000,623327,
368,1776,17336,4,169,225,-1000,4000,91000,623340,
460,1684,17380,81,200,254,-1000,4000,91000,623342,
496,1688,17256,104,276,269,0,4000,91000,623344,
268,1728,17268,388,758,247,0,4000,91000,623357,
-28,1776,17184,364,831,237,0,4000,91000,623359,
-88,1744,17056,412,902,246,0,4000,91000,623362,
-164,1696,17308,492,950,245,0,4000,91000,623364,
-332,1740,17008,498,921,236,0,4000,91000,623377,
-208,1688,16888,556,847,211,0,4000,91000,623379,
-272,1692,16948,528,811,206,0,4000,91000,623381,
-356,1744,16816,495,820,182,0,4000,91000,623384,
-256,1660,16936,548,809,148,0,4000,91000,623396,
4,1632,16976,538,821,124,0,4000,91000,623399,
-64,1728,16920,562,852,97,0,4000,91000,623401,
-28,1728,16816,543,846,116,0,4000,91000,623403,
-324,1564,16768,635,1091,116,0,4000,91000,623416,
-132,1560,16840,616,1074,187,0,4000,91000,623418,
-272,1564,16816,633,1130,187,0,4000,91000,623421,
-160,1552,16984,656,1173,180,0,4000,91000,623423,
-156,1584,17004,654,1032,193,0,4000,91000,623436,
-212,1632,16820,684,1042,168,0,4000,91000,623438,
-264,1656,16808,743,971,144,0,4000,91000,623440,
-264,1568,16872,708,983,174,0,4000,91000,623443,
-312,1684,16604,779,987,184,0,4000,91000,623455,
-256,1764,16712,757,1002,187,0,4000,91000,623457,
-180,1740,16516,785,1002,191,0,4000,91000,623460,
-20,1784,16436,801,1003,199,0,4000,91000,623462,
224,1872,16520,826,1245,178,0,4000,91000,623475,
216,1856,16592,850,1273,190,0,4000,91000,623477,
364,1852,16440,830,1367,185,0,5000,91000,623479,
404,1792,16496,841,1523,146,0,5000,91000,623482,
748,1912,16500,905,1919,9,0,5000,91000,623494,
628,1864,16352,925,2067,-68,0,5000,91000,623497,
772,1940,16528,972,2077,-78,0,5000,91000,623499,
692,1860,16528,970,2193,-114,0,5000,91000,623502,
664,2016,16476,1099,2836,-179,0,5000,91000,623514,
588,1956,16464,1055,2957,-187,0,5000,91000,623517,
648,2204,16380,1048,3129,-214,0,5000,91000,623519,
644,2124,16536,1095,3185,-179,0,5000,91000,623521,
696,2476,16340,1056,3988,-212,0,5000,91000,623534,
780,2452,16536,1043,4128,-172,0,6000,91000,623536,
780,2476,16492,1032,4351,-209,0,6000,91000,623539,
956,2600,16436,1020,4576,-276,0,6000,91000,623541,
1392,2560,16112,914,6062,-619,0,6000,91000,623554,
1496,2672,16240,944,6390,-673,0,6000,91000,623556,
1592,2652,16256,903,6693,-690,0,6000,91000,623558,
1732,2684,16300,875,7085,-750,0,6000,91000,623561,
2124,2664,16008,822,9583,-834,1000,7000,91000,623573,
2236,2620,15928,846,10182,-812,1000,7000,91000,623576,
2236,2496,15944,950,10855,-823,1000,8000,91000,623578,
2340,2532,15704,1112,13813,-851,1000,9000,91000,623591,
2252,2520,15520,1102,14372,-922,1000,9000,91000,623593,
2148,2480,15764,1164,14847,-886,1000,9000,91000,623595,
1196,2328,15412,1323,17926,-749,1000,11000,91000,623608,
724,2392,15360,1335,18341,-725,1000,11000,91000,623610,
640,2200,15516,1345,18846,-641,1000,12000,91000,623613,
-624,2296,15532,1365,21131,-298,1000,14000,91000,623625,
-908,2184,15528,1351,21481,-219,1000,14000,91000,623628,
-1020,2412,15488,1321,21910,-163,1000,14000,91000,623630,
-2380,2188,15412,1270,23086,108,2000,17000,91000,623642,
-2552,2232,15304,1285,23348,150,2000,17000,91000,623645,
-2880,2244,15232,1309,23305,172,2000,17000,91000,623647,
-4124,2164,15188,1242,23541,103,2000,20000,91000,623660,
-4356,2108,15028,1223,23522,97,2000,20000,91000,623662,
-5416,2312,14824,1216,23593,129,2000,22000,91000,623675,
-5588,2236,14700,1282,23366,158,2000,23000,92000,623677,
-5664,2308,14576,1256,23239,98,2000,23000,92000,623679,
-6352,2452,14356,1350,22683,-55,2000,25000,92000,623692,
-6532,2564,14368,1307,22531,-68,2000,26000,92000,623694,
-6648,2580,14260,1320,22556,-151,2000,26000,92000,623697,
-7016,2624,14020,1343,22199,-229,3000,28000,92000,623709,
-7076,2648,14036,1306,22267,-236,3000,29000,92000,623712,
-7092,2672,13976,1329,22262,-260,3000,29000,92000,623714,
-6888,2808,13048,1294,22842,-253,3000,31000,92000,623727,
-6992,2888,12920,1284,23132,-239,3000,32000,92000,623729,
-6932,2852,12908,1212,23442,-190,3000,32000,92000,623732,
-6444,3032,12312,1186,26124,26,3000,35000,92000,623744,
-6380,3128,12292,1215,26598,64,3000,35000,92000,623747,
-6264,3104,12152,1225,27258,56,3000,36000,92000,623749,
-6264,3140,12128,1301,27775,44,4000,36000,92000,623752,
-6448,3100,11188,1594,30875,79,4000,39000,93000,623764,
-6624,3176,11008,1608,31328,88,4000,40000,93000,623767,
-6960,3008,10928,1589,31950,161,4000,40000,93000,623769,
-8524,3132,10304,1681,32767,545,5000,43000,93000,623782,
-8896,3168,10052,1616,32767,678,5000,44000,94000,623784,
-9164,3216,10064,1559,32767,763,5000,45000,94000,623786,
-10296,3380,9552,1427,32767,1227,6000,48000,94000,623799,
-10400,3440,9224,1473,32767,1265,6000,48000,95000,623801,
-10732,3440,9128,1481,32767,1249,6000,49000,95000,623804,
-11860,3356,8324,1515,32767,1121,7000,52000,96000,623817,
-11916,3488,7756,1465,32767,1095,7000,53000,96000,623819,
-12300,3472,7740,1399,32767,1108,7000,53000,96000,623821,
-13380,3392,7264,1308,32767,1010,8000,56000,97000,623834,
-13408,3376,7236,1315,32767,994,8000,57000,97000,623837,
-13620,3272,7188,1337,32767,1048,9000,58000,97000,623839,
-13636,3304,6276,1314,32767,1096,10000,61000,99000,623852,
-13760,3236,6024,1289,32767,1116,10000,61000,99000,623854,
-13828,3424,6000,1246,32767,1119,10000,62000,99000,623856,
-13824,3280,4872,1281,32767,1330,12000,65000,101000,623869,
-13756,3188,4868,1234,32767,1315,13000,66000,102000,623872,
-13740,3196,4692,1241,32767,1360,13000,66000,102000,623874,
-13960,3072,3580,908,32767,1593,16000,69000,105000,623887,
-14336,3168,3408,972,32767,1673,16000,70000,105000,623889,
-14168,3280,3340,1003,32767,1713,17000,70000,106000,623891,
-14896,3456,2500,759,32767,1893,21000,73000,110000,623904,
-14804,3548,2152,708,32767,2015,22000,74000,111000,623907,
-14652,3348,2036,570,32767,2007,23000,75000,113000,623909,
-14864,3592,996,661,32767,1994,30000,77000,120000,623922,
-14892,3520,672,622,32767,1934,32000,78000,122000,623924,
-15000,3376,476,617,32767,1854,34000,78000,123000,623927,
-15736,3736,-324,356,32767,1751,47000,81000,136000,623939,
-16112,3956,-504,204,32767,2012,50000,81000,140000,623942,
-16264,3844,-588,162,32767,1866,54000,81000,143000,623944,
-16856,2992,-56,-522,31154,1577,75000,82000,165000,623957,
-16116,4284,-2016,-890,30677,1563,79000,83000,169000,623959,
-17420,3388,-776,-298,30483,1632,84000,83000,174000,623961,
-17252,3496,-2084,421,27641,1614,106000,82000,196000,623974,
-17624,3728,-2192,300,27460,1498,109000,82000,199000,623976,
-17312,3336,-2792,139,26814,1720,113000,82000,203000,623979,
-17360,3764,-2880,371,23227,1709,126000,80000,216000,623992,
-17264,3776,-2912,380,22563,1652,128000,80000,218000,623994,
-17272,3780,-3168,347,21909,1671,129000,80000,220000,623996,
-16828,3940,-3204,474,19009,1651,136000,78000,226000,624009,
-16580,3956,-3512,466,18465,1602,137000,78000,228000,624012,
-16368,3760,-3504,491,17992,1531,138000,78000,229000,624014,
-15832,3880,-3800,580,15446,1262,142000,77000,233000,624027,
-15900,4064,-3740,570,15120,1185,143000,76000,233000,624029,
-15188,4104,-4068,525,12881,1117,145000,75000,236000,624042,
-14956,3840,-4180,561,12268,1003,146000,75000,236000,624044,
-15156,3828,-4144,587,11793,947,146000,75000,237000,624047,
-15828,3960,-4676,571,9156,584,148000,74000,238000,624060,
-15984,3880,-4492,580,8608,638,148000,74000,239000,624062,
-16116,4088,-4536,576,8171,644,148000,74000,239000,624065,
-15548,4000,-4668,552,5494,814,149000,73000,239000,624077,
-15552,4160,-4576,534,5052,791,149000,73000,240000,624080,
-15448,4092,-4700,584,4559,777,149000,73000,240000,624082,
-14616,4180,-5024,595,2678,477,150000,73000,240000,624095,
-14616,4216,-5040,578,2325,355,150000,73000,240000,624097,
-14548,4092,-5068,499,1985,217,150000,73000,240000,624100,
-14236,4280,-5352,411,1477,139,150000,72000,240000,624113,
-14220,4352,-5344,301,1556,192,150000,72000,240000,624115,
-13972,4428,-5292,269,1611,231,150000,72000,240000,624118,
-13156,4308,-5344,156,1574,153,150000,72000,240000,624130,
-12988,4236,-5296,114,1663,88,150000,72000,240000,624133,
-13172,4300,-5316,133,1737,90,150000,72000,240000,624135,
-13764,4240,-5404,20,1866,-97,150000,72000,241000,624148,
-13820,4304,-5472,33,1829,-48,150000,72000,241000,624151,
-13848,4224,-5484,-18,1832,-38,150000,72000,241000,624153,
-14680,4412,-5168,-70,1306,-108,150000,72000,241000,624166,
-14792,4308,-5256,-61,1204,-91,150000,72000,241000,624168,
-14776,4276,-5164,-30,1112,-81,150000,72000,241000,624171,
-14596,4200,-5188,-47,329,56,150000,71000,241000,624183,
-14560,4248,-5264,-24,179,0,150000,71000,241000,624186,
-14584,4236,-5328,-39,-3,25,150000,71000,241000,624188,
-14644,4248,-5080,-201,-188,54,150000,71000,241000,624201,
-14632,4272,-5300,-215,-185,95,150000,71000,241000,624203,
-14444,4188,-5168,-281,-155,137,150000,71000,241000,624205,
-13984,3992,-5224,-237,-544,9,150000,71000,240000,624218,
-14080,4032,-5324,-245,-618,-42,150000,71000,240000,624221,
-14052,4040,-5264,-199,-747,-108,150000,71000,240000,624223,
-14728,4060,-5244,-357,-1194,-81,150000,71000,240000,624236,
-14872,4012,-5196,-296,-1357,-61,150000,71000,240000,624238,
-14840,3952,-5088,-345,-1545,1,150000,71000,240000,624240,
-14992,3900,-5080,-261,-2522,-82,149000,72000,240000,624253,
-15052,4016,-5104,-301,-2708,-27,149000,72000,239000,624256,
-15056,4112,-5192,-304,-2839,-44,149000,72000,239000,624258,
-14648,4164,-4764,-282,-3552,-65,148000,72000,239000,624271,
-14604,4116,-5008,-284,-3498,-33,148000,72000,239000,624274,
-14496,4236,-5024,-273,-3539,-6,148000,72000,238000,624276,
-13564,3936,-4884,-398,-3225,0,147000,72000,238000,624289,
-13504,3984,-4828,-342,-3231,-38,147000,72000,238000,624291,
-13588,3848,-4880,-408,-3190,-90,147000,72000,238000,624294,
-14184,3960,-4684,-381,-3350,-282,147000,73000,237000,624306,
-14380,3936,-4692,-394,-3527,-295,146000,73000,237000,624309,
-14536,3956,-4560,-402,-3668,-331,146000,73000,237000,624311,
-15368,4052,-4436,-492,-4229,-169,145000,73000,236000,624324,
-15340,4068,-4196,-518,-4202,-60,145000,73000,236000,624326,
-15156,4168,-4228,-526,-4245,67,145000,73000,236000,624329,
-13952,4040,-4200,-519,-4594,15,144000,74000,235000,624342,
-13800,3928,-4056,-517,-4582,-37,144000,74000,234000,624344,
-13664,4048,-4260,-472,-4485,-84,144000,74000,234000,624347,
-13632,4096,-4340,-657,-3901,-323,143000,74000,233000,624359,
-13672,3952,-4036,-615,-3738,-338,143000,74000,233000,624362,
-13756,4016,-4128,-624,-3632,-392,142000,74000,233000,624364,
-14140,4048,-4028,-776,-2896,-167,142000,74000,232000,624377,
-14080,4096,-4064,-748,-2822,-145,142000,74000,232000,624380,
-14068,3988,-4064,-766,-2808,-87,141000,74000,232000,624382,
-14312,4068,-3944,-716,-3157,-352,141000,75000,231000,624395,
-14544,3996,-3876,-719,-3302,-385,141000,75000,231000,624397,
-14780,3952,-3824,-718,-3451,-426,140000,75000,231000,624400,
-15468,3756,-3852,-548,-4985,-597,139000,75000,230000,624412,
-15776,3828,-3724,-491,-5400,-660,139000,75000,230000,624415,
-15832,3916,-3676,-427,-5905,-654,139000,75000,230000,624417,
-16912,3792,-3616,-328,-8849,-848,137000,76000,227000,624430,
-17036,3840,-3604,-260,-9427,-840,136000,76000,227000,624432,
-17128,3768,-3452,-280,-10000,-855,136000,76000,226000,624435,
-16876,4120,-3348,-230,-13042,-785,132000,77000,223000,624448,
-16816,3920,-3344,-224,-13488,-763,131000,77000,222000,624450,
-15860,3932,-2760,-261,-15386,-875,126000,78000,216000,624463,
-15736,3912,-2828,-342,-15699,-945,125000,78000,215000,624465,
-15376,3876,-2700,-339,-15805,-980,123000,79000,214000,624468,
-14156,3932,-2608,-484,-16034,-1048,116000,79000,207000,624480,
-13936,3912,-2436,-453,-16027,-1153,115000,80000,205000,624483,
-13756,3916,-2604,-560,-15949,-1212,113000,80000,204000,624485,
-14064,3828,-2228,-603,-15398,-1434,105000,80000,196000,624498,
-14200,3740,-2236,-636,-15384,-1400,104000,80000,194000,624500,
-15264,3688,-1612,-676,-16391,-1486,94000,81000,184000,624513,
-15776,3664,-1240,-661,-16674,-1453,92000,81000,182000,624516,
-15972,3620,-1308,-667,-17034,-1475,90000,81000,180000,624518,
-17212,3740,-716,-670,-19635,-1516,77000,81000,168000,624531,
-17412,3624,-492,-677,-20379,-1555,75000,81000,165000,624533,
-17664,3720,-312,-644,-21165,-1565,72000,81000,162000,624536,
-18116,3572,244,-555,-25388,-1697,58000,80000,148000,624549,
-18224,3604,412,-560,-26145,-1746,56000,79000,146000,624551,
-18164,3548,392,-532,-26811,-1752,53000,79000,143000,624554,
-17656,3464,664,-398,-30584,-1706,42000,77000,132000,624566,
-17580,3588,656,-498,-31181,-1711,40000,77000,130000,624569,
-17336,3436,680,-577,-31941,-1760,38000,76000,128000,624571,
-16220,3592,936,-936,-32768,-1678,31000,74000,120000,624584,
-15848,3584,1228,-1077,-32768,-1688,29000,73000,119000,624586,
-15764,3628,1432,-1107,-32768,-1653,28000,73000,118000,624589,
-14512,3496,2288,-1418,-32768,-1633,24000,70000,113000,624601,
-14192,3256,2488,-1438,-32768,-1584,23000,70000,112000,624604,
-14220,3520,2712,-1360,-32768,-1457,22000,69000,111000,624606,
-13272,3756,3504,-1953,-32768,-1200,19000,66000,108000,624619,
-13036,3580,3692,-2064,-32768,-1103,18000,66000,108000,624621,
-13092,3620,3932,-2168,-32768,-1069,18000,65000,107000,624624,
-13028,3528,4808,-2329,-31655,-693,16000,62000,105000,624637,
-13048,3576,4740,-2380,-31367,-600,15000,62000,105000,624639,
-12984,3512,4996,-2416,-31097,-550,15000,61000,104000,624642,
-12992,3368,6048,-2563,-29989,-285,14000,58000,103000,624654,
-12712,3352,6016,-2599,-29814,-260,13000,58000,103000,624657,
-12888,3372,6288,-2607,-29715,-190,13000,57000,102000,624659,
-12292,3224,7112,-2505,-29339,-419,12000,54000,101000,624672,
-12300,3184,7372,-2502,-29383,-497,12000,54000,101000,624674,
-12112,3116,7324,-2472,-29521,-528,11000,53000,101000,624677,
-11928,3100,8280,-2493,-29789,-723,10000,50000,100000,624690,
-11820,3084,8360,-2454,-29726,-715,10000,50000,100000,624692,
-11748,2960,8744,-2435,-29733,-733,10000,49000,99000,624694,
-11252,3124,9576,-2278,-29730,-503,9000,47000,99000,624707,
-11056,3044,9672,-2286,-29774,-432,9000,46000,98000,624710,
-10844,2948,9808,-2306,-29781,-428,9000,45000,98000,624712,
-10036,2924,10520,-2278,-29567,-250,8000,43000,98000,624725,
-9872,2952,10852,-2260,-29514,-254,8000,42000,98000,624727,
-9808,2948,10940,-2396,-29370,-215,8000,41000,97000,624730,
-8900,2988,11360,-2637,-28972,-177,7000,39000,97000,624742,
-8724,3044,11400,-2713,-28750,-139,7000,38000,97000,624745,
-8632,2988,11528,-2831,-28679,-166,7000,38000,97000,624747,
-8376,2740,12316,-2856,-28103,-353,7000,35000,96000,624760,
-8304,2688,12248,-2880,-28069,-363,7000,34000,96000,624763,
-8316,2768,12236,-2822,-28091,-373,7000,34000,96000,624765,
-7976,2512,12600,-2499,-28210,-461,6000,31000,96000,624778,
-7800,2544,12528,-2500,-28383,-465,6000,31000,96000,624780,
-7668,2532,12624,-2526,-28399,-441,6000,30000,95000,624783,
-7244,2604,13208,-2438,-29178,-541,6000,27000,95000,624795,
-7144,2496,12860,-2467,-29279,-553,5000,27000,95000,624798,
-7024,2652,13004,-2488,-29451,-606,5000,26000,95000,624800,
-6400,2656,12884,-2896,-29734,-644,5000,23000,95000,624813,
-5896,2644,13176,-2923,-29668,-615,5000,23000,95000,624815,
-5652,2648,13224,-2916,-29577,-681,5000,22000,94000,624817,
-3260,2800,13712,-3214,-28368,-712,4000,19000,94000,624830,
-2856,2736,13904,-3309,-28092,-730,4000,19000,94000,624832,
-2680,2820,13796,-3395,-27630,-705,4000,18000,94000,624835,
-756,2496,14956,-3409,-24486,-608,4000,16000,94000,624848,
-664,2440,15224,-3403,-23683,-565,4000,15000,94000,624850,
412,2232,15692,-3231,-19134,-352,4000,13000,94000,624863,
548,2196,15940,-3134,-18198,-291,3000,13000,94000,624865,
656,2152,16004,-3049,-17353,-240,3000,13000,94000,624867,
868,2112,16580,-2690,-13265,69,3000,11000,93000,624880,
824,1892,16784,-2803,-12818,9,3000,11000,93000,624883,
672,1912,16616,-2702,-12168,38,3000,11000,93000,624885,
-400,1692,17312,-2090,-9178,285,3000,10000,93000,624898,
-636,1628,17280,-1994,-8686,359,3000,10000,93000,624900,
-800,1500,17392,-1932,-8174,460,3000,10000,93000,624902,
-1148,1536,17560,-1664,-6376,848,3000,9000,93000,624915,
-1148,1460,17692,-1617,-6197,903,3000,9000,93000,624917,
-1096,1704,17440,-1654,-5999,941,3000,9000,93000,624920,
-752,1752,17308,-1587,-4967,906,2000,8000,94000,624932,
-692,1760,17360,-1594,-4726,885,2000,8000,94000,624935,
-624,1732,17308,-1543,-4492,856,2000,8000,94000,624937,
-300,1716,16792,-1312,-2959,833,2000,8000,94000,624950,
-212,1604,16816,-1243,-2608,760,2000,8000,94000,624952,
-244,1620,16744,-1148,-2293,790,2000,8000,94000,624955,
-508,1504,16496,-1000,-800,720,2000,7000,94000,624967,
-600,1540,16448,-1008,-644,699,2000,7000,94000,624970,
-676,1580,16304,-991,-459,674,2000,7000,94000,624972,
-748,1632,16184,-943,-300,615,2000,7000,94000,624975,
-1340,1704,16360,-625,-139,454,2000,7000,94000,624987,
-1356,1616,16288,-597,-157,436,2000,7000,94000,624989,
-1600,1660,16172,-590,-249,395,2000,7000,94000,624992,
-1752,2012,16148,-578,-392,392,2000,7000,94000,625005,
-1900,1912,16120,-556,-467,425,2000,7000,94000,625007,
-1948,2024,16044,-620,-527,437,2000,7000,94000,625009,
-1820,1972,15996,-683,-572,446,2000,7000,94000,625012,
-2036,2048,16188,-859,-1175,486,2000,7000,94000,625024,
-2076,1888,16052,-865,-1220,480,2000,7000,94000,625027,
-2196,1924,16176,-831,-1382,478,2000,7000,94000,625029,
-2076,1800,16204,-892,-1549,450,2000,7000,94000,625042,
-2000,1872,16372,-871,-1599,478,2000,7000,94000,625044,
-1928,1872,16544,-888,-1629,498,2000,7000,94000,625046,
-1636,1824,16684,-750,-1711,477,2000,7000,94000,625059,
-1560,1812,16792,-849,-1690,490,2000,7000,94000,625061,
-1336,1828,17040,-840,-1671,472,2000,7000,94000,625063,
-1252,1812,16648,-729,-1478,346,2000,6000,94000,625076,
-1272,1876,16652,-723,-1388,296,2000,6000,94000,625079,
-1292,1884,16660,-709,-1264,280,2000,6000,94000,625081,
-1492,1788,16516,-642,-897,354,2000,6000,94000,625094,
-1364,1896,16708,-629,-882,392,2000,6000,94000,625096,
-1268,1872,16760,-654,-871,437,2000,6000,94000,625098,
-1208,1992,16692,-649,-788,429,2000,6000,94000,625101,
-1072,1764,16792,-592,-525,426,2000,6000,94000,625113,
-1064,1836,16696,-596,-436,427,2000,6000,94000,625116,
-916,1852,16728,-559,-377,387,2000,6000,94000,625118,
-768,1884,16788,-690,-41,366,2000,6000,94000,625131,
-804,1900,16788,-721,-41,352,2000,6000,94000,625133,
-736,1944,16796,-709,-4,343,2000,6000,94000,625136,
-688,1856,16548,-732,52,301,2000,6000,94000,625138,
-1172,1732,16536,-678,166,193,2000,6000,94000,625151,
-1264,1656,16372,-660,206,188,2000,6000,94000,625153,
-1192,1624,16240,-637,198,192,2000,6000,94000,625155,
-1344,1784,16088,-680,148,225,2000,6000,94000,625168,
-1360,1804,15996,-717,105,268,2000,6000,94000,625170,
-1456,1720,16084,-718,44,227,2000,6000,94000,625173,
-1468,1724,15988,-712,60,187,2000,6000,94000,625175,
-1560,1876,15764,-765,-304,175,2000,6000,94000,625188,
-1648,1908,15864,-833,-370,173,1000,6000,94000,625190,
-1652,1892,15984,-841,-489,213,1000,6000,94000,625192,
-1508,2012,16488,-985,-990,296,1000,6000,94000,625205,
-1516,1824,16596,-979,-1107,288,1000,6000,94000,625207,
-1348,1872,16604,-1053,-1189,281,1000,6000,94000,625210,
-1248,1800,16752,-1127,-1458,268,1000,6000,94000,625222,
-1108,1756,16676,-1133,-1457,233,1000,6000,94000,625225,
-1164,1752,16660,-1118,-1385,240,1000,6000,94000,625227,
-1248,1684,16616,-1084,-1144,321,1000,6000,94000,625240,
-1132,1716,16476,-1071,-1088,335,1000,6000,94000,625242,
-1236,1852,16500,-1049,-1110,366,1000,6000,94000,625244,
-820,2088,16380,-1144,-774,459,1000,5000,95000,625261,
-852,2052,16476,-1157,-705,473,1000,5000,95000,625263,
-964,2012,16480,-1134,-649,440,1000,5000,95000,625265,
-804,2044,16512,-1183,-624,466,1000,5000,95000,625268,
-772,1976,16692,-1208,-352,393,1000,5000,95000,625281,
-852,1892,16684,-1217,-325,392,1000,5000,95000,625283,
-828,1796,16628,-1261,-219,345,1000,5000,95000,625285,
-1152,1612,16508,-1185,-3,299,1000,5000,95000,625298,
-1144,1476,16628,-1189,30,305,1000,5000,95000,625300,
-1196,1556,16644,-1138,34,281,1000,5000,95000,625303,
-1216,1556,16632,-1154,13,296,1000,5000,95000,625305,
-1264,1500,16600,-1060,-117,314,1000,5000,95000,625318,
-1252,1620,16508,-1145,-112,337,1000,5000,95000,625320,
-1188,1700,16604,-1137,-141,342,1000,5000,95000,625323,
-1060,1836,16380,-1118,-408,354,1000,5000,95000,625335,
-1092,1808,16328,-1155,-384,344,1000,5000,95000,625337,
-1116,1820,16356,-1118,-425,328,1000,5000,95000,625340,
-1288,1728,16632,-1147,-642,403,1000,5000,95000,625352,
-1172,1808,16788,-1131,-658,389,1000,5000,95000,625355,
-1212,1748,16700,-1131,-703,417,1000,5000,95000,625357,
-1028,1680,16808,-1110,-722,401,0,5000,95000,625370,
-1008,1584,16748,-1091,-785,411,0,5000,95000,625372,
-1068,1596,16772,-1091,-755,388,0,5000,95000,625374,
-996,1548,16756,-1072,-714,329,0,5000,95000,625377,
-1000,1468,16836,-999,-583,316,0,5000,95000,625389,
-924,1368,16852,-940,-578,274,0,5000,95000,625392,
-948,1456,16888,-961,-565,331,0,5000,95000,625394,
-908,1376,16848,-979,-513,331,0,5000,95000,625397,
-680,1344,17100,-804,-365,399,0,5000,95000,625409,
-724,1384,17124,-798,-291,366,0,5000,95000,625412,
-700,1360,16856,-717,-206,356,0,5000,95000,625414,
-804,1328,17012,-756,-156,374,0,5000,95000,625416,
-1236,1352,16800,-640,154,409,0,5000,95000,625429,
-1160,1436,16724,-630,149,456,0,5000,95000,625431,
-1220,1468,16780,-632,166,508,0,5000,95000,625434,
-1312,1416,16824,-600,208,512,0,5000,95000,625436,
-1396,1580,17020,-637,41,718,0,5000,95000,625449,
-1244,1540,16808,-600,26,692,0,5000,95000,625451,
-1176,1508,16980,-592,-33,754,0,5000,95000,625453,
-1136,1500,17096,-596,-32,748,0,5000,95000,625456,
-744,1500,17080,-449,16,678,0,5000,95000,625469,
-692,1468,17152,-450,73,654,0,5000,95000,625471,
-608,1536,17096,-390,150,680,0,5000,95000,625473,
-652,1368,17252,-346,111,621,0,5000,95000,625476,
-828,1404,16808,-329,322,532,0,5000,95000,625488,
-776,1480,16812,-289,264,514,0,5000,95000,625491,
-864,1556,16800,-348,279,519,0,5000,95000,625493,
-856,1504,16572,-289,322,495,0,5000,95000,625496,
-1072,1472,16636,-198,187,448,0,5000,95000,625508,
-1036,1524,16552,-226,163,400,0,5000,95000,625511,
-1016,1408,16704,-210,99,425,0,5000,95000,625513,
-1036,1476,16624,-250,120,415,0,5000,95000,625515,
-804,1516,16612,-195,-33,351,0,5000,95000,625528,
-740,1568,16512,-199,-9,320,0,5000,95000,625530,
-908,1480,16620,-153,-17,310,0,5000,95000,625533,
-740,1496,16640,-191,-30,299,0,5000,95000,625535,
-748,1496,16748,-63,83,299,0,5000,96000,625548,
-836,1544,16656,-115,73,317,0,5000,96000,625550,
-760,1584,16744,-184,121,328,0,5000,96000,625552,
-904,1488,16620,-173,138,350,0,5000,96000,625555,
-756,1616,16556,-220,216,354,0,5000,96000,625567,
-736,1652,16444,-181,218,359,0,5000,96000,625570,
-880,1640,16224,-220,191,352,0,5000,96000,625572,
-984,1588,16336,-231,217,360,0,5000,96000,625574,
-1200,1652,16216,-249,156,341,0,5000,96000,625587,
-1256,1676,16068,-257,160,299,0,5000,96000,625589,
-1252,1628,16008,-240,76,345,0,5000,96000,625592,
-1128,1704,15872,-264,93,356,0,5000,96000,625594,
-1220,1852,16096,-347,15,436,0,5000,96000,625607,
-1076,1920,15872,-430,26,460,0,5000,96000,625609,
-1140,1924,16044,-452,33,416,0,5000,96000,625611,
-1064,2048,15996,-443,-44,449,0,5000,96000,625614,
-996,1964,16212,-624,-154,332,0,5000,96000,625626,
-872,1860,16412,-610,-186,361,0,5000,96000,625629,
-856,1780,16288,-625,-226,367,0,5000,96000,625631,
-872,1728,16532,-657,-175,358,0,5000,96000,625633,
-720,1748,16672,-655,-226,464,0,5000,96000,625646,
-796,1636,16704,-657,-201,428,0,5000,96000,625648,
-688,1568,16524,-612,-205,419,0,5000,96000,625651,
-708,1588,16544,-677,-210,447,0,5000,96000,625653,
-796,1584,16484,-529,-25,359,0,5000,96000,625666,
-684,1608,16548,-552,12,367,0,5000,96000,625668,
-796,1616,16456,-545,63,345,0,5000,96000,625670,
-668,1532,16544,-512,45,356,0,5000,96000,625673,
-680,1652,16344,-567,-5,368,0,5000,96000,625685,
-740,1644,16476,-581,-15,361,0,5000,96000,625688,
-688,1700,16500,-642,-17,372,0,5000,96000,625690,
-796,1680,16576,-654,17,369,0,5000,96000,625693,
-908,1696,16536,-598,29,491,0,5000,96000,625705,
-1068,1652,16580,-605,63,501,0,5000,96000,625708,
-976,1576,16500,-568,85,519,0,5000,96000,625710,
-908,1532,16516,-637,54,561,0,5000,96000,625712,
-1024,1616,16620,-589,13,638,0,5000,96000,625725,
-1036,1516,16700,-607,-37,700,0,5000,96000,625727,
-1052,1588,16728,-649,-3,700,0,5000,96000,625730,
-996,1660,16716,-620,-37,703,0,5000,96000,625732,
-1008,1656,16656,-648,-35,596,0,5000,96000,625745,
-880,1720,16644,-594,-71,584,0,5000,96000,625747,
-876,1628,16612,-669,-45,581,0,5000,96000,625749,
-1028,1560,16344,-593,74,630,0,5000,96000,625762,
-1024,1564,16364,-650,15,616,0,5000,96000,625764,
-1100,1520,16400,-676,8,645,0,5000,96000,625767,
-952,1472,16444,-659,1,657,0,5000,96000,625769,
-780,1608,16484,-725,58,711,0,5000,96000,625782,
-728,1476,16412,-658,33,698,0,5000,96000,625784,
-564,1536,16368,-668,47,730,0,5000,96000,625786,
-740,1560,16348,-650,93,672,0,5000,96000,625789,
-888,1536,16544,-648,150,692,0,5000,97000,625801,
-872,1544,16652,-650,172,691,0,5000,97000,625804,
-864,1584,16744,-582,147,711,0,5000,97000,625806,
-820,1616,16800,-667,118,763,0,5000,97000,625809,
-740,1524,16616,-669,54,727,0,5000,97000,625821,
-796,1472,16872,-722,22,727,0,5000,97000,625824,
-644,1520,16724,-724,13,715,0,5000,97000,625826,
-684,1416,16892,-696,20,680,0,5000,97000,625828,
-760,1492,16652,-700,-66,635,0,4000,97000,625841,
-784,1356,16752,-622,-90,630,0,4000,97000,625843,
-700,1456,16700,-678,-127,647,0,4000,97000,625846,
-696,1540,16700,-694,-126,629,0,4000,97000,625848,
-580,1468,16796,-657,-158,524,0,4000,97000,625861,
-604,1472,16688,-642,-178,501,0,4000,97000,625863,
-732,1464,16604,-570,-161,479,0,4000,97000,625866,
-560,1340,16616,-605,-149,489,0,4000,97000,625868,
-616,1572,16688,-570,-117,428,0,4000,97000,625881,
-584,1396,16592,-591,-150,422,0,4000,97000,625883,
-540,1428,16608,-572,-137,416,0,4000,97000,625885,
-536,1364,16692,-522,-100,395,0,4000,97000,625888,
-540,1552,16788,-564,-85,329,0,4000,97000,625900,
-536,1480,16644,-531,-52,292,0,4000,97000,625903,
-620,1460,16692,-508,-94,327,0,4000,97000,625905,
-620,1448,16920,-478,-81,311,0,4000,97000,625907,
-664,1488,16752,-478,-110,294,0,4000,97000,625920,
-700,1512,16756,-489,-117,252,0,4000,97000,625922,
-680,1476,16732,-444,-113,239,0,4000,97000,625925,
-560,1492,16784,-437,-176,243,0,4000,97000,625927,
-592,1484,16664,-402,-172,177,0,4000,97000,625940,
-592,1484,16752,-409,-195,198,0,4000,97000,625942,
-488,1500,16664,-368,-179,143,0,4000,97000,625944,
-540,1512,16752,-375,-163,120,0,4000,97000,625947,
-748,1568,16664,-344,-249,113,0,4000,97000,625959,
-600,1556,16640,-336,-230,123,0,4000,97000,625962,
-708,1640,16616,-272,-284,144,0,4000,97000,625964,
-776,1624,16696,-323,-257,163,0,4000,97000,625967,
-852,1712,16488,-332,-361,263,0,4000,97000,625979,
-844,1772,16484,-365,-369,290,0,4000,97000,625982,
-976,1824,16500,-365,-389,283,0,4000,97000,625984,
-896,1912,16548,-372,-397,274,0,4000,97000,625986,
-672,1836,16516,-352,-332,254,0,4000,97000,625999,
-652,1844,16504,-400,-354,267,0,4000,97000,626001,
-672,1840,16556,-428,-319,257,0,4000,97000,626004,
-512,1828,16628,-419,-287,221,0,4000,97000,626006,
-396,1716,16556,-448,-321,157,0,4000,97000,626018,
-472,1664,16680,-429,-294,101,0,4000,97000,626021,
-412,1616,16672,-417,-316,84,0,4000,97000,626023,
-404,1684,16560,-404,-290,104,0,4000,97000,626026,
-572,1532,16692,-287,-270,108,0,4000,97000,626038,
-696,1492,16688,-337,-286,131,0,4000,97000,626041,
-588,1580,16660,-323,-236,128,0,4000,97000,626043,
-716,1472,16688,-263,-271,158,0,4000,97000,626045,
-576,1596,16820,-368,-291,218,0,4000,97000,626058,
-484,1752,16660,-364,-314,219,0,4000,97000,626060,
-416,1844,16644,-416,-318,250,0,4000,97000,626062,
-368,1820,16704,-402,-270,234,0,4000,97000,626065,
-112,1736,16528,-340,-195,135,0,4000,97000,626077,
-160,1656,16580,-358,-141,79,0,4000,97000,626080,
-132,1624,16616,-285,-157,56,0,4000,97000,626082,
-292,1512,16512,-299,-98,55,0,4000,97000,626085,
-524,1480,16464,-250,-48,58,0,4000,97000,626097,
-480,1432,16448,-282,-59,66,0,4000,97000,626099,
-592,1396,16436,-323,-91,44,0,4000,97000,626102,
-560,1472,16436,-270,-127,53,0,4000,97000,626104,
-604,1600,16336,-321,-272,-31,0,4000,97000,626117,
-560,1632,16544,-312,-357,-48,0,4000,97000,626119,
-488,1720,16444,-360,-367,-45,0,4000,97000,626121,
-532,1536,16580,-338,-370,-41,0,4000,97000,626124,
-304,1588,16708,-385,-484,-47,0,4000,97000,626136,
-240,1580,16888,-385,-414,-50,0,4000,97000,626139,
-332,1660,16676,-339,-432,-59,0,4000,97000,626141,
-260,1608,16676,-384,-410,-51,0,4000,97000,626143,
-428,1496,16464,-379,-254,-5,0,4000,97000,626156,
-644,1684,16532,-400,-226,59,0,4000,97000,626158,
-660,1588,16392,-424,-260,136,0,3000,97000,626171,
-532,1728,16284,-472,-249,145,0,3000,97000,626174,
-496,1824,16216,-514,-258,134,0,3000,97000,626176,
-444,1840,16184,-516,-293,156,0,3000,97000,626178,
24,1876,16184,-658,-170,104,0,3000,97000,626191,
24,1856,16344,-606,-198,102,0,3000,97000,626193,
-12,1776,16200,-653,-120,81,0,3000,97000,626196,
-76,1852,16384,-639,-55,37,0,3000,97000,626198,
-276,1676,16292,-611,198,-72,0,3000,97000,626211,
-352,1544,16048,-562,244,-92,0,3000,97000,626213,
-440,1528,16336,-518,250,-98,0,3000,97000,626215,
-504,1624,16228,-544,254,-88,0,3000,97000,626218,
-916,1644,16360,-563,128,-28,0,3000,97000,626230,
-884,1672,16292,-616,82,23,0,3000,97000,626233,
-944,1784,16268,-632,18,10,0,3000,97000,626235,
-808,1804,16200,-606,-44,0,0,3000,97000,626237,
-604,1768,16520,-760,-313,101,0,3000,97000,626250,
-512,1796,16540,-737,-364,78,0,3000,97000,626252,
-444,1848,16660,-749,-390,114,0,3000,97000,626255,
-192,1776,16836,-801,-401,131,0,3000,97000,626257,
152,1744,16752,-771,-246,91,0,3000,97000,626270,
296,1616,16760,-780,-143,60,0,3000,97000,626272,
216,1596,16652,-738,-47,53,0,3000,97000,626274,
144,1640,16744,-741,-8,70,0,3000,97000,626277,
-80,1528,16500,-659,392,73,0,3000,97000,626290,
-160,1452,16388,-680,401,104,0,3000,97000,626292,
-316,1532,16440,-709,444,121,0,3000,97000,626294,
-252,1492,16440,-651,481,88,0,3000,97000,626297,
-724,1500,16500,-710,341,158,0,3000,97000,626309,
-644,1548,16452,-690,316,151,0,3000,97000,626312,
-668,1580,16704,-721,240,157,0,3000,97000,626314,
-660,1664,16716,-730,248,148,0,3000,97000,626316,
-396,1568,16784,-733,38,111,0,3000,97000,626329,
-372,1616,16844,-749,33,101,0,3000,97000,626332,
-304,1588,16800,-697,35,78,0,3000,97000,626334,
-264,1488,16832,-711,33,60,0,3000,97000,626336,
-284,1576,16764,-637,91,-27,0,3000,97000,626349,
-228,1408,16636,-652,79,9,0,3000,97000,626351,
-344,1464,16668,-663,115,-26,0,3000,97000,626354,
-400,1540,16532,-651,122,-48,0,3000,97000,626356,
-532,1436,16820,-652,107,22,0,3000,97000,626368,
-528,1452,16572,-600,68,31,0,3000,97000,626371,
-616,1580,16688,-642,6,37,0,3000,97000,626373,
-604,1492,16636,-609,-7,96,0,3000,97000,626375,
-472,1528,16888,-634,-93,104,0,3000,97000,626388,
-344,1524,16732,-645,-47,84,0,3000,97000,626391,
-272,1552,16816,-613,-11,50,0,3000,97000,626393,
-356,1604,16912,-630,-19,45,0,3000,97000,626395,
-292,1520,16688,-565,210,72,0,3000,97000,626408,
-300,1396,16612,-595,197,83,0,3000,97000,626410,
-244,1460,16740,-582,221,92,0,3000,97000,626413,
-248,1420,16680,-536,234,97,0,3000,97000,626415,
-400,1388,16508,-494,322,103,0,3000,97000,626428,
-584,1532,16600,-436,355,124,0,3000,97000,626430,
-520,1476,16664,-450,317,116,0,3000,97000,626433,
-552,1484,16708,-457,331,158,0,3000,97000,626435,
-532,1684,16720,-461,192,229,0,3000,98000,626448,
-724,1572,16648,-487,138,205,0,3000,98000,626450,
-648,1604,16692,-434,101,240,0,3000,98000,626452,
-720,1600,16780,-490,68,252,0,3000,98000,626455,
-640,1620,16860,-491,-65,219,0,3000,98000,626467,
-620,1512,16748,-478,-77,210,0,3000,98000,626470,
-576,1600,16620,-516,-104,197,0,3000,98000,626472,
-600,1456,16724,-468,-124,219,0,3000,98000,626474,
-544,1352,16768,-492,-149,279,0,3000,98000,626487,
-476,1412,16696,-443,-141,267,0,3000,98000,626490,
-424,1468,16696,-462,-179,305,0,3000,98000,626492,
-444,1504,16856,-477,-152,312,0,3000,98000,626494,
-148,1424,16764,-439,-81,331,0,3000,98000,626507,
-220,1436,16652,-450,-5,324,0,3000,98000,626509,
-352,1448,16752,-431,38,323,0,3000,98000,626512,
-376,1440,16752,-411,47,335,0,3000,98000,626514,
-328,1660,16672,-308,195,347,0,3000,98000,626527,
-436,1696,16676,-336,168,351,0,3000,98000,626529,
-372,1656,16868,-363,121,341,0,3000,98000,626531,
-360,1744,16516,-319,105,285,0,3000,98000,626534,
-84,1684,16580,-447,-40,258,0,3000,98000,626546,
-148,1572,16640,-435,-19,242,0,3000,98000,626549,
-132,1572,16536,-440,-36,232,0,3000,98000,626551,
-220,1488,16640,-393,47,208,0,3000,98000,626564,
-288,1496,16532,-382,-8,237,0,3000,98000,626566,
-140,1364,16508,-427,-5,229,0,3000,98000,626569,
-192,1480,16668,-393,-7,223,0,3000,98000,626571,
-124,1488,16508,-430,67,244,0,3000,98000,626584,
-240,1496,16388,-406,100,247,0,3000,98000,626586,
-216,1700,16512,-427,68,244,0,3000,98000,626589,
-200,1520,16360,-439,104,256,0,3000,98000,626591,
-140,1584,16524,-452,-51,166,0,3000,98000,626604,
-180,1640,16400,-498,-93,152,0,3000,98000,626606,
-96,1564,16432,-518,-47,138,0,3000,98000,626609,
20,1620,16480,-518,-88,147,0,3000,98000,626611,
-156,1524,16456,-518,142,182,0,3000,98000,626624,
-4,1612,16372,-541,128,203,0,3000,98000,626626,
-136,1704,16540,-537,139,194,0,3000,98000,626628,
-164,1740,16448,-554,187,158,0,3000,98000,626631,
-168,1568,16480,-594,183,97,0,3000,98000,626643,
-64,1604,16416,-586,203,108,0,3000,98000,626646,
-112,1508,16564,-589,183,81,0,3000,98000,626648,
-156,1548,16552,-607,220,104,0,3000,98000,626651,
-356,1492,16500,-541,215,130,0,3000,98000,626663,
-396,1528,16532,-555,245,102,0,3000,98000,626666,
-332,1580,16556,-502,177,72,0,3000,98000,626668,
-296,1676,16640,-549,129,106,0,3000,98000,626670,
-404,1528,16820,-581,-142,2,0,3000,98000,626683,
-340,1540,16900,-651,-147,57,0,3000,98000,626685,
-520,1500,16840,-630,-119,68,0,3000,98000,626688,
-480,1476,16752,-587,-147,78,0,3000,98000,626690,
-360,1508,16996,-608,-102,152,0,3000,98000,626703,
-308,1536,16948,-574,-139,165,0,3000,98000,626705,
-240,1528,16888,-632,-176,171,0,3000,98000,626707,
-236,1504,16876,-617,-162,137,0,3000,98000,626710,
-268,1476,16700,-552,-11,192,0,3000,98000,626722,
-288,1600,16788,-566,71,188,0,3000,98000,626725,
-400,1456,17008,-488,63,197,0,3000,98000,626727,
-304,1504,16832,-515,63,219,0,3000,98000,626729,
-164,1560,16800,-489,81,181,0,3000,98000,626742,
-112,1552,16596,-547,52,238,0,3000,98000,626744,
-124,1520,16772,-536,90,225,0,3000,98000,626747,
-260,1448,16728,-484,77,254,0,3000,98000,626749,
-28,1332,16716,-403,252,191,0,3000,98000,626762,
-4,1528,16712,-357,228,151,0,3000,98000,626764,
128,1548,16640,-402,262,168,0,3000,98000,626766,
256,1432,16688,-382,345,97,0,3000,98000,626769,
480,1336,16768,-301,698,22,0,3000,98000,626781,
568,1472,16636,-248,809,5,0,3000,98000,626784,
440,1492,16796,-176,892,-24,0,3000,98000,626786,
600,1496,16504,-181,954,-5,0,3000,98000,626789,
648,1520,16728,-58,1301,-124,0,3000,98000,626801,
556,1360,16944,-82,1351,-147,0,3000,98000,626804,
448,1428,16636,-71,1479,-169,0,3000,98000,626806,
604,1332,16876,-4,1584,-168,0,3000,98000,626808,
632,1384,16944,26,2568,-21,0,3000,98000,626821,
656,1492,17060,100,2766,27,0,3000,98000,626823,
740,1448,17020,98,3034,87,0,3000,98000,626826,
912,1480,16992,123,3332,65,0,4000,98000,626828,
1536,1688,16656,83,5155,86,0,4000,98000,626840,
1500,1732,16808,50,5579,70,0,4000,98000,626843,
1772,1868,16872,106,6005,28,0,4000,98000,626845,
1764,1928,16752,54,6513,78,0,4000,98000,626848,
2744,1836,16576,234,9622,87,0,5000,98000,626860,
2964,1848,16488,215,10276,46,0,5000,98000,626862,
3028,1868,16620,230,10981,19,0,5000,98000,626865,
3168,1860,16464,311,11586,6,0,6000,98000,626867,
3348,1664,16492,474,15426,-33,0,7000,98000,626880,
3152,1596,16484,597,16194,-1,0,7000,98000,626882,
3012,1604,16264,615,16921,32,0,8000,98000,626884,
2856,1488,16392,561,17740,65,0,8000,98000,626887,
1908,1252,16268,796,21532,419,0,10000,98000,626899,
1612,1192,16464,852,22176,475,0,10000,98000,626902,
1392,1268,16360,928,22786,516,0,11000,98000,626904,
1036,1248,16308,969,23213,573,0,11000,98000,626906,
-656,1240,16256,1126,25453,836,0,13000,98000,626919,
-964,1236,16024,1120,25635,890,0,14000,98000,626921,
-1312,1364,16044,1140,25956,933,0,14000,98000,626924,
-1472,1408,16124,1209,26272,916,0,15000,98000,626926,
-3072,1676,15992,1321,26831,1001,0,17000,98000,626939,
-3276,1648,15836,1358,26886,955,0,18000,98000,626941,
-3460,1732,15688,1376,26651,943,0,18000,98000,626943,
-4916,1732,15328,1523,25912,574,0,21000,99000,626956,
-5268,1676,15320,1549,25592,548,0,21000,99000,626959,
-5484,1708,15068,1538,25361,479,0,22000,99000,626961,
-5872,1924,15088,1527,25152,389,0,22000,99000,626963,
-6916,1600,14732,1641,23910,334,1000,25000,99000,626976,
-7084,1672,14856,1709,23831,339,1000,25000,99000,626978,
-7212,1524,14936,1787,23561,345,1000,25000,99000,626981,
-7428,1708,14108,1839,23027,170,1000,28000,99000,626997,
-7460,1724,14004,1835,23271,108,1000,29000,99000,627000,
-7268,1804,14004,1916,23459,95,1000,29000,99000,627002,
-6556,2208,13412,2083,25174,25,1000,32000,99000,627015,
-6304,2108,13268,2175,25492,-24,1000,32000,99000,627017,
-6216,2224,13132,2195,25922,-24,2000,33000,99000,627020,
-6676,2372,12520,2594,28671,135,2000,35000,99000,627032,
-6800,2508,12412,2611,29232,175,2000,36000,99000,627035,
-6776,2428,12244,2661,30034,224,2000,36000,99000,627037,
-8584,2376,11576,2691,32599,1006,3000,39000,100000,627050,
-8784,2528,11196,2684,32767,1160,3000,40000,100000,627052,
-9284,2548,11088,2701,32767,1341,3000,41000,100000,627055,
-10968,2552,10392,2686,32767,1929,3000,44000,100000,627067,
-11072,2636,10144,2679,32767,1969,4000,44000,101000,627070,
-11348,2756,9768,2633,32767,2055,4000,45000,101000,627072,
-12424,2892,9268,2397,32767,2121,5000,48000,101000,627085,
-12500,2948,9032,2350,32767,2149,5000,49000,102000,627087,
-12536,2932,8896,2346,32767,2128,5000,50000,102000,627090,
-12632,2972,7736,2237,32767,1945,6000,53000,103000,627102,
-12592,3060,7548,2091,32767,1993,6000,53000,103000,627105,
-12532,2940,7760,2144,32767,1981,6000,54000,103000,627107,
-12292,3020,7056,2048,32767,2116,7000,57000,104000,627120,
-12296,3108,6716,2036,32767,2142,8000,58000,104000,627122,
-12268,2932,6580,1978,32767,2149,8000,58000,105000,627125,
-12496,3144,5572,1660,32767,2346,10000,61000,106000,627137,
-12620,3132,5628,1606,32767,2451,10000,62000,107000,627140,
-12896,3108,5540,1600,32767,2518,10000,63000,107000,627142,
-13296,3260,4424,1463,32767,2892,13000,66000,109000,627155,
-13496,3232,4560,1555,32767,2911,13000,66000,110000,627157,
-13328,3244,3956,1474,32767,2926,14000,67000,110000,627160,
-13900,3428,3568,1268,32767,2767,17000,70000,114000,627173,
-13892,3360,3348,1235,32767,2742,17000,70000,114000,627175,
-14168,3316,3332,1226,32767,2750,18000,71000,115000,627177,
-14648,3044,2592,1157,32767,2639,23000,74000,120000,627190,
-14908,3624,2572,1270,32767,2586,24000,74000,121000,627192,
-15240,3944,2548,1081,32767,2767,25000,75000,122000,627195,
-14888,3432,1404,640,32767,2883,33000,78000,131000,627208,
-14648,3524,1136,522,32767,2864,35000,78000,132000,627210,
-14416,3256,1260,429,32767,2816,37000,79000,135000,627212,
-14032,3240,-24,549,32767,2560,52000,81000,149000,627225,
-14732,3404,156,635,32767,2490,55000,81000,153000,627227,
-14076,3212,-336,616,32767,2453,59000,81000,156000,627230,
-14904,3744,-1220,357,32767,2159,82000,82000,179000,627243,
-15084,3836,-1460,296,32599,2064,87000,82000,184000,627245,
-15136,3708,-1604,312,32258,2016,91000,82000,189000,627247,
-15724,3804,-2520,181,30391,2118,112000,81000,210000,627260,
-15860,3860,-2520,236,29840,2113,115000,81000,213000,627263,
-15996,3876,-2808,176,29047,2113,119000,81000,216000,627265,
-16664,3876,-3480,404,25145,1847,130000,79000,228000,627278,
-16736,3768,-3612,408,24043,1770,132000,79000,230000,627280,
-17048,3852,-3864,463,23071,1675,133000,78000,231000,627283,
-18072,3876,-4064,714,17901,1139,139000,77000,237000,627295,
-18276,3940,-3912,716,17109,1175,139000,77000,237000,627298,
-18120,4000,-4032,814,16307,1169,140000,76000,238000,627300,
-16428,4096,-4264,1039,12038,1231,143000,75000,241000,627313,
-16136,4176,-4216,1095,11488,1120,143000,75000,241000,627316,
-15896,4108,-4300,1098,10873,1065,144000,75000,242000,627318,
-14416,4092,-4812,1179,8770,592,145000,74000,243000,627331,
-14312,4204,-4796,1128,8442,440,146000,74000,244000,627333,
-14284,4220,-4932,1094,8202,344,146000,74000,244000,627336,
-13884,4448,-5472,863,7828,331,147000,73000,245000,627348,
-13756,4512,-5676,789,7702,336,148000,73000,246000,627351,
-13724,4444,-5516,795,7513,363,148000,73000,246000,627353,
-14020,4344,-6176,641,6474,211,149000,72000,247000,627366,
-14372,4284,-6112,650,6060,205,149000,72000,247000,627368,
-14764,4380,-6132,472,5019,207,150000,72000,248000,627381,
-14644,4336,-6068,527,4736,276,150000,72000,248000,627384,
-14644,4496,-6152,536,4471,297,150000,71000,248000,627386,
-14740,4308,-6252,500,3069,66,150000,71000,248000,627399,
-14720,4212,-6400,473,2897,62,151000,71000,248000,627401,
-14636,4232,-6388,404,2788,0,151000,71000,248000,627404,
-14396,4276,-6356,132,2293,84,151000,71000,249000,627416,
-14312,4268,-6184,146,2195,46,151000,71000,249000,627419,
-14184,4128,-6340,127,2028,64,151000,71000,249000,627421,
-13880,4176,-6280,-53,1799,-34,151000,70000,249000,627434,
-13764,4176,-6536,-132,1865,20,151000,70000,249000,627436,
-13756,4284,-6304,-220,1980,18,151000,70000,249000,627439,
-13548,4036,-6216,-315,1995,-12,151000,70000,249000,627451,
-13448,4144,-6332,-375,2063,-47,151000,70000,249000,627454,
-13560,4160,-6228,-359,2118,-80,151000,70000,249000,627456,
-13968,4012,-6212,-601,2069,-107,152000,70000,250000,627469,
-14024,4028,-6180,-582,2099,-100,152000,70000,250000,627471,
-14000,4012,-6116,-610,2000,-75,152000,70000,250000,627474,
-14452,3996,-6028,-683,1467,-115,152000,70000,250000,627486,
-14496,3892,-6020,-723,1289,-91,152000,70000,250000,627489,
-14604,4000,-6044,-744,1183,-63,152000,70000,250000,627491,
-14444,3952,-6104,-767,322,-70,152000,69000,250000,627504,
-14376,3884,-6172,-790,195,-58,152000,69000,250000,627506,
-14420,4060,-6104,-775,88,-90,152000,69000,250000,627509,
-13968,4036,-5844,-862,-189,0,152000,69000,250000,627521,
-13976,4084,-5900,-829,-185,-2,152000,69000,250000,627524,
-13948,3968,-5992,-855,-215,-1,152000,69000,250000,627526,
-13664,3920,-5968,-884,-26,-41,151000,69000,250000,627539,
-13736,3952,-5876,-907,-49,-61,151000,69000,250000,627541,
-13688,3940,-5788,-912,-67,-96,151000,69000,250000,627544,
-14052,3972,-5864,-914,-66,-11,151000,69000,250000,627556,
-14136,3856,-5656,-954,-109,0,151000,69000,250000,627559,
-14196,3836,-5804,-901,-196,-1,151000,69000,250000,627561,
-14468,4008,-5624,-978,-646,13,151000,69000,250000,627574,
-14368,3896,-5640,-958,-687,3,151000,69000,250000,627576,
-14284,3880,-5492,-958,-796,31,151000,69000,250000,627579,
-14144,3964,-5476,-894,-1281,-35,151000,69000,249000,627591,
-14232,3828,-5400,-896,-1419,-49,150000,69000,249000,627594,
-14308,3920,-5568,-889,-1525,-102,150000,69000,249000,627596,
-14740,3944,-5640,-790,-2566,-160,150000,70000,249000,627609,
-14804,3976,-5532,-794,-2773,-173,150000,70000,249000,627612,
-15020,3940,-5472,-757,-3012,-168,150000,70000,249000,627614,
-14932,3944,-5272,-634,-4569,-79,149000,70000,248000,627627,
-14776,3912,-5264,-526,-5028,-102,149000,70000,248000,627629,
-14848,3776,-5376,-529,-5462,-123,149000,70000,248000,627632,
-15504,3848,-5144,-327,-7495,-273,148000,71000,247000,627644,
-15784,3808,-5276,-355,-7827,-267,147000,71000,246000,627647,
-15688,3844,-5248,-360,-8232,-263,147000,71000,246000,627649,
-15684,3748,-5100,-184,-10524,-212,145000,72000,244000,627662,
-15516,3672,-5024,-45,-10969,-275,145000,72000,244000,627664,
-15672,3776,-5088,1,-11503,-279,145000,72000,244000,627667,
-16068,3820,-4800,107,-14200,-624,142000,73000,241000,627680,
-16120,3704,-4644,114,-14653,-632,142000,74000,240000,627682,
-16152,3728,-4796,162,-15236,-633,141000,74000,240000,627685,
-16556,3948,-4328,171,-18118,-797,137000,75000,235000,627697,
-16668,4024,-4264,145,-18562,-818,136000,76000,234000,627700,
-16616,4008,-4164,157,-19039,-761,135000,76000,233000,627702,
-15624,3824,-3764,123,-21701,-671,126000,78000,224000,627719,
-15612,3800,-3692,116,-22140,-759,125000,78000,223000,627721,
-15524,3684,-3408,168,-22521,-896,123000,78000,221000,627724,
-15724,3840,-2908,55,-24205,-1349,112000,79000,210000,627736,
-15616,3956,-2828,73,-24424,-1388,110000,79000,208000,627739,
-15832,3808,-2692,-42,-24523,-1342,108000,80000,206000,627741,
-15512,4012,-2392,-161,-25360,-1091,94000,80000,192000,627754,
-15316,3896,-2232,-230,-25515,-1050,91000,80000,189000,627756,
-15328,3920,-2000,-226,-25670,-1073,88000,80000,186000,627759,
-15088,3892,-1496,-378,-25903,-1141,73000,80000,171000,627771,
-15056,3856,-1472,-433,-26094,-1117,70000,80000,168000,627774,
-14988,3848,-1416,-429,-26240,-1150,68000,80000,165000,627776,
-15212,3728,-348,-667,-27151,-1341,55000,79000,152000,627789,
-15132,3768,-176,-634,-27113,-1387,53000,78000,150000,627791,
-15376,3732,-32,-672,-27009,-1401,51000,78000,148000,627794,
-15044,3736,524,-892,-26986,-1027,42000,76000,139000,627806,
-14984,3784,960,-956,-27032,-972,40000,76000,138000,627809,
-14952,3612,952,-993,-27083,-951,39000,76000,136000,627811,
-14452,3584,1676,-1085,-26473,-865,33000,74000,130000,627824,
-14256,3668,1824,-1105,-26397,-902,32000,73000,129000,627826,
-14120,3492,2000,-1066,-26278,-862,31000,73000,128000,627829,
-13924,3608,2696,-1215,-26337,-1030,27000,71000,124000,627841,
-13912,3596,2908,-1237,-26351,-1034,26000,70000,123000,627844,
-13960,3632,3196,-1288,-26290,-1097,26000,70000,123000,627846,
-14164,3380,3652,-1080,-26109,-1008,23000,67000,119000,627859,
-14044,3344,3948,-1086,-26237,-1006,22000,67000,119000,627861,
-14124,3384,4836,-1034,-26801,-756,20000,65000,116000,627874,
-14192,3640,4824,-1218,-27119,-668,19000,64000,116000,627877,
-14084,3668,4996,-1388,-27386,-771,19000,64000,116000,627879,
-14272,3324,5916,-1281,-28476,-785,17000,61000,114000,627892,
-14156,3372,5932,-1303,-28779,-753,17000,61000,113000,627894,
-14080,3316,6256,-1214,-29047,-753,16000,60000,113000,627897,
-14080,3316,6460,-1020,-30993,-974,15000,57000,111000,627909,
-14000,3240,6420,-999,-31497,-1018,15000,57000,111000,627912,
-14020,3208,6704,-989,-32012,-1035,14000,56000,110000,627914,
-14388,3080,7272,-734,-32768,-1256,13000,53000,109000,627927,
-14472,3056,7432,-715,-32768,-1273,13000,52000,109000,627929,
-14508,2808,7652,-650,-32768,-1342,13000,52000,108000,627932,
-13808,3108,8108,-700,-32768,-1363,12000,49000,107000,627945,
-13672,3180,8000,-714,-32768,-1380,11000,48000,107000,627947,
-13404,3208,8180,-793,-32768,-1329,11000,48000,107000,627950,
-11920,3456,8792,-1155,-32768,-1379,10000,45000,106000,627962,
-11344,3400,8824,-1244,-32768,-1412,10000,44000,105000,627965,
-11156,3424,8824,-1349,-32768,-1454,10000,43000,105000,627967,
-9648,3332,9900,-1456,-32768,-1636,9000,40000,104000,627980,
-9616,3276,9688,-1476,-32768,-1605,9000,40000,104000,627982,
-9416,3328,9480,-1626,-32768,-1564,9000,39000,104000,627985,
-8888,3384,10180,-1901,-32768,-1479,8000,36000,103000,627997,
-8708,3316,10128,-1871,-32768,-1495,8000,35000,103000,628000,
-8884,3276,10412,-1843,-32768,-1474,8000,35000,103000,628002,
-8840,3356,10404,-2102,-32768,-1344,8000,32000,102000,628015,
-8764,3308,10408,-2254,-32768,-1319,8000,31000,102000,628017,
-8476,3136,10420,-2344,-32768,-1278,7000,31000,102000,628020,
-5628,3316,10880,-3102,-32768,-1147,7000,27000,101000,628032,
-5052,3224,10904,-3280,-32768,-1170,7000,27000,101000,628035,
-4532,3316,11040,-3359,-32768,-1173,7000,26000,101000,628037,
-496,3616,12268,-4482,-32768,-1352,6000,23000,101000,628050,
12,3532,12476,-4477,-32768,-1349,6000,22000,101000,628052,
844,3244,13076,-4489,-32768,-1323,6000,22000,100000,628055,
3508,3244,14220,-4420,-31513,-597,5000,18000,100000,628067,
4048,3188,14412,-4509,-29566,-308,5000,18000,100000,628070,
4396,3164,14564,-4515,-27764,-112,5000,17000,100000,628072,
6100,2748,15536,-4082,-17707,762,5000,15000,100000,628085,
6188,2764,15576,-4052,-15914,836,5000,15000,100000,628087,
6268,2828,15776,-3975,-14196,899,5000,15000,100000,628089,
5176,2492,16228,-3566,-6071,1119,4000,14000,100000,628102,
4688,2420,16456,-3433,-4762,1145,4000,14000,100000,628104,
4368,2372,16488,-3361,-3618,1215,4000,14000,100000,628107,
1300,2092,16708,-2814,439,1144,4000,14000,100000,628119,
344,1772,17068,-2688,790,1175,4000,14000,100000,628122,
-56,1872,16884,-2581,1080,1201,4000,14000,100000,628124,
-2328,1656,17344,-2772,325,1293,4000,14000,100000,628136,
-2592,1712,17376,-2741,-105,1295,4000,14000,100000,628139,
-2724,1740,17432,-2770,-641,1281,4000,14000,100000,628141,
-2372,1460,17940,-2758,-4012,1148,3000,13000,100000,628157,
-2160,1476,17892,-2790,-4380,1136,3000,13000,100000,628160,
-1916,1500,17796,-2800,-4739,1092,3000,13000,100000,628162,
-672,1572,17676,-2758,-5862,996,3000,12000,100000,628175,
-364,1520,17568,-2726,-5882,936,3000,12000,100000,628177,
-72,1528,17508,-2625,-5931,918,3000,12000,100000,628180,
876,1592,17112,-2409,-5106,916,3000,11000,101000,628192,
980,1596,17012,-2364,-4917,905,3000,11000,101000,628195,
1220,1616,17232,-2324,-4674,952,3000,11000,101000,628197,
1960,1464,17164,-2011,-3069,956,2000,11000,101000,628210,
2140,1472,17236,-1960,-2732,934,2000,11000,101000,628212,
2328,1596,17152,-1897,-2345,859,2000,11000,101000,628215,
