Ax,Ay,Az,Gx,Gy,Gz,Roll,Pitch,Yaw,Timestamp,Target
4148,3816,15264,-602,65,-170,12000,-12000,268000,890385,
4096,3868,15280,-601,216,-131,12000,-12000,268000,890397,
4196,3796,15232,-627,136,-182,12000,-12000,268000,890400,
4012,3864,15212,-602,184,-165,12000,-12000,268000,890402,
3928,3768,15100,-567,94,-165,12000,-12000,268000,890414,
3932,3688,15248,-666,10,-151,12000,-12000,268000,890417,
3976,3792,15192,-607,38,-158,12000,-12000,268000,890419,
3860,3804,15076,-667,-185,-200,12000,-12000,268000,890432,
3760,3856,15136,-605,-200,-183,12000,-12000,268000,890434,
3664,3884,15140,-670,-309,-222,12000,-12000,268000,890436,
3868,3812,15176,-688,-569,-122,12000,-12000,268000,890449,
3904,3864,15396,-753,-587,-135,12000,-12000,268000,890451,
4004,3808,15348,-714,-628,-133,12000,-12000,268000,890453,
4064,3852,15340,-698,-675,-128,12000,-12000,268000,890466,
4216,3716,15164,-632,-602,-153,12000,-12000,268000,890468,
4152,3636,15412,-680,-610,-125,12000,-12000,268000,890470,
4336,3692,15348,-619,-338,-111,12000,-12000,268000,890483,
4244,3680,15344,-640,-386,-113,12000,-12000,268000,890485,
4316,3732,15180,-586,-255,-98,12000,-12000,268000,890488,
4336,3680,15212,-480,124,-77,12000,-12000,268000,890500,
4320,3584,15284,-479,208,-73,12000,-12000,268000,890503,
4356,3672,15320,-469,267,-66,12000,-12000,268000,890505,
4416,3788,15136,-409,546,-50,12000,-12000,268000,890517,
4280,3756,15236,-471,521,-57,12000,-12000,268000,890520,
4200,3848,15192,-435,609,-68,12000,-12000,268000,890522,
3968,3644,15064,-446,508,-88,12000,-12000,268000,890534,
3968,3776,15132,-451,499,-77,12000,-12000,268000,890537,
3948,3744,15164,-413,436,-55,12000,-12000,268000,890539,
3848,3812,15084,-469,211,29,11000,-12000,268000,890552,
3800,3824,14916,-457,145,-4,11000,-12000,268000,890554,
3840,3792,15012,-516,122,-29,11000,-12000,268000,890556,
3892,3688,15136,-573,-189,-6,11000,-12000,268000,890569,
3912,3744,14968,-573,-247,0,11000,-12000,268000,890571,
3860,3604,15132,-571,-246,-14,11000,-12000,268000,890573,
4216,3704,15112,-527,-347,-23,11000,-12000,268000,890586,
4128,3680,15040,-555,-341,1,11000,-12000,268000,890588,
4148,3680,15136,-562,-397,-18,11000,-12000,268000,890591,
4356,3676,15012,-522,-253,-104,11000,-13000,268000,890603,
4304,3664,15188,-545,-298,-97,11000,-13000,268000,890606,
4288,3620,15192,-504,-186,-101,11000,-13000,267000,890608,
4340,3712,15252,-482,-110,-57,11000,-13000,267000,890620,
4384,3736,15180,-419,18,-53,11000,-13000,267000,890623,
4332,3736,14968,-507,-17,-67,11000,-13000,267000,890625,
4232,3668,15048,-462,158,-48,11000,-13000,267000,890637,
4224,3672,15140,-504,101,-71,11000,-13000,267000,890640,
4220,3760,15160,-460,150,-47,11000,-13000,267000,890642,
4188,3744,15020,-472,142,-8,11000,-13000,267000,890654,
4260,3804,15164,-450,92,22,11000,-13000,267000,890657,
4216,3868,15136,-481,95,11,11000,-13000,267000,890659,
4344,3792,15120,-526,33,27,11000,-13000,267000,890671,
4284,3800,15080,-550,44,42,11000,-13000,267000,890674,
4208,3800,14932,-562,50,56,11000,-13000,267000,890676,
4288,3832,14892,-549,35,53,11000,-13000,267000,890678,
4340,3732,15100,-569,44,-6,11000,-13000,267000,890691,
4292,3832,15116,-533,95,5,11000,-13000,267000,890693,
4332,3716,15032,-585,92,-6,11000,-13000,267000,890696,
4376,3656,15044,-587,148,5,11000,-13000,267000,890708,
4384,3636,15048,-570,163,-8,11000,-13000,267000,890710,
4308,3680,15168,-592,221,-43,11000,-13000,267000,890713,
4416,3656,15136,-556,314,-88,11000,-13000,267000,890725,
4392,3700,15184,-559,348,-123,11000,-13000,267000,890728,
4424,3680,15176,-552,361,-91,11000,-13000,267000,890730,
4172,3632,15252,-531,400,-187,11000,-13000,267000,890743,
4268,3636,15204,-469,412,-160,11000,-13000,267000,890745,
4136,3584,15148,-526,393,-161,11000,-13000,267000,890747,
4056,3680,15044,-554,188,-192,11000,-13000,267000,890760,
4068,3580,15204,-494,203,-225,11000,-13000,267000,890762,
4064,3636,15104,-564,117,-229,11000,-13000,267000,890764,
4012,3640,15168,-485,88,-190,11000,-13000,267000,890777,
4120,3716,15084,-517,-41,-177,11000,-13000,267000,890779,
4184,3656,15144,-492,51,-165,11000,-13000,267000,890781,
4244,3764,15300,-528,37,-130,11000,-13000,267000,890794,
4224,3584,15040,-498,108,-133,11000,-13000,267000,890796,
4264,3708,15260,-565,63,-153,11000,-13000,267000,890799,
4472,3648,15228,-442,367,-99,11000,-13000,267000,890811,
4468,3704,15152,-471,344,-123,11000,-13000,267000,890814,
4428,3584,15200,-403,447,-93,11000,-12000,267000,890816,
4380,3644,15092,-418,583,-90,11000,-12000,267000,890828,
4308,3564,15064,-434,649,-140,11000,-12000,267000,890831,
4300,3608,15236,-451,612,-129,11000,-12000,267000,890833,
4236,3708,15048,-380,824,-134,11000,-12000,267000,890846,
4156,3564,15068,-440,705,-124,11000,-12000,267000,890848,
4248,3644,15096,-388,784,-141,11000,-12000,267000,890850,
4312,3560,15008,-467,811,-184,11000,-12000,267000,890863,
4196,3708,15128,-432,889,-158,11000,-12000,267000,890865,
4276,3544,15080,-477,880,-206,11000,-12000,267000,890867,
4056,3696,14980,-398,880,-182,11000,-12000,267000,890880,
4164,3812,15088,-444,836,-201,11000,-12000,267000,890882,
4168,3712,15112,-442,817,-168,11000,-12000,267000,890885,
4032,3672,14996,-483,668,-195,11000,-12000,267000,890897,
3876,3744,15084,-526,587,-155,11000,-12000,267000,890900,
4000,3836,15048,-489,637,-162,11000,-12000,267000,890902,
3884,3720,15124,-598,388,-147,11000,-12000,267000,890914,
3996,3760,15116,-539,372,-145,11000,-12000,267000,890917,
4012,3688,15132,-615,329,-110,11000,-12000,267000,890919,
4068,3676,15108,-624,188,-113,10000,-12000,267000,890931,
4196,3692,15108,-644,158,-120,10000,-12000,267000,890934,
4216,3660,15156,-638,156,-151,10000,-12000,267000,890936,
4208,3544,15036,-590,206,-152,10000,-12000,267000,890948,
4128,3624,15196,-623,174,-136,10000,-12000,267000,890951,
4228,3616,15224,-562,287,-126,10000,-12000,267000,890953,
4216,3600,15284,-577,321,-151,10000,-12000,267000,890965,
4144,3700,15352,-516,351,-173,10000,-12000,267000,890968,
4156,3632,15360,-564,340,-176,10000,-12000,267000,890970,
4228,3496,15316,-490,520,-195,10000,-12000,267000,890983,
4204,3556,15348,-502,509,-191,10000,-12000,267000,890985,
4236,3628,15360,-489,487,-163,10000,-12000,267000,890987,
3984,3652,15332,-458,494,-201,10000,-12000,267000,891000,
3896,3600,15404,-428,519,-206,10000,-12000,267000,891002,
3856,3724,15208,-500,453,-223,10000,-12000,267000,891004,
3936,3632,15140,-392,438,-160,10000,-12000,267000,891017,
3928,3640,15404,-432,370,-182,10000,-12000,267000,891019,
3924,3752,15428,-397,415,-177,10000,-12000,267000,891021,
4036,3664,15308,-447,360,-176,10000,-12000,267000,891034,
3872,3628,15168,-405,323,-136,10000,-12000,267000,891036,
3968,3716,15316,-402,325,-159,10000,-12000,267000,891038,
3816,3636,15236,-420,107,-136,10000,-12000,267000,891051,
3800,3776,15144,-438,59,-135,10000,-12000,267000,891053,
3712,3688,15156,-412,44,-99,10000,-12000,267000,891055,
3892,3732,15312,-441,-10,-115,10000,-12000,267000,891068,
4000,3712,15256,-411,-53,-69,10000,-12000,267000,891070,
4048,3756,15240,-414,31,-110,10000,-12000,267000,891072,
4152,3772,15272,-479,1,-78,10000,-12000,267000,891085,
4204,3776,15336,-446,54,-49,10000,-12000,267000,891087,
4160,3832,15252,-508,27,-73,10000,-12000,267000,891089,
4164,3808,15292,-469,183,-58,10000,-12000,267000,891102,
4092,3752,15288,-536,156,-66,10000,-12000,267000,891104,
4168,3692,15300,-473,245,-59,10000,-12000,267000,891107,
4072,3780,15208,-526,250,-101,10000,-12000,267000,891119,
4016,3644,15340,-470,293,-116,10000,-12000,267000,891122,
3928,3704,15380,-540,221,-94,10000,-12000,267000,891124,
3928,3632,15408,-451,146,-105,10000,-12000,267000,891136,
3892,3712,15336,-525,136,-113,10000,-12000,267000,891139,
4020,3652,15364,-456,124,-119,10000,-12000,267000,891141,
4020,3700,15464,-520,-19,-150,10000,-12000,267000,891154,
3960,3688,15380,-459,37,-121,10000,-12000,267000,891156,
3940,3660,15208,-478,56,-118,10000,-12000,267000,891158,
4044,3728,15296,-415,-45,-117,10000,-12000,267000,891171,
4056,3704,15288,-432,-61,-109,10000,-12000,267000,891173,
4008,3676,15408,-422,-78,-85,10000,-12000,267000,891175,
4028,3736,15312,-418,0,-63,10000,-12000,267000,891188,
4172,3664,15004,-376,-19,-62,10000,-12000,267000,891190,
4172,3696,15312,-407,35,-57,10000,-12000,267000,891193,
4236,3740,15408,-374,33,-46,10000,-12000,267000,891205,
4232,3624,15352,-350,147,-22,10000,-12000,267000,891207,
4176,3696,15228,-357,65,-29,10000,-12000,267000,891210,
4280,3744,15304,-331,238,-37,10000,-12000,267000,891222,
4232,3768,15212,-398,213,-37,10000,-12000,267000,891224,
4260,3760,15216,-344,286,-32,10000,-12000,267000,891227,
4200,3828,14948,-351,267,-62,10000,-12000,267000,891239,
4224,3764,15020,-336,331,-58,10000,-12000,267000,891241,
4212,3916,15148,-401,272,-85,10000,-12000,267000,891244,
4148,3888,15196,-417,250,-117,10000,-12000,267000,891256,
4012,3828,15020,-471,215,-114,10000,-12000,267000,891259,
4072,3788,14968,-450,215,-127,10000,-12000,267000,891261,
3936,3728,15084,-517,87,-175,10000,-12000,267000,891273,
3908,3740,15148,-432,104,-149,10000,-12000,267000,891276,
3900,3756,15204,-472,88,-151,10000,-12000,267000,891278,
3888,3756,15000,-531,-63,-116,10000,-12000,267000,891291,
4012,3732,14988,-576,-61,-144,10000,-12000,267000,891293,
4068,3744,15000,-587,-106,-142,10000,-12000,267000,891295,
4060,3472,15232,-559,-6,-127,10000,-12000,267000,891308,
4080,3568,15204,-498,9,-140,10000,-12000,267000,891310,
4184,3468,15196,-534,-1,-149,10000,-12000,267000,891312,
4120,3488,15136,-395,202,-178,10000,-12000,267000,891325,
4076,3536,15184,-413,249,-175,10000,-12000,267000,891327,
4100,3564,15164,-414,231,-166,10000,-12000,267000,891330,
4008,3580,14964,-416,378,-166,10000,-12000,267000,891342,
3932,3608,14992,-480,394,-177,10000,-12000,267000,891345,
3936,3632,15100,-452,397,-125,10000,-12000,267000,891347,
3908,3732,14960,-473,347,-134,10000,-12000,267000,891359,
3716,3712,15104,-490,310,-107,10000,-12000,267000,891362,
3788,3784,15028,-492,352,-122,10000,-12000,267000,891364,
3812,3724,14840,-606,127,-49,10000,-12000,267000,891377,
3712,3680,14944,-613,83,-20,10000,-12000,267000,891379,
3880,3656,14904,-584,88,8,10000,-12000,267000,891381,
4088,3736,14812,-665,147,-8,10000,-12000,267000,891394,
4144,3656,15108,-652,157,14,10000,-12000,267000,891396,
4168,3732,14944,-656,243,15,10000,-12000,267000,891398,
4136,3736,15076,-679,337,3,10000,-12000,267000,891411,
4200,3544,15080,-675,402,-10,10000,-12000,267000,891413,
4044,3656,14980,-709,337,-26,10000,-12000,267000,891416,
3964,3692,15000,-673,335,-37,9000,-12000,267000,891428,
4000,3696,15012,-716,296,-40,9000,-12000,267000,891431,
3992,3656,15056,-681,311,-32,9000,-12000,267000,891433,
3820,3572,15172,-761,156,-37,9000,-12000,267000,891445,
3912,3560,15032,-726,194,-33,9000,-12000,267000,891448,
3972,3572,15216,-780,126,-46,9000,-12000,267000,891450,
4096,3508,15244,-703,84,-30,9000,-12000,267000,891463,
4184,3616,15232,-731,65,-21,9000,-12000,267000,891465,
4140,3620,15196,-690,131,-29,9000,-12000,267000,891467,
4212,3548,15004,-717,227,-36,9000,-12000,267000,891480,
4196,3552,15288,-768,200,-46,9000,-12000,267000,891482,
4208,3464,15176,-699,280,-52,9000,-12000,267000,891484,
4212,3496,15340,-684,380,-106,9000,-12000,267000,891497,
4036,3556,15272,-637,457,-96,9000,-12000,267000,891499,
4176,3648,15260,-696,429,-98,9000,-12000,267000,891502,
4084,3644,15252,-651,440,-123,9000,-12000,267000,891514,
4016,3492,15284,-706,435,-99,9000,-12000,267000,891517,
4052,3624,15276,-659,414,-114,9000,-12000,267000,891519,
4044,3700,15460,-679,323,-119,9000,-12000,267000,891531,
3944,3644,15184,-701,270,-93,9000,-12000,267000,891534,
3888,3708,15328,-665,275,-104,9000,-12000,267000,891536,
3900,3660,15412,-741,68,-89,9000,-12000,267000,891548,
4036,3620,15296,-693,117,-97,9000,-12000,267000,891550,
3992,3624,15368,-723,58,-62,9000,-12000,267000,891553,
4036,3684,15268,-667,66,-63,9000,-12000,267000,891565,
4068,3628,15460,-740,34,-73,9000,-12000,267000,891568,
4056,3516,15340,-673,10,-51,9000,-12000,267000,891570,
4048,3584,15176,-737,10,-69,9000,-12000,267000,891572,
3916,3612,15576,-653,-8,-46,9000,-12000,267000,891585,
3900,3584,15360,-700,-21,-33,9000,-12000,267000,891587,
3888,3600,15484,-679,-33,-38,9000,-12000,267000,891589,
3952,3576,15632,-690,-3,-9,9000,-12000,267000,891602,
3936,3596,15716,-592,47,-3,9000,-12000,267000,891604,
3892,3624,15648,-669,5,5,9000,-12000,267000,891607,
4008,3648,15604,-580,111,53,9000,-12000,267000,891619,
3996,3712,15616,-616,65,47,9000,-12000,267000,891622,
3936,3556,15716,-578,147,90,9000,-12000,267000,891624,
4132,3568,15824,-500,274,80,9000,-12000,267000,891636,
4192,3572,15804,-427,332,68,9000,-12000,267000,891638,
4052,3628,15844,-425,365,70,9000,-12000,267000,891641,
3672,3612,15760,-282,251,61,9000,-12000,267000,891653,
3540,3564,15660,-318,114,48,9000,-12000,267000,891656,
3676,3580,15552,-261,92,32,9000,-12000,267000,891658,
3656,3672,15640,-296,-50,62,9000,-12000,267000,891660,
3564,3596,15580,-224,-560,104,9000,-12000,267000,891673,
3672,3584,15512,-272,-694,111,9000,-12000,267000,891675,
3552,3812,15548,-223,-703,107,9000,-12000,267000,891678,
3984,3492,15528,-241,-959,97,9000,-12000,267000,891690,
4052,3640,15520,-188,-918,112,9000,-12000,267000,891692,
4084,3540,15620,-192,-955,117,9000,-12000,267000,891695,
4236,3708,15404,-71,-712,120,9000,-12000,267000,891707,
4440,3704,15508,-114,-700,96,9000,-12000,267000,891710,
4412,3728,15464,-57,-586,92,9000,-12000,267000,891712,
4392,3820,15344,-121,-235,49,9000,-12000,267000,891724,
4356,3856,15156,-61,-112,53,9000,-12000,267000,891727,
4340,3884,15220,-103,-116,58,9000,-12000,267000,891729,
4076,3932,15172,-118,59,79,9000,-12000,267000,891742,
3936,3920,15208,-214,-16,94,9000,-12000,267000,891744,
3972,3940,15068,-140,6,81,9000,-12000,267000,891746,
4060,3952,15176,-229,-32,101,9000,-12000,267000,891749,
3628,3884,15120,-317,-373,120,9000,-12000,267000,891761,
3536,3860,15020,-398,-419,153,9000,-12000,267000,891763,
3580,3924,15068,-355,-536,175,9000,-12000,267000,891766,
3816,3892,14844,-521,-864,271,9000,-12000,267000,891778,
3884,3908,14980,-514,-928,274,9000,-12000,267000,891781,
3844,3952,15012,-549,-932,305,9000,-12000,267000,891783,
4204,3924,14940,-679,-875,438,9000,-12000,267000,891796,
4244,3832,14968,-696,-677,468,9000,-12000,267000,891798,
4648,3824,15196,-760,-578,566,9000,-12000,267000,891800,
6684,3684,15956,-908,2613,1097,9000,-12000,267000,891812,
7240,3528,16200,-955,3837,1247,9000,-12000,267000,891815,
7992,3444,16424,-831,5324,1358,9000,-12000,267000,891817,
11004,2644,17792,97,15708,2127,9000,-11000,267000,891830,
11540,2500,18052,421,18103,2247,9000,-11000,268000,891832,
12184,2244,18348,735,20633,2437,8000,-10000,268000,891834,
14492,1668,18672,2764,32767,3395,9000,-7000,268000,891847,
14804,1488,18808,3209,32767,3546,9000,-7000,269000,891849,
15176,1536,18308,3729,32767,3664,9000,-6000,269000,891851,
14820,1652,15280,5684,32767,3093,9000,-3000,270000,891864,
14640,1880,15092,6194,32767,3064,9000,-3000,270000,891866,
14272,1964,14840,6532,32767,3094,9000,-2000,270000,891868,
10064,3188,11944,7718,32767,3220,10000,0,271000,891881,
9196,3368,11408,7886,32767,3291,10000,0,271000,891883,
8160,3544,10564,8072,32767,3325,10000,0,271000,891885,
3532,3912,6900,8345,32767,3591,11000,3000,272000,891898,
3536,5372,7384,8451,32767,4253,12000,4000,272000,891900,
2304,4368,7328,8722,32767,4498,12000,4000,272000,891902,
-1480,5444,4200,9119,32767,8112,13000,7000,274000,891915,
-1516,6268,2748,8906,32767,8250,13000,8000,274000,891917,
-2168,5884,2728,8896,32767,8453,13000,8000,274000,891920,
-5800,6060,-92,11274,32767,7211,15000,11000,276000,891932,
-8004,5392,1008,11708,32767,6855,15000,12000,276000,891935,
-7360,5800,500,11740,32767,6794,16000,13000,277000,891937,
-12692,4444,692,12369,32767,6725,17000,16000,278000,891949,
-13056,4652,544,12529,32767,6891,18000,16000,279000,891952,
-13848,4620,976,13074,32767,7163,18000,17000,279000,891954,
-13868,4360,-248,15274,32767,8429,20000,20000,281000,891966,
-13540,4620,-176,15907,32767,8605,21000,20000,281000,891969,
-13332,4988,-356,16234,32767,8626,21000,21000,282000,891971,
-19168,7524,-10632,15632,32767,8404,24000,24000,284000,891984,
-14860,6260,2116,18365,32767,9617,24000,24000,284000,891986,
-20848,5944,-5952,16508,32767,9353,25000,25000,285000,891988,
-11488,5040,-3552,17005,32767,12275,28000,27000,288000,892001,
148,12164,-10852,15587,32767,12225,28000,28000,288000,892003,
-14152,2984,-2364,16916,32767,14244,29000,28000,289000,892006,
-13700,6580,-11888,16191,32767,17487,33000,30000,292000,892018,
-11820,7452,-9320,16871,32767,17993,33000,31000,293000,892021,
-13224,7788,-11360,15917,32767,18687,34000,31000,294000,892023,
-15460,8232,-13164,15245,32767,21149,38000,33000,298000,892036,
-14128,9080,-11944,14778,32767,21704,39000,33000,299000,892038,
-14136,9264,-13372,13924,32767,24088,43000,34000,304000,892051,
-14528,9172,-14140,13606,32767,24535,44000,34000,305000,892053,
-13924,8772,-13820,13411,32767,24665,45000,34000,306000,892056,
-13000,9264,-14972,11707,32767,25249,49000,35000,311000,892069,
-12884,9432,-15160,11264,32767,25353,50000,35000,312000,892071,
-12780,9468,-15164,10912,32767,25394,51000,35000,313000,892073,
-11980,9760,-14212,9120,32767,26215,55000,35000,318000,892086,
-11420,9768,-13760,8957,32767,26093,56000,35000,319000,892088,
-11000,9780,-13268,8794,32767,26147,57000,35000,320000,892091,
-8664,9704,-12852,8240,32767,24753,60000,35000,325000,892103,
-8256,9580,-12800,8090,32767,24415,61000,35000,326000,892106,
-5880,9820,-13292,7833,28774,23402,65000,34000,331000,892118,
-5452,9656,-12588,7939,27962,23238,66000,34000,332000,892121,
-5112,9732,-12832,8009,27370,22996,66000,34000,332000,892123,
-2788,8936,-11588,9427,23522,20794,69000,33000,336000,892136,
-2484,8896,-11472,9846,22840,20134,70000,32000,337000,892138,
-2028,8944,-11112,10200,22380,19704,71000,32000,337000,892141,
-852,10672,-12068,10203,21393,16897,74000,31000,340000,892153,
-588,11252,-12376,10110,21281,16486,74000,31000,341000,892156,
-488,11392,-12184,10066,21018,15952,75000,31000,342000,892158,
-528,11788,-12524,9459,20090,13394,77000,30000,344000,892171,
-644,11512,-12696,9355,19778,12951,78000,30000,345000,892173,
-724,11460,-12692,9212,19428,12638,78000,30000,345000,892175,
-508,11140,-14196,8573,16220,10325,80000,29000,347000,892188,
-504,10936,-14232,8399,15199,9907,81000,29000,348000,892190,
-532,10812,-14192,8354,14377,9432,81000,28000,348000,892193,
-392,10056,-14848,7673,10300,7372,83000,28000,350000,892205,
48,9844,-14744,7617,9458,7049,83000,28000,350000,892208,
-336,9572,-14868,7415,8717,6764,83000,28000,350000,892210,
68,9884,-14348,6768,5960,4951,85000,27000,351000,892223,
232,9988,-14244,6597,5512,4685,85000,27000,351000,892225,
296,9928,-14188,6549,5113,4404,85000,27000,351000,892227,
892,9288,-14520,5597,3046,3059,86000,27000,352000,892240,
1060,9348,-15256,4583,2300,2670,86000,26000,352000,892242,
988,9320,-14696,3685,2170,2371,87000,26000,352000,892244,
1540,8688,-16212,4818,1686,1397,87000,26000,352000,892257,
1160,8480,-15860,4619,1153,1195,88000,26000,352000,892259,
1364,8376,-15144,4582,961,979,88000,26000,352000,892262,
1024,8104,-15820,3577,747,41,88000,26000,353000,892274,
724,8016,-15976,3493,441,-120,89000,26000,353000,892276,
800,7916,-15848,3344,92,-240,89000,26000,353000,892279,
244,7628,-15908,2730,-69,-573,89000,26000,353000,892291,
136,7544,-16224,2508,-263,-624,89000,26000,353000,892294,
96,7500,-15988,2285,-285,-663,90000,26000,353000,892296,
432,7424,-15648,1800,-169,-598,90000,26000,353000,892308,
596,7504,-15992,1988,-42,-583,90000,26000,353000,892311,
548,7440,-16244,1968,-94,-536,90000,26000,353000,892313,
608,7424,-15868,1748,233,-524,91000,26000,353000,892326,
668,7460,-15840,1675,215,-488,91000,26000,353000,892328,
580,7476,-15940,1666,272,-446,91000,26000,353000,892330,
124,7620,-15652,1370,100,-279,92000,26000,353000,892343,
88,7764,-15604,1310,-24,-237,92000,26000,353000,892345,
-68,7796,-15600,1292,11,-154,92000,26000,353000,892347,
-300,8076,-15736,957,-443,306,92000,26000,354000,892359,
-272,8088,-15692,939,-480,418,92000,26000,354000,892362,
-108,8072,-15844,853,-651,495,92000,26000,354000,892364,
476,8004,-15932,593,-884,701,93000,26000,354000,892377,
580,8036,-15856,489,-1000,728,93000,26000,354000,892379,
660,8084,-15904,509,-961,694,93000,26000,354000,892381,
1196,7884,-16156,286,-869,676,93000,25000,354000,892394,
1216,7904,-16376,315,-816,639,93000,25000,354000,892396,
1304,7804,-16452,258,-733,595,93000,25000,354000,892398,
1400,7824,-16312,119,-598,149,94000,25000,354000,892411,
1512,7776,-16144,37,-641,77,94000,25000,354000,892413,
1540,7808,-16112,46,-625,-9,94000,25000,354000,892415,
1008,7952,-15892,-264,-829,-468,94000,25000,354000,892428,
1060,7924,-15852,-254,-905,-547,94000,25000,354000,892430,
936,7988,-15600,-321,-997,-591,94000,25000,354000,892432,
788,8104,-15604,-579,-1758,-761,94000,25000,354000,892445,
792,8076,-15804,-663,-2059,-788,94000,25000,354000,892447,
884,8188,-15772,-680,-2169,-841,94000,25000,354000,892449,
1008,8348,-15768,-888,-3367,-1310,94000,25000,354000,892462,
1056,8388,-15812,-928,-3535,-1404,94000,25000,354000,892464,
960,8376,-15540,-970,-3794,-1512,94000,25000,354000,892466,
856,8332,-15652,-1115,-4682,-1904,94000,25000,353000,892479,
920,8344,-15628,-1127,-4915,-1965,94000,25000,353000,892481,
876,8228,-15488,-1138,-4921,-2028,94000,25000,353000,892483,
228,8096,-15396,-1644,-6969,-3277,94000,26000,352000,892510,
196,8092,-15452,-1661,-7276,-3388,94000,26000,352000,892512,
-348,8096,-15388,-1737,-7888,-3518,94000,26000,352000,892515,
-1624,8292,-15244,-2020,-11337,-3702,94000,26000,351000,892527,
-1884,8392,-15136,-2099,-12323,-3734,94000,26000,350000,892530,
-2136,8316,-15428,-2163,-13083,-3733,94000,27000,350000,892532,
-3664,8552,-15400,-2573,-19304,-3937,93000,27000,348000,892545,
-3840,8548,-15356,-2687,-20597,-3908,92000,27000,348000,892547,
-4096,8640,-15468,-2813,-22096,-3897,92000,27000,348000,892549,
-5820,8972,-15772,-3495,-31159,-4046,91000,28000,344000,892562,
-6204,9000,-15940,-3644,-32768,-4158,90000,28000,344000,892564,
-9480,8912,-16368,-4685,-32768,-4700,89000,28000,340000,892577,
-9712,9456,-17540,-4928,-32768,-4837,88000,28000,340000,892579,
-10816,9140,-17264,-5171,-32768,-4720,88000,28000,339000,892581,
-13872,9848,-18296,-6739,-32768,-3926,86000,29000,335000,892594,
-14228,9920,-18524,-7002,-32768,-3707,85000,29000,335000,892596,
-14932,9792,-18840,-7440,-32768,-3488,85000,29000,334000,892599,
-17260,9612,-19696,-9365,-32768,-3153,83000,29000,331000,892611,
-18112,9328,-20340,-9883,-32768,-3172,82000,29000,330000,892613,
-21284,9604,-23648,-13218,-32768,-1019,79000,29000,327000,892626,
-20376,9928,-24176,-13968,-32768,-448,79000,29000,326000,892628,
-19840,9800,-25560,-14852,-32768,137,78000,29000,325000,892631,
-17796,9700,-27496,-19794,-32768,2709,75000,28000,322000,892643,
-17236,9532,-27736,-20520,-32768,3262,74000,28000,321000,892646,
-16992,9516,-28016,-21356,-32768,3963,74000,27000,321000,892648,
-12132,9504,-25796,-25328,-32768,7315,70000,26000,318000,892661,
-11336,9476,-25052,-26203,-32768,7490,70000,26000,317000,892663,
-7632,8952,-21456,-28503,-32768,7250,66000,24000,315000,892676,
-6864,8700,-20412,-28857,-32768,7308,65000,24000,314000,892678,
-6724,8516,-19796,-28925,-32768,7364,65000,23000,314000,892680,
-3972,7220,-14960,-28973,-32768,9136,61000,21000,311000,892693,
-3488,7116,-14088,-28664,-32768,9476,61000,21000,311000,892695,
-2836,6992,-13656,-28608,-32768,9846,60000,20000,310000,892698,
2288,5096,-7240,-26313,-32768,8922,57000,18000,308000,892710,
3212,4860,-6084,-25739,-32768,8252,57000,17000,308000,892712,
11732,3808,412,-20333,-32768,3011,54000,15000,305000,892725,
13804,4088,2400,-18877,-32768,2478,53000,15000,305000,892727,
15828,3768,5004,-16941,-32768,1827,53000,14000,304000,892730,
32767,280,19932,-8980,-32768,4417,52000,12000,302000,892742,
32767,280,20272,-8317,-28328,7032,51000,11000,301000,892745,
32767,3904,13100,-9464,-22988,8669,51000,11000,301000,892747,
18940,8244,11016,-6009,10463,9751,51000,10000,303000,892759,
18236,3892,15316,-4887,12253,7608,51000,10000,303000,892762,
14320,6508,22852,-2999,17182,6911,51000,10000,303000,892764,
-8124,5552,16108,-6343,9110,655,50000,11000,304000,892777,
-8032,5900,14404,-5967,7648,1376,50000,11000,304000,892779,
-10396,3728,15156,-5341,4077,3179,50000,11000,304000,892781,
-19940,7080,15436,-5697,-12481,9740,49000,10000,304000,892794,
-18112,10220,12252,-7206,-15923,8323,49000,10000,304000,892796,
-18932,6052,15756,-6859,-18065,9811,49000,9000,303000,892798,
-5320,5936,13580,-8629,-32768,10655,47000,6000,302000,892811,
-1396,5588,10460,-8742,-32768,10680,47000,6000,301000,892813,
-3320,3868,16684,-7667,-32768,10772,47000,5000,301000,892816,
-26152,-1156,26932,-6171,-26900,10363,46000,3000,300000,892828,
30132,3588,10336,-5824,-28054,9454,46000,3000,300000,892831,
8300,6380,14660,-8792,-22476,8914,45000,0,299000,892843,
8100,5156,14188,-8646,-20806,8549,45000,0,298000,892846,
8584,5428,14008,-8414,-19275,8287,45000,0,298000,892848,
8600,4076,15304,-6627,-12654,6866,44000,-1000,298000,892860,
8460,4008,15132,-6478,-11199,6973,44000,-1000,298000,892863,
8416,4080,14968,-6130,-10025,6906,44000,-2000,298000,892865,
5988,4220,14612,-5840,-7633,5521,43000,-3000,298000,892878,
5536,4940,14060,-6024,-7602,5327,43000,-3000,298000,892880,
4896,4876,14148,-6147,-7576,5128,43000,-3000,298000,892882,
4120,4508,13916,-6057,-8814,4716,42000,-4000,297000,892895,
4184,4324,14040,-5961,-9030,4576,42000,-4000,297000,892897,
4104,4280,14060,-6037,-9427,4496,42000,-4000,297000,892900,
4672,4140,13928,-5607,-10258,4236,41000,-5000,297000,892912,
4692,4256,14124,-5602,-10251,4188,41000,-6000,297000,892915,
4880,4092,14380,-5534,-10266,4127,41000,-6000,297000,892917,
5476,3880,14572,-5049,-9671,3906,40000,-7000,297000,892929,
5688,3692,14376,-4978,-9671,3874,40000,-7000,296000,892932,
5588,3628,14576,-4865,-9440,3835,40000,-7000,296000,892934,
5472,3628,14728,-4458,-8619,3753,39000,-8000,296000,892947,
5316,3664,14832,-4395,-8422,3785,39000,-8000,296000,892949,
5264,3784,14776,-4359,-8401,3811,39000,-9000,296000,892951,
4744,3956,14796,-4381,-8373,4079,39000,-9000,296000,892964,
4584,3968,14724,-4369,-8494,4128,39000,-10000,296000,892966,
4600,3924,14776,-4484,-8640,4175,38000,-10000,296000,892969,
4892,3636,14708,-4668,-9317,4484,38000,-11000,296000,892981,
5092,3628,14676,-4798,-9453,4510,38000,-11000,296000,892984,
5236,3656,14516,-4760,-9438,4568,38000,-11000,296000,892986,
6216,3496,14596,-4943,-9342,4630,37000,-12000,295000,892999,
6384,3580,14752,-4940,-9191,4593,37000,-12000,295000,893001,
6392,3444,14784,-4998,-9150,4526,37000,-13000,295000,893003,
7232,3296,14596,-4871,-8058,4257,36000,-14000,295000,893016,
7080,3196,14772,-4885,-7965,4210,36000,-14000,295000,893018,
7268,3236,14680,-4785,-7653,4137,36000,-14000,295000,893020,
7520,2892,14808,-4670,-6809,3588,36000,-15000,295000,893033,
7688,2804,14824,-4531,-6518,3489,35000,-15000,295000,893035,
7692,2724,14716,-4523,-6456,3409,35000,-15000,295000,893038,
7928,2484,14732,-4058,-5520,2932,35000,-16000,295000,893050,
7968,2596,14780,-4001,-5419,2854,35000,-16000,295000,893052,
7888,2656,14628,-3927,-5263,2726,35000,-16000,295000,893055,
8276,2568,14504,-3556,-4473,2224,34000,-17000,295000,893067,
8348,2488,14380,-3516,-4375,2124,34000,-17000,295000,893069,
8396,2468,14388,-3393,-4046,2048,34000,-17000,295000,893072,
8536,2476,14292,-2930,-3121,1639,34000,-17000,295000,893084,
8560,2532,14324,-2827,-2929,1556,34000,-17000,295000,893087,
8512,2640,14160,-2779,-2821,1497,33000,-17000,295000,893089,
8440,2344,14220,-2274,-1971,1186,33000,-18000,295000,893102,
8328,2468,14184,-2242,-1913,1183,33000,-18000,295000,893104,
8336,2412,14184,-2112,-1712,1127,33000,-18000,295000,893106,
7652,2552,14100,-1859,-1319,1048,33000,-18000,295000,893119,
6744,2328,13932,-1882,-1179,1314,33000,-18000,295000,893121,
8380,2772,14180,-1673,-1169,820,32000,-18000,295000,893134,
8312,2752,14244,-1623,-1076,742,32000,-18000,295000,893136,
8320,2700,14336,-1646,-989,642,32000,-18000,295000,893138,
8140,2584,14304,-1326,-91,306,32000,-18000,295000,893151,
8140,2608,14408,-1318,28,234,32000,-18000,295000,893153,
8140,2504,14384,-1175,205,142,32000,-18000,295000,893155,
7176,2156,14408,-1128,556,490,32000,-18000,295000,893168,
7264,2208,14308,-972,614,554,32000,-18000,295000,893170,
7612,2412,14220,-900,624,529,32000,-18000,295000,893173,
7400,2740,14268,-1007,703,218,31000,-18000,295000,893185,
7404,2704,14344,-1044,677,205,31000,-18000,296000,893188,
7484,2696,14308,-984,767,232,31000,-18000,296000,893190,
7268,2480,14360,-1106,819,209,31000,-18000,296000,893203,
7064,2532,14232,-996,892,177,31000,-18000,296000,893205,
7044,2616,14204,-1065,844,216,31000,-18000,296000,893207,
7296,2504,14332,-924,746,123,31000,-18000,296000,893220,
7512,2604,14204,-1023,689,81,31000,-18000,296000,893222,
7440,2496,14148,-983,732,74,31000,-18000,296000,893224,
7648,2612,14092,-865,1159,19,30000,-18000,296000,893237,
7676,2528,14324,-798,1272,42,30000,-18000,296000,893239,
7656,2600,14320,-825,1310,50,30000,-18000,296000,893241,
7500,2548,14200,-702,1451,47,30000,-18000,296000,893254,
7520,2648,14232,-748,1429,19,30000,-18000,296000,893256,
7604,2532,14304,-660,1469,-34,30000,-18000,296000,893259,
7544,2628,14552,-610,1665,-132,30000,-18000,296000,893271,
7716,2528,14440,-576,1838,-178,30000,-18000,296000,893273,
7660,2564,14444,-579,1824,-192,30000,-18000,296000,893276,
6972,2468,14568,-388,2184,-133,29000,-18000,296000,893288,
7052,2564,14452,-365,2135,-69,29000,-18000,296000,893291,
7180,2628,14588,-317,2228,-56,29000,-18000,296000,893293,
7228,2836,14432,-225,2330,-140,29000,-18000,297000,893306,
7200,2940,14296,-250,2308,-158,29000,-18000,297000,893308,
7260,2784,14492,-226,2401,-157,29000,-18000,297000,893310,
6888,2860,14496,-271,2446,-108,29000,-18000,297000,893323,
6840,2772,14332,-194,2452,-73,29000,-18000,297000,893325,
6544,2716,14360,-229,2426,-31,29000,-18000,297000,893327,
6972,2892,14452,-103,2264,-45,29000,-17000,297000,893340,
6872,2892,14400,-179,2234,-41,29000,-17000,297000,893342,
6860,2896,14488,-163,2260,12,29000,-17000,297000,893344,
7148,2936,14588,-150,2476,50,29000,-17000,297000,893357,
7272,2980,14564,-132,2593,12,29000,-17000,297000,893359,
7216,2956,14692,-177,2593,-14,29000,-17000,297000,893361,
7064,2816,14592,-105,3175,29,28000,-17000,297000,893374,
7064,2828,14636,-86,3250,98,28000,-17000,297000,893376,
7168,2840,14604,-41,3391,119,28000,-17000,297000,893378,
7028,2800,14644,9,3492,-165,28000,-17000,298000,893391,
6904,2800,14836,28,3576,-174,28000,-17000,298000,893393,
6732,2836,14772,3,3474,-198,28000,-17000,298000,893396,
6704,2852,14840,57,3331,-72,28000,-16000,298000,893408,
6760,2788,14660,-21,3235,-87,28000,-16000,298000,893411,
6796,2836,14648,42,3281,-135,28000,-16000,298000,893413,
6952,2808,14744,90,3491,-271,28000,-16000,298000,893425,
