Ax,Ay,Az,Gx,Gy,Gz,Roll,Pitch,Yaw,Timestamp,Target
-1988,-6148,20000,-16354,931,-6382,-21000,6000,336000,708689,
-2128,-6244,20128,-16206,881,-6316,-21000,6000,336000,708691,
-2200,-6144,20000,-15938,915,-6299,-21000,6000,336000,708694,
-2440,-6156,20316,-14949,378,-6113,-23000,6000,335000,708706,
-2532,-6264,20244,-14669,257,-6050,-23000,6000,335000,708709,
-2556,-6524,20396,-13846,-561,-5730,-25000,6000,335000,708721,
-2924,-6460,20508,-13712,-605,-5580,-25000,5000,335000,708723,
-2528,-6728,20488,-13489,-783,-5357,-25000,5000,334000,708726,
-1456,-7500,20440,-12804,-1952,-5660,-26000,5000,334000,708738,
-1144,-7484,20252,-12662,-2060,-5902,-26000,5000,334000,708741,
-1416,-7808,20420,-12555,-2102,-6135,-27000,5000,334000,708743,
-1588,-7924,19524,-12440,-1520,-5126,-28000,4000,334000,708755,
-1740,-7920,19328,-12373,-1199,-4943,-28000,4000,333000,708758,
-1348,-8048,18548,-12181,117,-4353,-29000,4000,333000,708770,
-1308,-8056,18384,-11974,407,-4279,-29000,4000,333003000,331000,
-984,-7164,14384,-522,150,-134,-33000,3000,331000,710916,
-1012,-7164,14220,-474,181,-113,-33000,3000,331000,710929,
-1000,-7116,14224,-483,136,-106,-33000,3000,331000,710931,
-2252,-9000,19632,-10163,260,-3271,-32000,4000,332000,708805,
-2444,-8876,18820,-9297,93,-3011,-32000,4000,332000,708807,
-3040,-8988,20780,-8197,-368,-2750,-32000,4000,332000,708809,
-4736,-20168,32767,10649,1337,-2951,-31000,4000,332000,708822,
-6084,-18292,32767,12389,3276,-2395,-31000,4000,332000,708824,
-9688,-11004,32767,9912,2765,1721,-30000,4000,332000,708836,
-9512,-9088,32767,9217,1277,1990,-30000,4000,332000,708839,
-9068,-7540,32767,8270,-484,2086,-30000,4000,332000,708841,
-5328,3428,29988,4375,-9530,1799,-29000,4000,332000,708854,
-4532,3448,27300,3680,-9895,2175,-29000,3000,333000,708856,
-3440,2552,23936,2756,-10415,2682,-29000,3000,333000,708858,
2256,-2920,16084,-75,-6975,4251,-29000,3000,333000,708871,
2792,-3248,13980,-949,-6483,4076,-29000,3000,333000,708873,
4540,-2912,11872,-1897,-4684,3732,-29000,3000,334000,708875,
4368,-204,11572,-4237,-527,1900,-29000,3000,334000,708888,
4144,-264,10856,-4634,73,1545,-29000,3000,334000,708890,
4088,-608,10924,-5150,604,1263,-29000,3000,334000,708892,
2104,-3140,11736,-5311,2798,674,-30000,3000,334000,708905,
1896,-3872,11932,-5395,2906,638,-30000,3000,334000,708907,
1396,-4044,12020,-5365,2853,692,-30000,3000,334000,708909,
48,-6312,12060,-6067,1636,485,-30000,3000,334000,708922,
176,-7148,12728,-5906,1175,196,-30000,3000,334000,708924,
-1260,-8008,14520,-4951,-26,121,-30000,3000,334000,708926,
-1640,-8148,13400,-4131,-3088,26,-31000,3000,334000,708939,
-1908,-8520,13468,-3875,-3720,93,-31000,3000,334000,708941,
-2028,-8680,13296,-3657,-4282,191,-31000,3000,334000,708944,
-1260,-9140,13144,-2869,-5952,664,-31000,2000,334000,708956,
-1172,-9272,13156,-2671,-5961,706,-31000,2000,334000,708958,
-1108,-9284,13032,-2605,-6004,735,-31000,2000,334000,708961,
-328,-9064,12696,-2065,-4267,854,-32000,2000,335000,708973,
-388,-9096,12300,-1998,-3857,861,-32000,2000,335000,708976,
-244,-9076,12512,-1881,-3245,842,-32000,2000,335000,708978,
-584,-8932,12192,-1306,-503,666,-32000,2000,335000,708990,
-588,-8868,12344,-1156,-33,632,-32000,2000,335000,708993,
-804,-8784,12172,-1174,235,619,-32000,2000,335000,708995,
-1696,-8632,12320,-637,972,413,-32000,2000,335000,709008,
-1776,-8412,12220,-605,1000,391,-32000,2000,335000,709010,
-1940,-8436,12144,-573,872,378,-32000,2000,335000,709012,
-2452,-8096,12312,-388,-425,451,-32000,2000,335000,709025,
-2484,-7996,12408,-411,-756,454,-32000,2000,335000,709027,
-2432,-7908,12484,-378,-1079,498,-32000,2000,335000,709029,
-1972,-7552,12588,-424,-2659,550,-32000,2000,335000,709042,
-1780,-7612,12648,-494,-3008,524,-32000,2000,335000,709044,
-1776,-7564,12748,-444,-3141,530,-32000,2000,335000,709046,
-1020,-7308,13332,-393,-3591,386,-32000,1000,335000,709059,
-928,-7264,13316,-329,-3599,364,-32000,1000,335000,709061,
-860,-7308,13452,-315,-3498,331,-32000,1000,335000,709064,
-344,-7180,14400,32,-2912,64,-32000,1000,336000,709076,
-232,-7244,14656,145,-2706,18,-32000,1000,336000,709078,
-156,-7192,14988,148,-2591,-50,-32000,1000,336000,709081,
148,-6980,15820,458,-1925,-305,-32000,1000,336000,709093,
128,-7016,15776,497,-1763,-346,-32000,1000,336000,709095,
256,-6936,16208,457,-1722,-400,-32000,1000,336000,709098,
464,-6780,16612,464,-1052,-512,-32000,1000,336000,709110,
604,-6600,16760,377,-1015,-575,-32000,1000,336000,709112,
748,-6560,16660,388,-812,-573,-32000,1000,336000,709115,
796,-6224,16596,104,-58,-618,-32000,1000,336000,709127,
844,-6288,16656,83,145,-615,-32000,1000,336000,709130,
932,-6224,16560,18,351,-634,-32000,1000,336000,709132,
912,-6156,15936,-248,1415,-665,-32000,1000,336000,709144,
748,-6136,15844,-323,1639,-673,-32000,1000,336000,709147,
696,-6184,15800,-372,1767,-715,-32000,1000,336000,709149,
500,-6156,14900,-534,2511,-703,-32000,1000,335000,709161,
356,-6200,15008,-627,2521,-696,-32000,1000,335000,709164,
412,-6388,14736,-576,2658,-667,-32000,1000,335000,709166,
-124,-6444,14300,-828,2714,-648,-32000,1000,335000,709178,
-148,-6428,14168,-811,2711,-646,-32000,1000,335000,709181,
-136,-6560,14156,-854,2698,-610,-32000,1000,335000,709183,
-512,-6944,13784,-916,2228,-606,-32000,1000,335000,709195,
-540,-6992,13928,-856,2189,-602,-32000,1000,335000,709198,
-596,-7064,13856,-939,2065,-583,-32000,1000,335000,709200,
-728,-7160,13828,-837,1466,-506,-32000,1000,335000,709212,
-760,-7184,13968,-851,1342,-470,-32000,1000,335000,709215,
-816,-7372,13984,-853,1238,-465,-32000,1000,335000,709217,
-836,-7528,14020,-761,668,-335,-32000,1000,335000,709229,
-892,-7584,13852,-781,481,-336,-32000,1000,335000,709232,
-924,-7432,14152,-747,466,-336,-32000,1000,335000,709234,
-748,-7480,14220,-683,40,-212,-32000,1000,335000,709247,
-660,-7544,14248,-615,-23,-190,-32000,1000,335000,709249,
-584,-7516,14420,-655,-32,-171,-32000,1000,335000,709251,
-492,-7524,14404,-521,-236,-135,-32000,1000,335000,709263,
-456,-7556,14436,-519,-180,-153,-32000,1000,335000,709266,
-348,-7428,14376,-540,-242,-136,-32000,1000,335000,709268,
-108,-7364,14416,-386,-133,-148,-32000,1000,335000,709280,
-112,-7420,14384,-407,-30,-156,-32000,1000,335000,709283,
48,-7248,14428,-426,-55,-179,-32000,1000,335000,709285,
52,-7220,14408,-328,265,-208,-32000,1000,335000,709297,
88,-7332,14308,-357,241,-230,-32000,1000,335000,709300,
76,-7232,14432,-307,403,-258,-32000,1000,335000,709302,
276,-7136,14404,-344,725,-286,-32000,1000,334000,709314,
216,-7268,14560,-351,764,-297,-32000,1000,334000,709317,
192,-7212,14436,-326,869,-299,-32000,1000,334000,709319,
172,-7232,14408,-360,1215,-398,-32000,1000,334000,709331,
292,-7212,14616,-307,1324,-369,-32000,1000,334000,709333,
184,-7132,14516,-330,1414,-360,-32000,1000,334000,709336,
8,-7180,14440,-339,1777,-402,-32000,2000,334000,709348,
0,-7236,14560,-389,1884,-385,-32000,2000,334000,709350,
4,-7288,14456,-385,1906,-423,-32000,2000,334000,709353,
-124,-7196,14452,-394,2264,-394,-32000,2000,334000,709365,
-156,-7220,14468,-417,2273,-405,-32000,2000,334000,709367,
-176,-7240,14552,-357,2417,-394,-32000,2000,334000,709370,
-252,-7208,14440,-477,2547,-395,-32000,2000,334000,709382,
-328,-7140,14488,-422,2585,-360,-32000,2000,334000,709384,
-324,-7200,14444,-449,2697,-370,-32000,2000,334000,709387,
-428,-7240,14428,-478,2798,-377,-32000,2000,334000,709399,
-456,-7164,14484,-469,2857,-367,-32000,2000,334000,709401,
-372,-7236,14356,-520,2837,-370,-32000,2000,333000,709404,
-580,-7208,14440,-406,2992,-404,-32000,3000,333000,709416,
-716,-7328,14224,-412,3031,-458,-32000,3000,333000,709418,
-700,-7180,14304,-397,2970,-453,-32000,3000,333000,709421,
-976,-7176,14360,-360,2742,-458,-32000,3000,333000,709433,
-1184,-7124,14280,-390,2609,-473,-32000,3000,333000,709435,
-1272,-7132,14368,-373,2561,-460,-32000,3000,333000,709438,
-1528,-7084,14440,-418,2056,-387,-32000,3000,333000,709450,
-1476,-7108,14284,-411,1915,-335,-32000,3000,333000,709453,
-1564,-7084,14408,-411,1832,-317,-32000,3000,333000,709455,
-1716,-7080,14428,-441,1270,-217,-32000,3000,333000,709467,
-1704,-7088,14484,-375,1211,-237,-32000,3000,333000,709470,
-1640,-7096,14392,-422,1131,-259,-32000,3000,333000,709472,
-1608,-7148,14392,-418,574,-173,-32000,3000,333000,709485,
-1692,-7052,14224,-367,546,-193,-32000,3000,333000,709487,
-1560,-7096,14220,-414,382,-206,-32000,3000,333000,709489,
-1516,-7124,14204,-371,75,-167,-32000,3000,333000,709502,
-1496,-7052,14368,-382,69,-166,-32000,3000,333000,709504,
-1396,-7052,14340,-409,-34,-171,-32000,3000,333000,709506,
-1260,-7092,14080,-354,-127,-169,-32000,3000,333000,709519,
-1264,-7036,14240,-406,-209,-220,-32000,3000,333000,709521,
-1240,-7144,14160,-371,-143,-226,-32000,3000,333000,709523,
-1144,-7144,14220,-402,-268,-231,-32000,3000,333000,709536,
-1172,-7008,14276,-359,-295,-189,-32000,3000,333000,709538,
-1108,-6964,14272,-369,-269,-230,-32000,3000,333000,709540,
-980,-7112,14372,-440,-441,-219,-32000,3000,333000,709553,
-1020,-7012,14360,-383,-407,-201,-32000,3000,333000,709555,
-1028,-7116,14356,-454,-457,-191,-32000,3000,333000,709558,
-944,-7008,14400,-452,-528,-150,-32000,3000,333000,709570,
-896,-7000,14448,-475,-523,-137,-32000,3000,333000,709573,
-824,-7008,14408,-486,-552,-152,-32000,3000,333000,709575,
-728,-7072,14500,-516,-484,-104,-32000,3000,333000,709587,
-604,-7032,14524,-537,-537,-77,-32000,3000,333000,709590,
-676,-6936,14376,-510,-465,-96,-32000,3000,333000,709592,
-632,-7020,14412,-555,-328,-61,-32000,3000,333000,709604,
-600,-7112,14436,-560,-329,-35,-32000,3000,333000,709607,
-552,-7108,14488,-555,-225,-85,-32000,3000,333000,709609,
-456,-7184,14388,-598,-81,-63,-32000,3000,333000,709621,
-576,-7200,14492,-545,11,-74,-32000,3000,333000,709624,
-564,-7100,14424,-614,48,-56,-32000,3000,333000,709626,
-592,-7184,14508,-563,233,-94,-32000,3000,333000,709638,
-660,-7280,14364,-545,313,-75,-32000,3000,333000,709640,
-592,-7188,14476,-586,299,-81,-32000,3000,333000,709643,
-828,-7156,14212,-529,432,-81,-32000,3000,333000,709655,
-844,-7232,14196,-539,495,-108,-32000,3000,333000,709657,
-740,-7236,14200,-552,461,-86,-32000,3000,333000,709660,
-944,-7152,14324,-551,554,-104,-32000,3000,333000,709672,
-896,-7168,14204,-583,534,-128,-32000,3000,333000,709674,
-896,-7128,14248,-529,551,-152,-32000,3000,333000,709677,
-984,-7184,14336,-582,500,-153,-32000,3000,333000,709689,
-1100,-7144,14392,-509,494,-150,-32000,3000,333000,709691,
-1012,-7152,14244,-527,499,-154,-32000,3000,333000,709693,
-1044,-7284,14492,-579,375,-194,-32000,3000,333000,709706,
-1088,-7176,14344,-502,401,-191,-32000,3000,333000,709708,
-1096,-7140,14432,-529,380,-157,-32000,3000,332000,709710,
-1064,-7100,14384,-533,232,-175,-32000,3000,332000,709723,
-952,-7092,14400,-489,322,-181,-32000,3000,332000,709725,
-1068,-7252,14352,-550,197,-166,-32000,3000,332000,709727,
-1000,-7124,14308,-475,203,-148,-32000,3000,332000,709740,
-1036,-7284,14340,-527,269,-168,-32000,3000,332000,709742,
-1028,-7164,14284,-520,201,-173,-32000,3000,332000,709744,
-908,-7160,14248,-475,269,-147,-32000,3000,332000,709757,
-936,-7200,14352,-518,272,-142,-32000,3000,332000,709759,
-852,-7184,14248,-496,253,-187,-32000,3000,332000,709761,
-920,-7180,14252,-467,355,-165,-32000,3000,332000,709774,
-928,-7088,14216,-492,283,-157,-32000,3000,332000,709776,
-916,-7152,14328,-478,351,-163,-32000,3000,332000,709778,
-808,-7204,14324,-505,305,-138,-32000,3000,332000,709791,
-888,-7240,14376,-460,337,-158,-32000,3000,332000,709793,
-916,-7200,14308,-498,307,-147,-32000,3000,332000,709795,
-960,-7164,14240,-455,256,-155,-32000,3000,332000,709808,
-920,-7204,14256,-462,300,-125,-32000,3000,332000,709810,
-964,-7140,14348,-482,219,-126,-32000,3000,332000,709812,
-1056,-7168,14568,-415,163,-47,-32000,3000,332000,709825,
-1004,-7244,14500,-486,104,-51,-32000,3000,332000,709827,
-1064,-7140,14388,-436,96,-29,-32000,3000,332000,709829,
-928,-7204,14472,-487,-160,33,-32000,3000,332000,709842,
-864,-7204,14236,-467,-157,103,-32000,3000,332000,709844,
-844,-7124,14388,-488,-147,102,-32000,3000,332000,709846,
-816,-7220,14404,-498,-351,115,-32000,3000,332000,709859,
-940,-7168,14288,-482,-280,146,-32000,3000,332000,709861,
-864,-7208,14344,-542,-364,134,-32000,3000,332000,709863,
-732,-7080,14432,-480,-292,140,-32000,3000,332000,709876,
-720,-7304,14392,-529,-275,107,-32000,3000,332000,709878,
-832,-7180,14288,-535,-282,120,-32000,3000,332000,709880,
-712,-7152,14300,-499,-74,60,-32000,3000,332000,709892,
-668,-7176,14424,-571,-79,61,-32000,3000,332000,709895,
-736,-7196,14436,-506,-35,44,-32000,3000,332000,709897,
-800,-7232,14400,-529,189,-26,-32000,3000,332000,709909,
-820,-7164,14380,-557,204,-20,-32000,3000,332000,709912,
-828,-7252,14348,-507,229,-40,-32000,3000,332000,709914,
-828,-7148,14380,-497,389,-85,-32000,3000,332000,709926,
-924,-7136,14376,-547,307,-66,-32000,3000,332000,709929,
-940,-7192,14384,-515,379,-99,-32000,3000,332000,709931,
-1064,-7108,14244,-544,426,-120,-32000,3000,332000,709943,
-956,-7132,14372,-488,418,-149,-32000,3000,332000,709946,
-1044,-7216,14308,-543,452,-152,-32000,3000,332000,709948,
-1028,-7164,14356,-471,432,-179,-32000,3000,332000,709960,
-1176,-7140,14336,-509,419,-160,-32000,3000,332000,709963,
-1172,-7068,14276,-467,405,-191,-32000,3000,332000,709965,
-1236,-7100,14268,-495,264,-161,-32000,3000,332000,709978,
-1316,-7192,14284,-502,203,-113,-32000,3000,332000,709980,
-1244,-7136,14272,-465,212,-163,-32000,3000,332000,709982,
-1232,-7124,14268,-479,3,-140,-32000,3000,332000,709995,
-1164,-7232,14292,-487,-34,-107,-32000,3000,332000,709997,
-1156,-7100,14216,-482,-1,-124,-32000,3000,332000,709999,
-1056,-7140,14300,-530,-194,-111,-32000,3000,332000,710011,
-1036,-7144,14332,-468,-126,-71,-32000,3000,332000,710014,
-1116,-7184,14420,-537,-182,-93,-32000,3000,332000,710016,
-788,-7232,14412,-491,-149,-110,-32000,3000,332000,710028,
-872,-7252,14416,-512,-138,-70,-32000,3000,332000,710031,
-904,-7108,14448,-538,-170,-55,-32000,3000,332000,710033,
-768,-7236,14300,-479,-66,-60,-32000,3000,332000,710045,
-840,-7168,14360,-512,-93,-52,-32000,3000,332000,710048,
-824,-7140,14252,-487,-2,-89,-32000,3000,332000,710050,
-856,-7152,14312,-554,33,-75,-32000,3000,332000,710062,
-812,-7216,14224,-482,45,-48,-32000,3000,332000,710065,
-844,-7208,14288,-503,90,-77,-32000,3000,332000,710067,
-912,-7280,14304,-531,73,-44,-32000,3000,332000,710079,
-800,-7168,14268,-484,151,-56,-32000,3000,332000,710082,
-900,-7140,14448,-534,161,-97,-32000,3000,332000,710084,
-900,-7192,14388,-515,153,-96,-32000,3000,332000,710096,
-824,-7212,14256,-502,178,-114,-32000,3000,332000,710099,
-800,-7188,14240,-507,152,-109,-32000,3000,332000,710101,
-932,-7204,14120,-481,208,-129,-32000,3000,332000,710113,
-960,-7212,14196,-522,119,-110,-32000,3000,332000,710116,
-1044,-7176,14276,-476,206,-128,-32000,3000,332000,710118,
-904,-7200,14264,-487,201,-163,-32000,3000,332000,710130,
-1004,-7184,14260,-468,121,-122,-32000,3000,332000,710133,
-1004,-7200,14152,-459,164,-167,-32000,3000,332000,710135,
-1036,-7220,14220,-463,19,-118,-32000,3000,332000,710147,
-944,-7048,14216,-483,48,-158,-32000,3000,332000,710150,
-880,-7108,14284,-503,-34,-159,-32000,3000,332000,710152,
-896,-7040,14252,-468,-70,-142,-33000,3000,332000,710164,
-928,-7052,14220,-513,-68,-138,-33000,3000,332000,710167,
-848,-7076,14224,-515,-115,-153,-33000,3000,332000,710169,
-780,-7168,14420,-525,-48,-161,-33000,3000,332000,710181,
-712,-7200,14404,-503,-59,-179,-33000,3000,332000,710184,
-816,-7184,14184,-466,3,-193,-33000,3000,332000,710186,
-808,-7080,14436,-519,117,-152,-33000,3000,332000,710198,
-772,-7208,14480,-494,145,-197,-33000,3000,332000,710201,
-840,-7176,14280,-502,165,-181,-33000,3000,332000,710203,
-760,-7188,14332,-478,253,-168,-33000,3000,332000,710215,
-1028,-7276,14316,-417,183,-181,-33000,3000,331000,711035,
-1004,-7124,14340,-483,143,-135,-33000,3000,331000,711048,
-1076,-7224,14232,-442,178,-126,-33000,3000,331000,711050,
-968,-7320,14268,-495,169,-159,-33000,3000,331000,711052,
-960,-7220,14424,-488,18,-141,-33000,3000,331000,711065,
-1052,-7240,14296,-439,55,-99,-33000,3000,331000,711067,
-1100,-7180,14416,-505,-13,-121,-33000,3000,331000,711069,
-996,-7092,14496,-459,-44,-70,-33000,3000,331000,711082,
-892,-7128,14316,-464,5,-64,-33000,3000,331000,711084,
-940,-7240,14412,-493,-70,-53,-33000,3000,331000,711086,
-864,-7340,14376,-458,31,-135,-33000,3000,331000,711099,
-820,-7244,14336,-499,72,-139,-33000,3000,331000,711101,
-784,-7200,14172,-455,76,-142,-33000,3000,331000,711103,
-732,-7336,14204,-414,296,-207,-33000,3000,331000,711116,
-908,-7232,14120,-477,267,-168,-33000,3000,331000,711118,
-912,-7300,14336,-405,332,-210,-33000,3000,331000,711120,
-928,-7260,14388,-428,439,-250,-33000,3000,331000,711133,
-1016,-7248,14168,-433,409,-239,-33000,3000,331000,711135,
-996,-7180,14364,-405,472,-250,-33000,3000,331000,711137,
-1084,-7108,14408,-439,279,-223,-33000,3000,331000,711150,
-1044,-7100,14264,-422,307,-186,-33000,3000,331000,711152,
-1108,-7144,14356,-467,239,-201,-33000,3000,331000,711154,
-1080,-7104,14420,-481,88,-167,-33000,3000,331000,711167,
-1152,-7116,14428,-448,149,-149,-33000,3000,331000,711169,
-984,-7172,14560,-497,73,-166,-33000,3000,331000,711171,
-940,-7080,14376,-472,27,-127,-33000,3000,331000,711184,
-932,-7140,14316,-516,-8,-119,-33000,3000,331000,711186,
-888,-7156,14352,-465,58,-125,-33000,3000,331000,711188,
-820,-7180,14308,-532,94,-176,-33000,3000,331000,711201,
-796,-7208,14348,-506,124,-142,-33000,3000,331000,711203,
-872,-7168,14320,-497,168,-142,-33000,3000,331000,711205,
-872,-7240,14316,-498,278,-178,-33000,3000,331000,711217,
-908,-7280,14396,-502,349,-172,-33000,3000,331000,711220,
-936,-7120,14264,-490,281,-186,-33000,3000,331000,711222,
-1012,-7160,14420,-484,374,-163,-33000,3000,331000,711234,
-1108,-7240,14260,-471,324,-189,-33000,3000,331000,711237,
-1028,-7308,14320,-467,353,-201,-33000,3000,331000,711239,
-1048,-7220,14264,-454,228,-146,-33000,3000,331000,711251,
-1188,-7248,14224,-435,320,-155,-33000,3000,331000,711254,
-1092,-7280,14200,-459,232,-132,-33000,3000,331000,711256,
-1080,-7284,14300,-446,150,-145,-33000,3000,331000,711268,
-1064,-7268,14400,-454,191,-135,-33000,3000,331000,711271,
-940,-7208,14352,-507,108,-147,-33000,3000,331000,711273,
-976,-7276,14356,-437,193,-121,-33000,3000,331000,711286,
-1000,-7192,14364,-516,85,-124,-33000,3000,331000,711288,
-968,-7184,14248,-450,198,-87,-33000,3000,331000,711290,
-984,-7192,14096,-476,229,-146,-33000,3000,331000,711303,
-744,-7160,14436,-487,147,-117,-33000,3000,331000,711305,
-976,-7172,14384,-433,246,-141,-33000,3000,331000,711307,
-932,-7116,14316,-473,266,-148,-33000,3000,331000,711320,
-976,-7224,14264,-492,255,-154,-33000,3000,331000,711322,
-976,-7220,14308,-480,296,-160,-33000,3000,331000,711324,
-952,-7164,14336,-510,301,-182,-33000,3000,331000,711336,
-920,-7116,14232,-441,358,-167,-33000,3000,331000,711339,
-916,-7036,14384,-491,326,-199,-33000,3000,331000,711341,
-1016,-7092,14368,-486,300,-139,-33000,3000,331000,711353,
-1012,-7076,14332,-425,367,-153,-33000,3000,331000,711356,
-1004,-7240,14340,-494,278,-151,-33000,3000,331000,711358,
-1020,-7216,14104,-431,320,-165,-33000,3000,330000,711370,
-980,-7224,14224,-500,223,-151,-33000,3000,330000,711373,
-1000,-7164,14184,-412,300,-145,-33000,4000,330000,711375,
-996,-7184,14324,-469,296,-169,-33000,4000,330000,711387,
-976,-7088,14156,-434,290,-164,-33000,4000,330000,711390,
-1004,-7216,14156,-439,304,-158,-33000,4000,330000,711392,
-1120,-7192,14264,-459,257,-172,-33000,4000,330000,711404,
-1096,-7288,14352,-415,310,-168,-33000,4000,330000,711407,
-976,-7140,14404,-467,269,-197,-33000,4000,330000,711409,
-1196,-7308,14364,-396,246,-195,-33000,4000,330000,711421,
-1000,-7084,14304,-443,322,-169,-33000,4000,330000,711424,
-1068,-7200,14280,-421,215,-165,-33000,4000,330000,711426,
-1164,-7156,14236,-401,270,-158,-33000,4000,330000,711439,
-1168,-7208,14288,-455,183,-145,-33000,4000,330000,711441,
-1124,-7088,14380,-405,211,-162,-33000,4000,330000,711443,
-1116,-7136,14360,-458,150,-153,-33000,4000,330000,711456,
-1104,-7256,14364,-397,184,-164,-33000,4000,330000,711458,
-1004,-7188,14336,-457,155,-113,-33000,4000,330000,711460,
-1000,-7180,14360,-425,191,-136,-33000,4000,330000,711473,
-944,-7044,14348,-423,252,-185,-33000,4000,330000,711475,
-1096,-7260,14380,-451,194,-154,-33000,4000,330000,711477,
-952,-7324,14216,-388,290,-167,-33000,4000,330000,711490,
-1064,-7256,14292,-426,248,-167,-33000,4000,330000,711492,
-980,-7180,14280,-381,295,-171,-33000,4000,330000,711494,
-1064,-7232,14284,-434,324,-186,-33000,4000,330000,711507,
-952,-7180,14380,-401,347,-212,-33000,4000,330000,711509,
-1016,-7316,14248,-433,319,-207,-33000,4000,330000,711511,
-1092,-7240,14272,-381,335,-194,-33000,4000,330000,711524,
-1144,-7192,14116,-425,298,-204,-33000,4000,330000,711526,
-1136,-7164,14236,-373,308,-187,-33000,4000,330000,711528,
-1104,-7204,14240,-400,285,-179,-33000,4000,330000,711541,
-960,-7200,14404,-411,215,-193,-33000,4000,330000,711543,
-1176,-7156,14344,-373,251,-172,-33000,4000,330000,711545,
-1096,-7288,14312,-413,229,-189,-33000,4000,330000,711558,
-1128,-7216,14280,-415,162,-155,-33000,4000,330000,711560,
-996,-7132,14360,-407,244,-199,-33000,4000,330000,711562,
-1108,-7228,14280,-423,179,-161,-33000,4000,330000,711575,
-1104,-7100,14520,-377,205,-144,-33000,4000,330000,711577,
-1108,-7052,14328,-442,174,-159,-33000,4000,330000,711579,
-1056,-7208,14344,-411,227,-166,-33000,4000,330000,711592,
-972,-7148,14252,-462,193,-182,-33000,4000,330000,711594,
-1036,-7128,14280,-420,204,-134,-33000,4000,330000,711596,
-924,-7184,14348,-425,235,-168,-33000,4000,330000,711609,
-1012,-7112,14376,-491,176,-156,-33000,4000,330000,711611,
-980,-7176,14332,-402,197,-143,-33000,4000,330000,711613,
-1028,-7168,14308,-453,196,-134,-33000,4000,330000,711626,
-1072,-7108,14336,-428,153,-163,-33000,4000,330000,711628,
-1004,-7188,14268,-440,241,-159,-33000,4000,330000,711630,
-976,-7088,14376,-468,185,-173,-33000,4000,330000,711643,
-1048,-7144,14344,-426,187,-176,-33000,4000,330000,711645,
-1116,-7064,14200,-466,147,-159,-33000,4000,330000,711647,
-1204,-7008,14364,-438,187,-128,-33000,4000,330000,711660,
-1224,-7120,14196,-478,104,-135,-33000,4000,330000,711662,
-1160,-7064,14384,-429,86,-116,-33000,4000,330000,711664,
-1520,-6908,14420,-540,50,-28,-33000,4000,330000,711677,
-1588,-6852,14540,-603,-30,-25,-33000,4000,330000,711679,
-1464,-6764,14728,-556,-11,18,-33000,4000,330000,711681,
-1700,-6716,15160,-908,-450,311,-33000,4000,330000,711694,
-1548,-6648,15204,-944,-585,425,-33000,4000,330000,711696,
-1552,-6560,15344,-1014,-653,495,-33000,4000,330000,711698,
-1016,-6520,16428,-1727,-1216,886,-33000,4000,330000,711711,
-852,-6504,16664,-1853,-1135,962,-33000,4000,330000,711713,
-604,-6268,17080,-2114,-1190,1058,-33000,4000,330000,711716,
64,-5572,18596,-3058,199,1318,-33000,4000,330000,711728,
240,-5400,18772,-3271,575,1285,-33000,4000,330000,711730,
160,-5284,19264,-3441,1110,1335,-33000,4000,330000,711733,
-588,-5360,22392,-4032,4042,1346,-34000,4000,330000,711745,
-884,-5516,22960,-4081,4481,1361,-34000,4000,330000,711747,
-1192,-5700,24012,-4129,4927,1400,-34000,4000,330000,711750,
-3120,-6112,29132,-4665,6093,2145,-34000,5000,330000,711762,
-3268,-6324,29976,-4823,6195,2440,-34000,5000,330000,711765,
-3536,-6484,31096,-5161,6128,2793,-34000,5000,330000,711767,
-4000,-8116,32767,-6067,4586,3321,-35000,6000,330000,711780,
-4404,-8684,32767,-6352,3909,3828,-35000,6000,330000,711782,
-3832,-8516,32767,-6432,3321,4075,-35000,6000,330000,711784,
-3380,-8476,29552,-4591,-227,5733,-35000,6000,331000,711797,
-2712,-5688,30124,-3656,-892,5963,-35000,6000,331000,711799,
-2844,-5796,29180,-2531,-1448,6194,-35000,6000,331000,711801,
-3800,-7292,25832,-1302,-3805,8565,-35000,6000,332000,711814,
-3712,-7272,25980,-370,-3899,8933,-35000,6000,332000,711816,
-3676,-8100,25764,313,-3785,9393,-35000,7000,332000,711819,
-3684,-12320,26464,3974,89,10411,-34000,7000,333000,711831,
-3380,-12816,26644,4686,1335,10220,-34000,7000,333000,711833,
-3740,-13424,26796,5472,2387,10151,-34000,7000,333000,711836,
-4504,-14888,27992,11985,6449,9079,-33000,8000,333000,711848,
-5092,-14572,28040,12967,6955,8934,-33000,9000,334000,711851,
-5552,-14284,27768,13954,7842,8976,-32000,9000,334000,711853,
-9488,-13604,27552,18883,4943,9627,-30000,10000,334000,711866,
-9028,-12784,26784,19647,4073,9842,-30000,10000,334000,711868,
-10580,-11664,26772,22090,-2976,9428,-28000,10000,335000,711880,
-10596,-11292,26508,22429,-4442,9252,-27000,10000,335000,711883,
-10260,-11172,26580,22668,-5814,9040,-27000,10000,336000,711885,
-9216,-10060,25392,24296,-12379,9156,-24000,9000,337000,711898,
-8472,-10020,25344,24577,-12852,9326,-24000,9000,337000,711900,
-8332,-9916,25128,24998,-13577,9483,-23000,9000,337000,711902,
-6100,-9216,24420,25815,-14739,10034,-20000,8000,339000,711915,
-5764,-8968,24076,26067,-15006,10053,-20000,8000,339000,711917,
-4308,-8824,23076,26672,-15270,9665,-17000,7000,341000,711930,
-4148,-8784,22640,26756,-15257,9547,-17000,7000,341000,711932,
-4036,-8692,22508,26899,-15256,9466,-16000,7000,341000,711934,
-3756,-8224,21424,27323,-15029,9300,-14000,5000,342000,711947,
-3700,-8048,21480,27437,-14940,9328,-13000,5000,343000,711949,
-3636,-8080,21308,27453,-14918,9318,-12000,5000,343000,711952,
-3400,-7440,19980,27464,-14992,9270,-10000,4000,344000,711964,
-3476,-7356,19832,27342,-14979,9178,-9000,4000,344000,711967,
-3420,-7344,19728,27422,-15086,9086,-9000,3000,344000,711969,
-3380,-7144,18752,27279,-15695,8627,-6000,2000,345000,711981,
-3184,-7180,18572,27364,-16063,8589,-6000,2000,346000,711984,
-3072,-6516,17480,27332,-17320,7909,-3000,0,346000,711996,
-2892,-6396,17380,27306,-17636,7777,-3000,0,347000,711999,
-2744,-6108,17008,27329,-17947,7591,-2000,0,347000,712001,
-2152,-5292,16488,27125,-19904,6612,0,-1000,347000,712014,
-2040,-5228,16344,27149,-20292,6480,0,-2000,348000,712016,
-1752,-5000,16184,27001,-20411,6284,0,-2000,348000,712018,
-540,-4324,15660,26649,-21980,5210,3000,-4000,348000,712030,
-320,-4188,15664,26623,-22174,4981,3000,-4000,348000,712033,
128,-4076,15300,26561,-22446,4748,3000,-5000,348000,712035,
1128,-3968,14544,26363,-22860,3056,6000,-7000,348000,712048,
1496,-3868,14296,26192,-22802,2745,6000,-7000,348000,712050,
1668,-3632,13948,26190,-22809,2410,7000,-8000,348000,712052,
2416,-2940,13284,26188,-21962,965,9000,-10000,348000,712065,
2468,-3024,13372,26271,-22039,806,10000,-10000,348000,712067,
2828,-2764,13288,26310,-21707,620,10000,-11000,348000,712069,
3488,-1588,12376,25769,-20334,-396,13000,-13000,348000,712082,
3664,-1420,11860,25692,-20046,-585,13000,-13000,347000,712084,
3820,-1256,11636,25271,-19726,-813,13000,-13000,347000,712086,
3808,-896,10800,24534,-18140,-2073,16000,-15000,347000,712099,
3776,-948,10716,24245,-17741,-2233,16000,-15000,347000,712101,
3980,-332,10056,23652,-16499,-2797,19000,-17000,346000,712114,
4048,-312,9908,23561,-16241,-2812,19000,-17000,346000,712116,
4132,-184,9800,23330,-15974,-2880,19000,-17000,346000,712118,
4728,100,9160,22526,-14594,-3286,22000,-18000,345000,712131,
4828,200,9024,22286,-14234,-3364,22000,-19000,345000,712133,
4972,144,8840,22126,-14144,-3514,23000,-19000,344000,712135,
5468,296,8728,21399,-12795,-4060,25000,-20000,344000,712148,
5744,424,8608,21202,-12483,-4194,25000,-20000,343000,712150,
5892,464,8408,21182,-12372,-4379,26000,-20000,343000,712153,
6484,828,7756,20642,-11329,-5027,28000,-21000,342000,712165,
6644,792,7708,20556,-11212,-5217,28000,-21000,342000,712168,
6836,932,7672,20536,-10986,-5376,29000,-21000,342000,712170,
6968,1708,6164,20019,-10449,-6343,31000,-22000,341000,712182,
6896,1744,5916,19862,-10336,-6266,31000,-22000,341000,712185,
7156,2128,5960,19572,-10063,-6413,32000,-22000,340000,712187,
7520,3132,4640,19031,-9537,-7918,34000,-23000,339000,712200,
7552,3380,4596,18887,-9461,-8070,35000,-23000,339000,712202,
7556,3580,3616,17915,-9640,-8773,37000,-23000,338000,712215,
7612,3552,3536,17751,-9688,-8947,37000,-24000,337000,712217,
7896,3864,3720,17477,-9551,-9157,38000,-24000,337000,712219,
8592,3760,3132,16743,-10424,-10328,40000,-24000,336000,712232,
8572,3572,2752,16672,-10355,-10518,41000,-24000,335000,712234,
8936,3720,2836,16528,-10325,-10775,41000,-24000,335000,712236,
9440,4188,2076,15844,-9586,-11960,43000,-24000,333000,712249,
9324,4372,1748,15742,-9483,-12072,44000,-24000,333000,712251,
9320,4668,1468,15720,-9404,-12185,44000,-24000,333000,712254,
9204,5716,376,14630,-7717,-12864,46000,-24000,331000,712266,
9364,5944,420,14533,-7660,-13022,47000,-24000,331000,712268,
9336,6376,388,14444,-7542,-12990,47000,-24000,331000,712271,
8872,6552,-300,12794,-6834,-13330,49000,-24000,329000,712283,
9536,6416,-152,12817,-6118,-13454,49000,-24000,329000,712286,
9132,6280,-348,12419,-5855,-13497,50000,-24000,328000,712288,
8860,6560,-420,11260,-5094,-13788,52000,-23000,327000,712300,
8740,6712,-620,11071,-4931,-13839,52000,-23000,327000,712303,
8756,7580,-824,10127,-4433,-14632,53000,-22000,325000,712315,
8852,7640,-932,9980,-4401,-14777,54000,-22000,325000,712317,
8908,7872,-1172,9678,-4322,-14891,54000,-22000,325000,712320,
8436,8432,-1684,7895,-3724,-15449,55000,-21000,324000,712332,
8340,8216,-1580,7571,-3539,-15511,56000,-21000,323000,712335,
8388,8568,-1536,7287,-3515,-15596,56000,-21000,323000,712337,
7952,9568,-2052,6018,-2647,-15797,57000,-20000,322000,712350,
7972,9660,-1984,5691,-2367,-15793,57000,-20000,322000,712352,
7900,9788,-2108,5426,-2313,-15878,58000,-19000,322000,712354,
7484,9868,-2056,4086,-1420,-16225,58000,-18000,321000,712367,
7312,9888,-2200,3743,-1378,-16343,59000,-18000,320000,712369,
7176,9908,-2140,3526,-1296,-16426,59000,-18000,320000,712371,
6712,9856,-2276,2184,-541,-16874,60000,-17000,319000,712384,
6660,9880,-2252,1970,-408,-17001,60000,-16000,319000,712386,
5804,9608,-2140,717,433,-17450,60000,-15000,318000,712399,
5568,9604,-1912,486,523,-17610,60000,-15000,318000,712401,
5592,9628,-2156,362,742,-17676,60000,-15000,318000,712403,
4700,9680,-1572,-802,1511,-18016,61000,-13000,317000,712416,
4492,9336,-1440,-1047,1619,-18141,61000,-13000,317000,712418,
4408,9172,-1432,-1198,1816,-18169,61000,-12000,317000,712420,
3700,8216,-1460,-2221,2738,-18619,61000,-11000,316000,712433,
3396,8100,-1288,-2392,2858,-18728,61000,-11000,316000,712435,
3212,8044,-1440,-2584,3088,-18757,61000,-10000,316000,712437,
2420,7296,-1280,-3495,3761,-19133,61000,-9000,315000,712450,
2208,7128,-1736,-3669,4011,-19120,61000,-8000,315000,712452,
2004,6924,-1512,-3950,4077,-19230,61000,-8000,315000,712454,
840,5996,-2104,-4837,5049,-19438,61000,-6000,314000,712467,
828,5980,-2440,-5032,5062,-19533,61000,-6000,314000,712469,
592,6036,-2428,-5146,5359,-19657,61000,-5000,314000,712472,
-356,5208,-2028,-4836,7148,-19531,60000,-3000,314000,712484,
-532,5284,-2540,-5215,7312,-19644,60000,-3000,314000,712487,
-1028,5252,-2648,-5444,7652,-19597,60000,-3000,314000,712489,
-2724,5084,-2384,-6372,8734,-19705,60000,0,314000,712501,
-3000,5064,-2352,-6733,8797,-19648,60000,0,314000,712504,
-3416,5240,-2112,-7013,8842,-19498,60000,0,314000,712506,
-5504,4752,-2284,-8178,8459,-18953,59000,2000,313000,712519,
-5588,4572,-2236,-8355,8383,-18762,59000,2000,313000,712521,
-6128,4884,-1860,-8636,8332,-18635,59000,3000,313000,712523,
-8280,5488,-1692,-10600,7411,-17811,58000,5000,313000,712536,
-8908,5296,-1060,-10699,6958,-17475,58000,5000,313000,712538,
-5688,4656,-1352,-10532,6010,-16888,58000,5000,313000,712540,
-10864,5072,-1940,-10955,3783,-15554,57000,7000,312000,712553,
-11724,5720,-556,-11148,2693,-15547,57000,7000,312000,712555,
-12608,5836,-308,-12075,818,-13169,56000,9000,312000,712568,
-13292,6148,-1904,-12748,-321,-12648,55000,9000,312000,712570,
-11904,6052,-1980,-13356,-678,-11961,55000,9000,311000,712573,
-12448,7040,-880,-14014,-1590,-10440,54000,10000,311000,712585,
-11920,7416,-500,-14404,-1867,-10189,53000,11000,311000,712588,
-12480,7620,-404,-14592,-1993,-9859,53000,11000,310000,712590,
-13092,8276,592,-15902,-2469,-7777,52000,11000,310000,712602,
-13264,8364,628,-16237,-2573,-7383,51000,12000,310000,712605,
-13320,8404,884,-16419,-2620,-6903,51000,12000,310000,712607,
-13780,8432,1832,-17829,-2839,-4548,49000,12000,309000,712619,
-13696,8540,1860,-17915,-2820,-4157,49000,12000,309000,712622,
-13956,8824,3228,-18810,-2920,-2561,47000,12000,309000,712634,
-13940,8728,3452,-18917,-2750,-2240,47000,12000,309000,712637,
-14024,8984,3780,-19135,-2650,-1940,47000,13000,309000,712639,
-13968,9176,5840,-20087,-1844,-348,45000,13000,308000,712652,
-13888,9136,5712,-20295,-1491,-43,44000,13000,308000,712654,
-13944,9012,6240,-20447,-1127,228,44000,13000,308000,712656,
-14212,8960,8156,-20500,1616,1251,42000,13000,309000,712669,
-14872,8852,8312,-20526,2202,1502,42000,13000,309000,712671,
-14344,8908,9376,-20265,2902,1556,41000,13000,309000,712674,
-15332,9684,11040,-19765,5509,2830,39000,13000,309000,712686,
-16188,9896,11304,-19935,5964,3202,39000,14000,309000,712689,
-16448,10100,11372,-20071,6654,3523,39000,14000,309000,712691,
-18628,10136,12780,-20537,7117,5773,37000,14000,310000,712703,
-18768,10088,13068,-20318,7229,6354,37000,14000,311000,712706,
-20212,9740,14580,-20021,7401,8419,35000,14000,312000,712718,
-20376,9568,15172,-19880,6784,8824,35000,14000,312000,712721,
-20308,9432,15580,-19774,6067,9127,34000,14000,312000,712723,
-20016,8132,17776,-18826,3038,12012,33000,14000,313000,712736,
-19568,8032,18092,-18543,2628,12538,33000,14000,313000,712738,
-18980,7756,18340,-18506,2144,12874,32000,14000,314000,712740,
-16764,7348,19312,-17803,556,14502,31000,14000,315000,712753,
-16528,7156,19296,-17572,372,14706,31000,13000,315000,712755,
-16312,7312,19432,-17152,449,14766,30000,13000,315000,712757,
-15532,8096,20012,-15092,990,15872,29000,13000,317000,712770,
-15448,8344,19872,-14751,1121,16112,29000,13000,317000,712772,
-14800,8936,19212,-14386,857,17375,28000,12000,319000,712785,
-14664,8872,19256,-14375,520,17735,28000,12000,319000,712787,
-14336,8696,19600,-14238,43,18038,28000,12000,319000,712790,
-11736,6996,21912,-12834,-2017,20242,27000,11000,321000,712802,
-11180,6804,22344,-12598,-2257,20660,26000,11000,321000,712805,
-10660,6524,22644,-12461,-2555,21124,26000,11000,321000,712807,
-6668,6720,23836,-10861,-4040,22270,25000,9000,323000,712819,
-5936,6760,23940,-10334,-4115,22315,25000,9000,323000,712822,
-5296,6664,24300,-9851,-4161,22521,25000,9000,324000,712824,
-1964,7696,23764,-7503,-3206,22103,25000,8000,326000,712837,
-1436,7692,23504,-7161,-2955,21940,25000,7000,326000,712839,
-1140,7912,23396,-6718,-2574,21646,24000,7000,326000,712841,
488,8480,22128,-5327,-1252,20284,24000,6000,328000,712854,
740,8408,22096,-5066,-1111,20006,24000,6000,328000,712856,
824,8532,21956,-4985,-983,19834,24000,6000,329000,712858,
2348,8464,21592,-3929,-1159,18749,24000,5000,330000,712871,
2524,8244,21412,-3762,-1291,18488,24000,5000,331000,712873,
3004,7760,21240,-3688,-1602,18242,24000,5000,331000,712876,
3812,7160,20200,-2830,-2901,16231,24000,4000,332000,712888,
4012,7052,20228,-2824,-3274,16044,24000,3000,332000,712891,
4136,6876,20088,-2627,-3327,15841,23000,3000,333000,712893,
5268,6176,19804,-1474,-4192,15021,23000,2000,334000,712905,
5472,6096,19636,-1262,-4285,14786,23000,2000,334000,712908,
5544,5980,19408,-1127,-4396,14569,23000,2000,334000,712910,
6752,5740,18880,-389,-5084,13017,23000,1000,335000,712923,
6864,5644,18796,-219,-5111,12876,23000,0,335000,712925,
7052,5696,18952,-75,-5395,12426,23000,0,335000,712927,
7964,5672,18272,757,-5857,11269,23000,0,336000,712940,
8104,5740,17892,808,-5895,11043,23000,0,336000,712942,
8136,5556,17684,953,-5821,10785,23000,0,336000,712944,
8960,5652,16296,1304,-5520,9434,23000,-1000,337000,712957,
9184,5820,16048,1314,-5095,9172,23000,-1000,337000,712959,
9152,5596,15892,1281,-4927,8892,23000,-2000,337000,712961,
9660,5996,15392,1396,-3752,7631,24000,-2000,338000,712974,
9492,6088,15036,1485,-3429,7365,24000,-3000,338000,712976,
9672,6244,14832,1429,-3158,7127,24000,-3000,338000,712978,
9612,6704,14752,1131,-1161,5816,24000,-3000,338000,712991,
9356,6648,14528,1370,-1472,5558,24000,-3000,339000,712993,
9484,7020,14252,1256,-1336,5262,24000,-3000,339000,712995,
8868,7528,14224,768,1,4402,24000,-4000,339000,713008,
8732,7456,14352,611,39,4258,24000,-4000,339000,713010,
8652,7600,14252,577,174,4080,24000,-4000,339000,713012,
8052,7732,13808,346,562,3194,24000,-4000,339000,713025,
8012,7884,13776,246,547,3056,24000,-4000,339000,713027,
7932,7788,13672,234,647,2900,24000,-4000,340000,713029,
7520,8040,13204,-102,683,1978,24000,-4000,340000,713042,
7436,8060,13268,-116,671,1803,24000,-4000,340000,713044,
7268,8044,12980,-192,717,1565,24000,-4000,340000,713046,
6532,8284,12716,-735,820,485,24000,-4000,340000,713059,
6372,8272,12716,-793,894,303,24000,-4000,340000,713061,
6284,8256,12852,-899,869,138,24000,-4000,340000,713063,
5200,8232,13104,-1255,950,-547,24000,-4000,340000,713076,
5168,8100,13180,-1310,1004,-649,24000,-4000,340000,713078,
4896,8064,13320,-1340,983,-728,24000,-4000,340000,713080,
4056,8116,13500,-1452,885,-1036,24000,-4000,340000,713093,
3840,8088,13516,-1492,778,-1057,24000,-4000,340000,713095,
3756,8116,13616,-1454,767,-1102,24000,-4000,340000,713097,
3212,8028,13908,-1537,272,-1206,23000,-4000,340000,713110,
3076,7980,13764,-1567,269,-1182,23000,-4000,340000,713112,
2920,7848,13980,-1591,232,-1182,23000,-4000,340000,713114,
2492,7496,14292,-1621,-75,-1193,23000,-4000,340000,713127,
2460,7452,14364,-1524,-8,-1178,23000,-4000,339000,713129,
2348,7368,14324,-1525,-40,-1190,23000,-4000,339000,713131,
2048,7016,14344,-1198,48,-1183,23000,-4000,339000,713144,
1948,6912,14200,-1103,112,-1188,23000,-4000,339000,713146,
1744,6924,14424,-1059,31,-1195,23000,-4000,339000,713148,
1352,7112,14196,-630,-45,-1209,23000,-4000,339000,713161,
1396,7248,14008,-665,-112,-1226,23000,-4000,339000,713163,
1372,7256,13976,-559,-105,-1204,23000,-4000,339000,713165,
1160,7424,14056,-388,-350,-1018,23000,-4000,339000,713178,
1072,7456,13964,-409,-430,-988,23000,-4000,339000,713180,
1148,7440,14116,-310,-412,-927,23000,-4000,339000,713182,
1176,7416,13848,-207,-324,-719,23000,-4000,339000,713195,
1192,7332,13692,-148,-353,-728,23000,-4000,339000,713197,
1184,7372,13820,-65,-291,-683,23000,-4000,339000,713199,
1400,7368,13648,167,-68,-671,23000,-4000,339000,713212,
1412,7424,13596,242,49,-678,23000,-4000,339000,713214,
1344,7444,13488,245,70,-703,23000,-4000,339000,713216,
1252,7940,13320,412,297,-780,23000,-4000,339000,713229,
1312,7908,13228,398,341,-788,23000,-4000,339000,713231,
1280,8028,13196,336,295,-741,23000,-4000,339000,713233,
1268,8256,12928,221,395,-718,23000,-4000,339000,713246,
1072,8252,13124,143,351,-701,23000,-4000,339000,713248,
1160,8280,13104,207,393,-691,23000,-4000,339000,713250,
1176,8152,13108,77,382,-748,23000,-4000,339000,713263,
1212,8264,13176,136,422,-722,23000,-4000,339000,713265,
1168,8248,13200,93,444,-730,23000,-4000,339000,713267,
1116,8280,12972,64,530,-700,24000,-4000,339000,713279,
1128,8296,13004,64,590,-693,24000,-4000,339000,713282,
1148,8264,13092,5,535,-670,24000,-4000,339000,713284,
1148,8400,13008,-60,752,-669,24000,-4000,339000,713296,
1268,8328,12900,-85,863,-687,24000,-4000,339000,713299,
1120,8392,12924,-111,806,-674,24000,-4000,339000,713301,
1076,8516,13108,-81,1032,-692,24000,-3000,338000,713313,
1024,8492,13060,-119,1067,-693,24000,-3000,338000,713316,
976,8400,13156,-140,1045,-679,24000,-3000,338000,713318,
912,8708,13304,-134,962,-577,24000,-3000,338000,713330,
724,8716,13016,-223,935,-576,24000,-3000,338000,713333,
824,8736,13172,-226,867,-541,24000,-3000,338000,713335,
768,8656,13404,-333,711,-451,24000,-3000,338000,713347,
696,8712,13316,-395,569,-420,24000,-3000,338000,713350,
848,8708,13468,-351,620,-369,24000,-3000,338000,713352,
1064,8456,13532,-383,394,-332,24000,-3000,338000,713364,
1052,8360,13556,-351,394,-311,24000,-3000,338000,713366,
1104,8360,13572,-379,407,-343,24000,-3000,338000,713369,
1072,8436,13652,-246,497,-332,24000,-3000,338000,713381,
1132,8468,13464,-249,616,-355,24000,-3000,338000,713383,
996,8464,13500,-248,575,-356,24000,-3000,338000,713386,
940,8668,13436,-295,771,-252,24000,-3000,338000,713398,
980,8592,13552,-379,750,-192,24000,-3000,338000,713400,
888,8536,13636,-402,682,-166,24000,-3000,338000,713403,
796,8332,13864,-438,640,25,24000,-3000,338000,713415,
832,8332,13776,-467,573,56,24000,-3000,338000,713417,
948,8308,13744,-442,500,106,24000,-3000,338000,713420,
816,8184,13992,-424,532,115,24000,-3000,338000,713422,
1148,8080,14108,-243,178,136,24000,-3000,338000,713434,
1164,8116,14148,-126,234,141,24000,-3000,338000,713437,
