Ax,Ay,Az,Gx,Gy,Gz,Roll,Pitch,Yaw,Timestamp,Target
1768,-3728,14344,-6725,1985,-1233,-20000,7000,124000,109847,
916,-4008,14488,-6859,2757,-1819,-21000,7000,123000,109868,
352,-4264,14828,-6990,2313,-1995,-21000,7000,123000,109881,
336,-4392,14828,-6991,2165,-2060,-22000,7000,123000,109883,
292,-4488,14800,-7005,2095,-2098,-22000,7000,123000,109886,
888,-5008,14912,-7153,1773,-2281,-22000,7000,123000,109898,
1172,-5052,14972,-7199,1753,-2353,-23000,7000,123000,109901,
0,0,0,0,0,0,-23000,7000,123000,109901,
1648,-4924,14960,-7371,2056,-2874,-23000,7000,122000,109916,
1540,-4760,14844,-7380,2047,-2981,-24000,7000,122000,109918,
1304,-4680,15128,-7412,2036,-3098,-24000,7000,122000,109920,
432,-4696,15528,-7294,1181,-3463,-24000,7000,122000,109933,
200,-4792,15576,-7329,929,-3524,-24000,7000,122000,109935,
752,-5328,16020,-7240,-1143,-3887,-26000,6000,121000,109955,
1648,-5576,16376,-7068,-1500,-4288,-26000,6000,121000,1099,
-352,-1312,1560712,-805,860,-540,-12000,3000,105000,117461,
-400,-1264,15360,-563,412,-444,-12000,3000,106000,117373,
1520,-6272,18228,-6784,-544,-5542,-28000,5000,1200005860,-788,
1284,-6376,18448,-6707,-535,-5656,-28000,5000,120000,110006,
560,-6864,18868,-6180,-775,-5800,-29000,4000,119000,110019,
316,-6928,18936,-6071,-913,-5799,-29000,4000,119000,11089,
1304,-7448,19400,-4276,-931,-5680,-30000,3000,118000,110053,
1640,-7544,19220,-4027,-535,-5737,-30000,3000,118000,110058,
2112,-7528,18976,-3581,956,-6037,-31000,3000,117000,110071,
1940,-7380,19060,-3490,1231,-6071,-31000,3000,117000,110073,
1860,-7408,19096,-3480,1407,-6192,-31000,3000,117000,110075,
1020,-7400,19016,-3070,2256,-6415,-31000,3000,117000,110088,
900,-7464,18788,-2980,2194,-6455,-31000,3000,116000,110090,
212,-7560,18308,-2551,1888,-6419,-31000,2000,116000,110103,
348,-7508,18284,-2429,1859,-6371,-31000,2000,116000,110105,
368,-7484,18240,-2426,1706,-6345,-31000,2000,116000,110107,
944,-7160,18128,-1983,1459,-6324,-31000,2000,115000,110120,
868,-7092,18352,-1951,1421,-6369,-31000,2000,115000,110122,
992,-7060,18188,-1831,1451,-6402,-31000,2000,115000,110124,
1256,-6924,17992,-1491,1319,-6712,-32000,2000,114000,110137,
1188,-7012,17924,-1430,1186,-6760,-32000,2000,114000,110139,
1060,-6960,17884,-1318,1147,-6838,-32000,2000,114000,110141,
560,-7556,17888,-1001,687,-7216,-32000,1000,113000,110154,
684,-7696,17884,-952,615,-7273,-32000,1000,113000,110156,
712,-7864,17688,-933,450,-7371,-32000,1000,113000,110158,
708,-8256,17772,-629,357,-7717,-32000,1000,112000,110176,
372,-8084,17716,-317,748,-7789,-32000,0,112000,110188,
132,-8160,17644,-167,974,-7752,-32000,0,111000,110193,
-420,-8168,17688,311,1210,-7501,-32000,0,111000,110205,
-564,-8152,17764,341,11212,-364,670,-54,-12000,3000,
-1020,-8340,17704,753,1080,-7338,-31000,0,110000,4000,
-1132,-8320,17352,1261,668,-7276,-31000,0,109000,110242,
-1104,-8144,17472,1636,687,-7060,-31000,0,108000,110257,
0,0,0,0,0,0,-31000,0,108000,110257,
-1100,-8160,17444,1838,1320,-7029,-31000,-1000,107000,110274,
-2100,-8060,17268,2157,1606,-6774,-30000,-1000,106000,110294,
-2164,-8008,17296,2209,1589,-6676,-30000,-1000,106000,110296,
-2588,-7968,17732,2481,1153,-6314,-30000,-1000,105000,110309,
-2496,-8036,17660,2501,1026,-6244,-30000,-1000,105000,11017785,
-4772,-2732,19856,1367,-1805,1770,-12000,4000,105000,117788,
-2104,-7804,17988,3928,2163,-5132,-28000,-2000,103000,110360,
-2300,-7708,18016,4054,2329,-5094,-28000,-2000,103000,110363,
-2752,-7480,18100,4337,2723,-4716,-28000,-1000,103000,110375,
-3092,-7436,17988,4474,2765,-4622,-28000,-1000,103000,110378,
-3020,-7404,18124,4528,2681,-4526,-28000,-1000,102000,110380,
-3380,-7448,17680,5043,2401,-4023,-27000,-1000,102000,110393,
-3332,-7376,17968,5067,2237,-3932,-27000,-1000,102000,110395,
-3396,-7432,18004,5186,2220,-3823,-27000,-1000,102000,110397,
-2980,-7180,17548,5477,1974,-3375,-26000,-1000,101000,110410,
-2904,-7192,17652,5600,2050,-3310,-26000,-1000,101000,110412,
-2640,-7132,17388,5595,2040,-3243,-26000,-1000,101000,110415,
-2344,-7004,17208,5934,2536,-3051,-26000,-1000,101000,110427,
-2308,-6936,17112,5921,2588,-3030,-25000,-1000,101000,110430,
-2416,-6808,16920,6012,2754,-2993,-25000,-1000,101000,110432,
-3040,-6764,16748,6194,2915,-2679,-25000,-1000,100000,110444,
-3196,-6608,16888,6249,2910,-2586,-25000,-1000,100000,110447,
-3684,-6640,16524,6446,2399,-2077,-24000,0,100000,110459,
-3076,-6444,16132,6780,1966,-1376,-23000,0,100000,110477,
-3012,-6416,16204,6787,1930,-1294,-23000,0,100000,110479,
-2900,-6308,16032,6844,2061,-1195,-23000,0,100000,110481,
-2716,-5872,15872,6798,2444,-876,-22000,0,100000,110494,
-2624,-5688,15936,6801,2542,-857,-22000,0,100000,110496,
-2708,-5712,15968,6765,2543,-800,-22000,0,99000,110499,
-3180,-5468,15744,6760,2470,-536,-21000,0,99000,110511,
-3372,-5464,15676,6734,2309,-459,-21000,0,99000,110513,
-3476,-5368,15612,6802,2240,-400,-21000,0,99000,110516,
-3588,-5136,15936,7000,1182,291,-20000,0,99000,110535,
-2740,-5168,15920,7145,1269,732,-19000,0,99000,110548,
-2364,-4656,15696,7326,2477,1041,-18000,0,99000,110565,
-2420,-4576,15760,7264,2543,1029,-18000,0,99000,19,
-3204,-4592,14956,7378,2754,1683,-17000,1000,99000,110587,
-3008,-4648,14428,7483,2375,2036,-16000,1000,100000,110599,
-2968,-3952,13840,7342,1793,2432,-15000,2000,100000,110616,
-3108,-3812,13940,7329,1770,2497,-15000,2000,100000,110619,
-2696,-3436,13616,6954,1433,2748,-14000,2000,100000,11063000,
-2044,-3220,13324,6372,1644,2944,-13000,3000,100000,110651,
-2024,-2564,13336,5478,2623,3269,-13000,3000,101000,110671,
-1944,-2504,13324,5409,2813,3308,-12000,3000,101000,110673,
-2136,-2096,13376,4812,3620,3676,-12000,4000,101000,110690,
-2320,-2296,13228,4643,3697,3667,-11000,4000,101000,110703,
-2392,-2336,13364,4663,3639,3681,-11000,4000,101000,110705,
-2592,-2308,13220,4579,3674,3666,-11000,4000,102000,110708,
-2976,-2036,13472,4408,3193,3745,-11000,5000,102000,110720,
-2980,-1932,13588,4333,3089,3745,-10000,5000,102000,110723,
-3024,-1936,13476,4315,2920,3791,-10000,5000,102000,110725,
-3308,-1732,13728,4051,2367,3884,-10000,5000,102000,110738,
-3396,-1676,13704,4091,2248,3927,-10000,5000,102000,110740,
-3368,-1772,13532,4053,2131,3995,-10000,5000,102000,110742,
-3364,-1876,13232,3966,1600,4399,-9000,6000,103000,110755,
-3372,-1868,13160,3932,1507,4444,-9000,6000,103000,110757,
-3328,-1672,13268,3935,1368,4570,-9000,6000,103000,110759,
-2996,-1404,13016,3762,1081,4911,-9000,6000,103000,110772,
-2732,-1328,13104,3721,1079,4985,-9000,6000,104000,110776,
-2140,-1108,13208,3421,1201,5035,-8000,6000,104000,110789,
-2008,-1012,12876,3275,1405,4967,-8000,6000,104000,110794,
-1852,-984,12808,3079,1841,4896,-8000,7000,105000,110806,
-1912,-1032,12644,2974,1855,4929,-8000,7000,105000,110809,
-1908,-864,12680,3012,1965,4886,-8000,7000,105000,110811,
-2200,-736,12380,2655,2089,5098,-7000,7000,105000,110824,
-2128,-636,12360,2661,2145,5105,-7000,7000,105000,110826,
-2612,-104,12604,2012,1510,5332,-7000,7000,106000,110843,
-2452,-100,12476,1996,1417,5375,0,14844,-6488,-209,
-828,64,12672,1045,857,5077,-6000,8000,108000,110880,
-1116,432,13296,677,899,4980,-6000,8000,108000,110892,
-1096,364,13408,624,900,4936,-6000,8000,108000,110894,
-1236,-204,13468,528,715,4856,-6000,8000,109000,110909,
-1268,-192,13452,566,692,4841,-6000,8000,109000,110911,
-1192952,-6317,-2806,-221,-17000,7000,0,0,0,110911,
-1092,504,13792,325,268,4901,-5000,8000,109000,110929,
-1052,716,1,15572,-5791,-3819,-427,-18000,6000,117000,
-924,1056,14448,-192,-84,4666,-5000,8000,110000,110950,
-1104,452,14732,-339,-717,4389,-5000,8000,111000,110963,
-1132,368,14984,-333,-794,4349,-5000,8000,111000,110965,
-996,256,14924,-333,-978,4312,-5000,8000,111000,110968,
-716,108,14808,-218,-1309,4230,-5000,8000,111000,110980,
-528,192,14816,-227,-1394,4244,-5000,8000,111000,110982,
-468,144,14820,-146,-1263,4239,-5000,8000,111000,110985,
60,380,14468,24,-618,4236,-5000,8000,112000,111000,
212,516,14392,-11,-551,4266,-5000,8000,112000,111002,
228,644,14368,-17,-339,4248,-5000,8000,112000,111004,
216,1368,14724,-524,537,4098,-5000,8000,112000,111017,
60,4492,15304,-5488,-360,-2091,-22000,5000,116000,118456,
-776,1308,14968,-913,-75,3675,-5000,8000,113000,111034,
-1052,1192,15080,-936,-408,3647,-5000,8000,113000,111036,
-1172,1100,14932,-863,-817,3613,-5000,8000,113000,111039,
-1380,336,14556,-527,-3082,3476,-5000,7000,113000,111051,
920,604,14324,-59,-4629,3218,-4000,7000,115540,268,
2560,1076,13928,-304,-2226,2818,-4000,6000,114000,111088,
2692,1144,13964,-434,-1758,2737,-4000,6000,114000,111090,
2148,1220,14072,-862,641,2381,-4000,6000,115000,111102,
1952,1244,14188,-996,811,2324,-4000,6000,115000,111105,
1792,1220,14184,-1017,1034,2302,-4000,6000,115000,111107,
564,912,14056,-1398,1223,2163,-4000,6000,115000,111119,
468,960,14116,-1414,1244,2116,-4000,6000,115000,111122,
556,320,131668,-4936,-26000,3000,0,0,0,111122,
736,76,13632,-1630,735,1608,-5000,6000,115000,111139,
924,112,13472,-158,-4642,2249,-5291,-27000,3000,112000,
1808,896,12916,-2114,2516,1156,-41,2276,-5801,-27000,
-184,2376,14700,-3386,3206,898,-5000,7000,116000,111178,
-2080,316,15604,-3881,413,201,-5000,7000,116000,111195,
-2424,-456,16260,-3498,-2340,15,-6000,7000,116000,111208,
-2392,-444,16384,-3417,-2878,61,-6000,7000,116000,111210,
-2248,-600,16380,-3222,-3161,136,-6000,7000,116000,111213,
-1092,76,16852,-2545,-4198,675,-6000,6000,116000,111225,
-900,300,16832,-2356,-4096,745,-6000,6000,116000,111227,
-616,452,16916,-2328,-4065,812,-6000,6000,116000,111230,
84,884,17460,-1809,-2950,858,-6000,6000,116000,111242,
652,548,17540,-1385,-1164,764,-6000,6000,116000,111259,
888,408,17804,-1309,-858,742,-6000,6000,116000,111262,
720,412,17576,-1285,-732,718,-6000,6000,116000,111264,
1000,384,17268,-1049,260,516,-6000,6000,116000,111277,
1020,412,17172,-1000,486,464,-6000,6000,116000,111279,
944,424,17128,-1016,595,407,-6000,6000,116000,111281,
560,804,17068,-1174,1169,122,-6000,6000,116000,111294,
516,844,17324,-1172,1327,68,-64,17232,-2381,4052,
-556,800,16976,-1215,561,-103,-7000,6000,116000,11131892,
-484,72,17064,-901,-638,-209,-7000,6000,116000,111330,
-464,8,17048,-902,-827,-235,-7000,6000,116000,111333,
-368,-144,17160,-781,-913,-283,-7000,6000,116000,111335,
-60,-76,17412,-606,-1241,-514,-7000,5000,116000,111347,
76,-84,17248,-539,-1245,-547,-7000,5000,116000,111350,
120,8,17268,-510,-1181,-597,0,0,0,111350,
176,32,17000,-276,-862,-677,-7000,5000,116000,111364,
72,-96,16684,-204,-662,-671,-7000,5000,116000,111367,
156,12,16584,-130,-498,-704,-7000,5000,116000,111371,
-84,-124,16456,-48,8,-756,-7000,5000,116000,111384,
-52,-56,16576,-58,184,-751,-7000,5000,116000,111386,
-136,-112,16476,-103,263,-771,-7000,5000,116000,111389,
-492,-176,16380,-199,766,-813,-7000,5000,116000,111401,
-548,-188,16328,-274,727,-805,-7000,5000,116000,111403,
-560,-28,16292,-231,806,-778,-7000,5000,116000,111406,
0,0,0,0,0,0,-7000,5000,116000,111406,
-1156,148,15720,-479,485,-811,-7000,5000,116000,111452,
-1256,76,15744,-455,492,-794,-7000,5000,116000,111455,
-1300,124,15836,-501,435,-821,-7000,5000,115000,111457,
-1540,144,15752,-402,78,-698,-7000,5000,115000,111469,
-1548,32,15760,-400,19,-661,-7000,5000,115000,111472,
-1480,36,15800,-320,-83,-613,-7000,5000,11500907,1785,
-1224,192,15496,12,-630,-527,-7000,5000,115000,111489,
-1052,164,15540,120,-877,-704,-6000,5000,115000,111506,
-1004,28,15516,90,-993,-647,-6000,5000,115000,111508,
-712,152,15208,-199,-735,-713,-6000,5000,115000,111530,
-516,464,14960,-306,-136,-604,-6000,5000,115000,111543,
-492,564,15008,-420,-105,-596,-6000,5000,115000,111545,
-628,608,15124,-420,40,-608,-6000,5000,115000,111547,
-808,696,15372,-707,229,-684,-6000,5000,115000,111560,
-836,548,15480,-668,309,-697,-6000,5000,115000,111562,
-1032,164,15624,-788,221,-837,-6000,5000,115000,111577,
-1136,28,61,-2478,-25000,0,0,0,0,111577,
-1144,132,15720,-744,149,-816,-6000,5000,115000,111582,
-1280,140,15792,-605,-89,-736,-6000,5000,115000,111594,
-1244,224,15808,-488,-107,-689,-6000,5000,115000,111596,
-1220,296,15728,-524,-106,-671,-6000,5000,115000,111599,
-892,232,15804,-233,-56,-601,-6000,5000,115000,111611,
-804,228,15760,-228,7,-603,-6000,5000,115000,111613,
-812,180,15536,-195,68,-615,-6000,5000,115000,111616,
-848,116,15748,-200,135,-614,-6000,5000,115000,111618,
-1104,360,0,-5704,15840,5589,2012,-741,-23000,1000,
-1384,140,15208,-713,19,-617,-6000,5000,114000,111669,
-968,104,15136,-656,-224,-648,-6000,5000,114000,111682,
-716,-256,15128,-668,-151,-674,-6000,5000,114000,111686,
-280,-212,14896,-816,686,-797,-6000,5000,114000,111699,
-128,-152,14860,-772,938,-766,-7000,5000,114000,111701,
0,-224,14900,-877,1166,-775,-7000,5000,114000,111703,
-12,80,15012,-1149,2666,-795,-7000,5000,114000,111716,
-100,104,14976,-1273,2983,-800,-7000,5000,114000,111718,
-316,100,15092,-1310,3244,-788,-7000,5000,114000,111721,
-1644,-196,15244,-1751,4091,-763,-7000,6000,114000,111738,
-2332,-300,15396,-1820,3540,-650,-7000,6000,114000,111750,
-2416,-192,15708,-1845,3218,-590,-7000,6000,114000,111755,
0,0,0,0,0,0,-7000,6000,114000,111755,
-2684,-4196,14776,5928,757,1187,-19000,2000,92000,119177,
-2500,112,16116,-1687,2137,-393,-7000,6000,114000,111772,
-3032,16,16332,-1358,874,-352,-7000,7000,114000,111785,
-3108,-40,16268,-1270,678,-333,-7000,7000,114000,111787,
-3176,-68,16344,-1211,295,-306,-7000,7000,114000,111789,
-3060,-176,16392,-715,-1213,-228,-7000,7000,114000,111802,
-2860,-332,16424,-696,-1539,-218,-7000,6000,114000,111804,
-2736,-372,16300,-522,-1732,-230,-7000,6000,114000,111806,
-1300,-12,16172,-250,-2077,-202,-7000,6000,114000,111823,
-672,164,15728,-301,-1236,-275,-7000,6000,114000,111836,
-572,176,15840,-291,-997,-269,-7000,6000,114000,111838,
-552,196,15676,-393,-785,-277,-7000,6000,114000,111841,
-816,276,15664,-702,250,-311,-7000,6000,114000,111853,
-800,260,15640,-832,368,-340,-7000,6000,114000,111856,
-1252,-2068,13568,3881,-737,3163,-13000,3000,95000,119317,
-1308,132,15756,-1067,632,-299,-7000,6000,114000,111873,
-164,-1480,15816,-813,18,-542,-12000,3000,105000,117442,
-180,-1444,15768,-742,143,-546,-12000,3000,105000,117444,
-616,-1436,15800,-794,873,-525,-12000,3000,105000,117463,
-984,-1332,15720,-833,891,-419,-12000,3000,105000,117476,
-1040,-1420,15864,-817,886,-415,-12000,3000,105000,1174713368,
-1264,-1456,15796,-751,298,-327,-12000,3000,105000,117496,
-1056,-1572,15888,-765,273,-331,-12000,3000,105000,117498,
-1008,-1556,16020,-680,-126,-340,-12000,3000,105000,117510,
-1076,-1600,15984,-761,-223,-353,-12000,3000,105000,117513,
-972,-1460,15712,-689,-418,-394,-12000,3000,105000,117530,
-984,-1448,15760,-638,-492,-353,-12000,3000,105000,117532,
-1016,-1400,16056,-680,-466,-284,-12000,3000,105000,117545,
-912,-1416,16000,-668,-496,-301,-12000,3000,105000,117547,
-836,-1596,15956,-668,-405,-265,-12000,3000,105000,117550,
-636,-1484,16040,-631,-157,-227,-12000,3000,105000,117562,
-632,-1436,16152,-625,-41,-235,-12000,3000,105000,117564,
-708,-1520,16084,-618,-10,-217,-12000,3000,105000,117567,
-596,-1560,16036,-540,505,-175,-12000,3000,105000,117579,
-556,-1488,16048,-520,573,-210,-12000,3000,105000,117582,
-556,-1548,16052,-556,591,-215,-12000,3000,105000,117584,
-756,-1292,16048,-558,801,-241,-12000,3000,105000,117597,
-972,-1348,16140,-578,701,-263,-12000,3000,105000,117599,
-1052,-1392,16144,-580,720,-252,-12000,3476,14684,254,
76,-412,14888,322,979,3338,-9000,4000,101000,119524,
-1288,-1384,16008,-574,85,-172,-12000,3000,105000,117618,
-1160,-1608,16120,-467,-374,-134,-12000,3000,105000,117631,
-1040,-1464,15936,-423,-351,-148,-12000,3000,105000,117633,
-984,-1556,16024,-431,-434,-142,-12000,3000,105000,117636,
-736,-1332,15956,-409,-184,-99,-12000,3000,105000,117648,
-660,-1252,16192,-413,-138,-99,-12000,3000,1050,0,
-656,-1268,16040,-413,-44,-107,-12000,3000,105000,117653,
-696,-1360,16400,-432,417,-112,-12000,3000,105000,117665,
-736,-1580,16264,-454,493,-130,-12000,3000,105000,117667,
-1136,-1604,16220,-343,670,-46,-12000,3000,105000,117687,
-1360,-1444,16264,-367,644,42,-12000,3000,105000,117699,
-1292,-1396,16424,-405,657,35,-12000,4000,105000,117704,
-1540,-1440,16872,-512,807,42,-12000,4000,105000,117717,
-1600,-1572,16840,-566,836,39,-12000,4000,105000,117721,
-2044,-1688,17324,-604,767,168,-12000,4000,105000,117734,
-2492,-1788,17464,-561,662,230,-12000,4000,105000,117738,
-2812,-1604,183,477,549,-12000,4000,105000,117751,0,
-2908,-1796,18488,-339,361,614,-12000,4000,105000,117753,
-2960,-1796,18604,-234,357,653,-12000,4000,105000,117756,
-3868,-1856,19668,-33,-9,849,-12000,4000,105000,117768,
-4036,-1964,19756,55,-163,897,-1748,-1322,111,2581,
-3632,-2784,19072,2830,-2903,2424,-11000,4000,106000,117803,
-3268,-2804,18676,3277,-2903,2580,-11000,4000,106000,117807,
-1824,-2584,17440,4076,-2229,2766,-11000,3000,106000,117820,
-1584,-2564,17116,4185,-1920,2806,-11000,3000,106000,117822,
-1544,-2472,16696,4187,-1705,2809,-11000,3000,106000,117825,
-1072,-1764,15120,4012,111,2929,-10000,3000,106000,117837,
-1028,-1404,14768,3860,382,297,184,15244,-1533,759,
-516,-132,15436,-1529,-162,1999,-8000,5000,106000,119771,
-364,-240,15260,-1514,-312,1969,-8000,5000,106000,119773,
-1132,-336,14140,2439,2613,3363,-10000,4000,107000,117859,
-1492,-808,13560,1593,2788,3336,-9000,4000,107000,117872,
-1544,-816,13384,1502,2773,3280,-148,15908,-1809,-130,
-2096,-1044,13608,1032,1762,3132,-9000,501608,-692,980,
-2124,-988,13560,958,1379,3089,-9000,5000,108000,117893,
-1868,-800,13748,838,675,2975,-9000,5000,108000,117906,
-1880,-780,14016,765,578,2959,-9000,5000,108000,117908,
-1972,-704,14020,779,508,2970,-9000,5000,108000,117911,
-2240,-828,14260,662,332,3071,-9000,5000,108000,117923,
-2220,-864,14156,700,280,3114,-9000,5000,108000,117925,
-2300,-912,14176,678,250,3162,-9000,5000,108000,117928,
-2276,-1064,14,-20,16404,-1617,296,272,-9000,4000,
-2156,-928,13868,814,516548,-1163,-1426,-217,-9000,4000,
-1836,-684,13788,720,1041,3882,-8000,5000,109000,117960,
-1672,-632,13700,660,1040,3927,-8000,5000,109000,117962,
-1588,-268,13436,504,1535,4069,-8000,6000,110000,117974,
-1604,-452,1,-476,13008,79,1561,4183,-8000,6000,
-1492,-464,12476,-211,1385,4302,-8000,6000,111000,118008,
-1324,-572,12396,-345,1357,4291,-8000,6000,111000,118013,
-988,-368,12388,-768,1632,4304,-8000,6000,111000,118026,
-1084,-712,16704,-1082,-521,-704,-10000,4000,107000,119984,
-384,-236,12248,-1659,2434,4171,-8000,7000,112000,118048,
-760,-364,12620,-2120,2509,3989,-8000,7000,112000,118060,
-900,-316,12412,-2221,2396,3966,-8000,7000,112000,118062,
-996,-364,12456,-2302,2410,3934,-8000,7000,112000,118065,
-700,-680,12932,-2877,485,3742,-9000,8000,113000,118097,
-512,-820,12808,-2829,519,3688,-9000,8000,113000,118099,
4,-700,12540,-3013,799,3581,-9000,8000,114000,118112,
156,-596,12772,-2985,977,3559,-9000,8000,114000,118114,
216,-620,12784,-3091,1069,3556,-9000,8000,1140000,120052,
132,-160,12872,-3319,1599,3447,-9000,8000,114000,118129,
0,-216,12904,-3447,1631,3451,-9000,8000,114000,118131,
-176,-552,13120,-3892,1461,3161,-10000,8000,115000,118146,
-320,-616,13364,-3948,1349,3090,-10000,8000,115000,118148,
-368,-700,13532,-4015,1215,3003,-10000,8000,115000,118150,
-368,-980,13592,-4236,388,2787,-10000,8000,115000,118163,
-444,-1024,13600,-4250,280,2769,-10000,8000,115000,118165,
-220,-1100,13356,-4280,114,2727,-10000,8000,115000,118167,
160,-1516,12940,-4226,-37,2566,-10000,8000,115000,118180,
380,-1572,12976,-4286,-102,2585,-11000,8000,115000,118182,
424,-1428,12968,-4262,34,2578,-11000,8000,115000,118184,
640,-676,133142,-1016,-10000,3000,0,0,0,118184,
692,-580,13568,-4530,542,2427,-11000,8000,116000,118199,
624,-724,13560,2275,-1098,-10000,4000,106000,120189,0,
444,-1284,13868,-4894,761,2019,-12000,8000,116000,118214,
336,-1416,13792,-5010,612,1926,-12000,8000,116000,118216,
336,-1380,13908,-4966,564,1825,-12000,8000,116000,118219,
116,-1860,13704,-5178,-80,1625,-12000,8000,116000,118231,
156,-1780,13672,-5122,-84,1598,-12000,8000,116000,118233,
