Ax,Ay,Az,Gx,Gy,Gz,Roll,Pitch,Yaw,Timestamp,Target
-1956,-3900,15832,-519,35,-171,-21000,9000,259000,923491,
-2060,-4024,15960,-623,-48,-168,-21000,9000,259000,923504,
-2064,-3912,15788,-516,7,-179,-21000,9000,259000,923506,
-2052,-3936,15732,-666,-36,-188,-21000,9000,259000,923508,
-2032,-3964,15904,-534,11,-168,-21000,9000,259000,923521,
-2160,-3876,16052,-620,-27,-157,-21000,9000,259000,923523,
-2224,-3892,15816,-516,43,-172,-21000,9000,259000,923525,
-2080,-3860,16024,-585,-37,-152,-21000,9000,259000,923538,
-1896,-3876,15920,-577,0,-204,-21000,9000,259000,923540,
-1968,-3756,16012,-560,-8,-166,-21000,9000,259000,923542,
-2164,-3800,15904,-609,8,-176,-21000,9000,259000,923555,
-2320,-3888,16032,-474,16,-126,-21000,9000,259000,923557,
-2160,-3856,15904,-589,-46,-115,-21000,9000,259000,923559,
-2068,-3760,15868,-436,-61,-144,-21000,9000,259000,923572,
-2292,-3864,15976,-583,-166,-147,-21000,9000,259000,923574,
-2128,-3840,15780,-421,-104,-102,-21000,9000,259000,923577,
-2176,-3860,15916,-506,-41,-34,-21000,9000,259000,923589,
-2004,-3804,15928,-424,-4,-83,-21000,9000,259000,923591,
-2040,-3908,15804,-536,3,-63,-21000,9000,259000,923594,
-2156,-3724,15824,-469,155,-8,-21000,9000,259000,923606,
-2164,-3796,15776,-487,194,21,-21000,9000,259000,923609,
-2052,-3776,15796,-460,180,-32,-21000,9000,259000,923611,
-2064,-4028,15820,-397,325,26,-21000,9000,259000,923623,
-2172,-3992,15900,-473,296,-12,-21000,9000,259000,923626,
-2120,-3872,15828,-442,385,2,-21000,9000,259000,923628,
-2024,-3768,15780,-528,376,12,-21000,9000,259000,923640,
-2032,-3844,15764,-405,417,1,-21000,9000,259000,923643,
-2036,-3784,15660,-532,292,-1,-21000,9000,259000,923645,
-2128,-3896,15852,-412,194,-59,-21000,9000,259000,923658,
-2220,-3892,15760,-554,142,-51,-21000,9000,259000,923660,
-2164,-3828,15792,-413,180,-55,-21000,9000,259000,923662,
-1832,-3836,15808,-532,137,-50,-21000,9000,259000,923675,
-1892,-3924,15740,-471,157,-79,-21000,9000,259000,923677,
-1928,-3820,15752,-542,169,-61,-21000,9000,259000,923679,
-1948,-3864,15720,-557,290,-109,-21000,9000,259000,923692,
-1984,-3824,15596,-545,287,-76,-21000,9000,259000,923694,
-1780,-3780,15696,-490,341,-56,-21000,9000,259000,923696,
-2096,-3860,15692,-490,395,-31,-21000,9000,259000,923709,
-2172,-3964,15820,-551,324,-86,-21000,9000,259000,923711,
-2016,-3840,15796,-542,361,-44,-21000,9000,259000,923713,
-2184,-3920,15972,-585,194,-124,-21000,9000,259000,923726,
-2324,-3840,16052,-450,250,-57,-21000,9000,259000,923728,
-2244,-3932,16032,-562,138,-118,-21000,9000,259000,923730,
-2376,-4016,15864,-443,58,-134,-21000,9000,259000,923743,
-1976,-3852,15800,-567,-31,-128,-21000,9000,259000,923745,
-2116,-3856,16016,-435,-25,-144,-21000,9000,259000,923748,
-2244,-3840,15796,-518,-74,-129,-21000,9000,259000,923760,
-2096,-3844,15960,-511,-96,-186,-21000,9000,259000,923763,
-2048,-3876,15840,-534,-86,-145,-21000,9000,259000,923765,
-1796,-3812,15736,-576,62,-78,-21000,9000,259000,923777,
-1792,-3804,15960,-435,160,-75,-21000,9000,259000,923780,
-1864,-3800,15936,-540,150,-132,-21000,9000,259000,923782,
-2168,-3900,15768,-415,358,-35,-21000,9000,259000,923794,
-2172,-3832,15776,-550,292,-30,-21000,9000,259000,923797,
-2152,-3780,15612,-439,358,2,-21000,9000,259000,923799,
-2336,-3896,15864,-553,274,-90,-21000,9000,259000,923812,
-2288,-3920,15820,-400,359,-101,-21000,9000,259000,923814,
-2128,-3848,15888,-563,273,-113,-21000,9000,259000,923816,
-2156,-3804,15864,-468,97,-117,-21000,9000,259000,923829,
-2044,-3832,15876,-537,110,-89,-21000,9000,259000,923831,
-2236,-3812,15876,-443,123,-147,-21000,9000,259000,923833,
-2352,-3884,15768,-485,160,-18,-21000,9000,259000,923846,
-2128,-3864,15752,-498,122,-39,-21000,9000,259000,923848,
-2240,-3944,15804,-480,134,-20,-21000,9000,259000,923850,
-2000,-3852,15944,-531,78,-82,-21000,9000,259000,923863,
-2132,-3700,15912,-420,145,-37,-21000,9000,259000,923865,
-2076,-3772,15828,-492,110,-90,-21000,9000,259000,923868,
-2016,-3868,15896,-378,298,-52,-21000,9000,259000,923880,
-2116,-3936,15720,-501,254,-56,-21000,9000,259000,923883,
-2212,-3888,15912,-368,353,-20,-21000,9000,259000,923885,
-2200,-3880,15696,-532,222,-89,-21000,9000,259000,923897,
-2048,-3740,15780,-419,208,-64,-21000,9000,259000,923900,
-2100,-3816,15848,-550,145,-71,-21000,9000,259000,923902,
-2116,-3820,15660,-449,80,-120,-21000,9000,259000,923915,
-2096,-3920,15796,-497,91,-109,-21000,9000,259000,923917,
-2036,-3760,15920,-412,118,-107,-21000,9000,259000,923919,
-1928,-3736,15816,-520,108,-90,-21000,9000,259000,923932,
-1960,-3712,15764,-498,103,-138,-21000,9000,259000,923934,
-2040,-3780,15692,-506,129,-110,-21000,9000,259000,923936,
-2112,-3892,15708,-588,146,-171,-21000,9000,259000,923949,
-2036,-3848,15664,-483,226,-116,-21000,9000,259000,923951,
-2116,-3796,15764,-596,169,-161,-21000,9000,259000,923953,
-1964,-3860,15700,-475,160,-161,-21000,9000,259000,923966,
-2064,-3796,15852,-623,78,-170,-21000,9000,259000,923968,
-2100,-3824,15912,-480,129,-148,-21000,9000,259000,923970,
-2164,-3816,15752,-613,106,-165,-21000,9000,259000,923983,
-2240,-3964,15760,-502,181,-158,-21000,9000,259000,923985,
-2168,-3868,15836,-613,131,-155,-21000,9000,259000,923988,
-2076,-3868,15676,-577,194,-168,-21000,9000,259000,924000,
-2100,-3892,15820,-539,238,-127,-21000,9000,259000,924002,
-1996,-3908,15772,-571,189,-142,-21000,9000,259000,924005,
-2296,-3944,15692,-475,270,-119,-21000,9000,259000,924017,
-2204,-3800,15808,-593,224,-159,-21000,9000,259000,924019,
-2132,-3788,15772,-494,285,-115,-21000,9000,259000,924022,
-2140,-3812,15816,-630,209,-98,-21000,9000,259000,924034,
-2156,-3864,15912,-485,245,-60,-21000,9000,259000,924037,
-2292,-3860,15940,-632,172,-112,-21000,9000,259000,924039,
-2180,-3840,15812,-468,126,-122,-21000,9000,259000,924051,
-2136,-3892,15868,-582,130,-88,-21000,9000,259000,924054,
-2044,-3788,15872,-449,160,-115,-21000,9000,259000,924056,
-2308,-3936,15876,-516,179,-79,-21000,9000,259000,924069,
-2212,-3868,15836,-514,199,-102,-21000,9000,259000,924071,
-2028,-3896,15852,-521,218,-62,-21000,9000,259000,924073,
-2116,-3808,15780,-585,124,-68,-21000,9000,259000,924086,
-2396,-3868,15792,-452,173,-42,-21000,9000,259000,924088,
-2192,-3888,15800,-553,125,-88,-21000,9000,259000,924091,
-2052,-3800,15876,-417,229,-63,-21000,9000,259000,924103,
-2196,-3752,15812,-545,159,-99,-21000,9000,259000,924105,
-2148,-3828,15856,-401,234,-56,-21000,9000,259000,924108,
-2320,-3948,15788,-521,94,-43,-21000,9000,259000,924120,
-2220,-3844,15700,-429,99,-68,-21000,9000,259000,924123,
-2200,-3752,15780,-531,58,-51,-21000,9000,259000,924125,
-2048,-3908,15800,-498,112,-107,-21000,9000,259000,924138,
-2148,-3916,15724,-487,157,-72,-21000,9000,259000,924140,
-1980,-3944,15820,-442,183,-63,-21000,9000,259000,924142,
-1920,-3824,15984,-407,306,-18,-21000,9000,259000,924155,
-1932,-3872,15808,-514,263,-69,-21000,9000,259000,924157,
-2128,-3824,15772,-439,300,-14,-21000,9000,259000,924159,
-2204,-3820,15860,-517,301,-52,-21000,9000,259000,924172,
-2240,-3880,15644,-388,372,-9,-21000,9000,259000,924174,
-2096,-3856,15844,-504,302,-68,-21000,9000,259000,924176,
-2056,-3832,15760,-361,347,-41,-21000,9000,259000,924189,
-2108,-3864,15852,-497,260,-60,-21000,9000,259000,924191,
-2172,-3836,15868,-354,319,-63,-21000,9000,259000,924193,
-2224,-3976,15884,-479,117,-92,-21000,9000,259000,924206,
-2136,-3912,15712,-392,119,-108,-21000,9000,259000,924208,
-2196,-3916,15824,-500,85,-60,-21000,9000,259000,924211,
-2196,-3780,15720,-528,19,-145,-21000,9000,259000,924223,
-2068,-3840,15876,-443,65,-66,-21000,9000,259000,924225,
-1992,-3840,15804,-495,37,-123,-21000,9000,259000,924228,
-1996,-3788,15700,-388,201,-77,-21000,9000,259000,924240,
-2080,-3768,15820,-542,99,-105,-21000,9000,259000,924243,
-2176,-3648,15720,-412,181,-108,-21000,9000,259000,924245,
-2096,-3740,15796,-560,164,-112,-21000,9000,259000,924257,
-2052,-3692,15700,-433,206,-72,-21000,9000,259000,924260,
-2088,-3788,15884,-557,158,-98,-21000,9000,259000,924262,
-2412,-3756,15904,-443,315,-129,-21000,9000,259000,924274,
-2300,-3840,15888,-540,297,-87,-21000,9000,259000,924277,
-2232,-3848,15976,-436,330,-86,-21000,9000,259000,924279,
-2116,-3796,15704,-567,210,-95,-21000,9000,259000,924291,
-2184,-3860,15736,-449,237,-107,-21000,9000,259000,924294,
-2172,-3868,15780,-566,181,-86,-21000,9000,259000,924296,
-2324,-3892,15820,-539,97,-98,-21000,9000,259000,924309,
-2176,-3892,15888,-558,145,-59,-21000,9000,259000,924311,
-2392,-3888,15816,-523,94,-127,-21000,9000,259000,924313,
-2280,-3916,15832,-490,76,-119,-21000,9000,259000,924326,
-2168,-3892,15760,-574,-2,-103,-21000,9000,259000,924328,
-2124,-3884,15904,-468,75,-118,-21000,9000,259000,924330,
-2128,-3936,15872,-637,-10,-166,-21000,9000,259000,924343,
-2384,-3880,15836,-491,36,-133,-21000,9000,259000,924345,
-2220,-3876,15928,-651,-51,-157,-21000,9000,259000,924347,
-2188,-3848,15952,-466,110,-127,-21000,9000,259000,924360,
-1960,-3836,15840,-602,92,-114,-21000,9000,259000,924362,
-2148,-3900,15824,-439,171,-77,-21000,9000,259000,924365,
-2412,-3748,16012,-553,192,-78,-21000,9000,259000,924377,
-2224,-3768,15848,-549,164,-117,-21000,9000,259000,924379,
-2220,-3696,15920,-526,176,-68,-21000,9000,259000,924382,
-2132,-3880,15916,-591,147,-156,-21000,9000,259000,924394,
-2136,-3800,15772,-435,240,-110,-21000,9000,259000,924397,
-2396,-3848,15884,-550,161,-131,-21000,9000,259000,924399,
-2212,-3828,15764,-432,154,-72,-21000,9000,259000,924411,
-2176,-3816,15976,-570,55,-70,-21000,9000,259000,924414,
-2452,-3876,15904,-401,75,-62,-21000,9000,259000,924416,
-2256,-3852,15844,-513,-23,-99,-21000,9000,259000,924429,
-2288,-3884,15868,-411,21,-117,-21000,9000,259000,924431,
-2204,-3928,15936,-524,-26,-114,-21000,9000,259000,924433,
-2080,-3884,15776,-475,42,-118,-21000,9000,259000,924446,
-2068,-3888,15644,-521,101,-82,-21000,9000,259000,924448,
-2068,-3768,15888,-457,96,-110,-21000,9000,259000,924450,
-2276,-3924,15844,-409,258,-36,-21000,9000,259000,924463,
-2264,-3872,15824,-503,211,-109,-21000,9000,259000,924465,
-2204,-3908,15816,-453,264,-56,-21000,9000,259000,924467,
-2296,-3924,15576,-533,207,-67,-21000,9000,259000,924480,
-2248,-3844,15860,-408,225,-35,-21000,9000,259000,924482,
-2168,-3788,15744,-515,174,-44,-21000,9000,259000,924484,
-2192,-3836,15832,-405,121,-59,-21000,9000,259000,924497,
-2336,-3832,15744,-541,36,-104,-21000,9000,259000,924499,
-2360,-3876,15900,-386,86,-64,-21000,9000,259000,924502,
-2100,-3692,15768,-529,71,-74,-21000,9000,259000,924514,
-2084,-3720,15816,-406,125,-44,-21000,9000,259000,924516,
-2124,-3776,15804,-544,100,-65,-21000,9000,259000,924519,
-2240,-3888,15804,-482,119,-84,-21000,9000,259000,924531,
-2256,-3800,15904,-501,128,-88,-21000,9000,259000,924534,
-2132,-3752,15864,-498,120,-98,-21000,9000,259000,924536,
-2124,-3772,15748,-470,124,-79,-21000,9000,259000,924548,
-2284,-3788,15724,-545,35,-105,-21000,9000,259000,924551,
-2248,-3852,15848,-492,89,-64,-21000,9000,259000,924553,
-2264,-3852,15764,-579,54,-86,-21000,9000,259000,924565,
-2036,-3848,15800,-412,119,-82,-21000,9000,259000,924568,
-2204,-3820,15868,-564,74,-80,-21000,9000,259000,924570,
-2364,-4000,15812,-432,96,-53,-21000,9000,259000,924583,
-2208,-3944,15792,-534,66,-58,-21000,9000,259000,924585,
-2100,-3876,15768,-408,99,-59,-21000,9000,259000,924587,
-1992,-3748,15832,-521,151,-79,-21000,9000,259000,924600,
-2180,-3800,15904,-440,189,-91,-21000,9000,259000,924602,
-2196,-3856,15888,-523,155,-55,-21000,9000,259000,924604,
-2260,-3788,15908,-462,118,-88,-21000,9000,259000,924617,
-2052,-3756,16004,-467,132,-72,-21000,9000,259000,924619,
-2260,-3868,15996,-445,94,-97,-21000,9000,259000,924621,
-2096,-3756,15884,-376,173,-82,-21000,9000,259000,924634,
-2136,-3748,15952,-507,91,-96,-21000,9000,259000,924636,
-2020,-3768,15852,-364,196,-103,-21000,9000,259000,924639,
-2028,-3848,15724,-519,116,-100,-21000,9000,259000,924651,
-2192,-3800,15892,-347,209,-72,-21000,9000,259000,924653,
-2212,-3816,15876,-520,131,-115,-21000,9000,259000,924656,
-2220,-3808,15836,-357,168,-115,-21000,9000,259000,924668,
-2188,-3736,15944,-509,143,-95,-21000,9000,259000,924671,
-2116,-3872,15864,-382,168,-105,-21000,9000,259000,924673,
-2404,-3880,15812,-421,109,-118,-21000,9000,259000,924685,
-2292,-3812,15708,-425,40,-138,-21000,9000,259000,924688,
-2132,-3848,15796,-454,59,-126,-21000,9000,259000,924690,
-2220,-3772,15852,-480,-12,-153,-21000,9000,259000,924702,
-1980,-3904,15752,-377,-2,-113,-21000,9000,259000,924705,
-2236,-3904,15692,-441,-14,-137,-21000,9000,259000,924707,
-2180,-3828,15728,-341,89,-121,-21000,9000,259000,924720,
-2168,-3760,15876,-493,70,-161,-21000,9000,259000,924722,
-2280,-3784,15736,-365,120,-126,-21000,9000,259000,924724,
-2128,-3768,15764,-508,143,-102,-21000,9000,259000,924737,
-2208,-3864,15740,-416,176,-121,-21000,9000,259000,924739,
-2128,-3756,15820,-534,130,-102,-21000,9000,259000,924741,
-2268,-3820,15748,-466,102,-127,-21000,9000,259000,924754,
-2372,-3756,15740,-472,102,-83,-21000,9000,259000,924756,
-2312,-3736,15760,-465,111,-129,-21000,9000,259000,924759,
-2280,-3732,15844,-426,60,-36,-21000,9000,259000,924771,
-2192,-3792,15548,-536,17,-92,-21000,9000,259000,924773,
-2244,-3712,15940,-449,76,-48,-21000,9000,259000,924776,
-2248,-3708,15708,-559,7,-74,-21000,9000,259000,924788,
-2256,-3856,15820,-403,98,-90,-21000,9000,259000,924791,
-2148,-3784,15832,-552,26,-93,-21000,9000,259000,924793,
-2100,-3756,15836,-475,195,-95,-21000,9000,259000,924805,
-2132,-3868,15800,-510,170,-52,-21000,9000,259000,924808,
-2108,-3824,15812,-484,191,-37,-21000,9000,259000,924810,
-2276,-3752,16024,-537,107,-37,-21000,9000,259000,924823,
-2320,-3832,15812,-546,63,-74,-21000,9000,259000,924825,
-2352,-3808,15804,-543,88,-30,-21000,9000,259000,924827,
-2164,-3820,15888,-557,-80,-83,-21000,9000,259000,924840,
-2080,-3776,15652,-474,-49,-83,-21000,9000,259000,924842,
-2040,-3772,15720,-562,-117,-81,-21000,9000,259000,924845,
-2040,-3788,15728,-463,76,-68,-21000,9000,259000,924857,
-2040,-3836,15740,-598,24,-123,-21000,9000,259000,924859,
-2060,-3820,15760,-437,124,-78,-21000,9000,259000,924862,
-2064,-3764,15860,-568,164,-49,-21000,9000,259000,924874,
-2036,-3780,15896,-446,233,-53,-21000,9000,259000,924877,
-1964,-3812,15792,-577,188,-71,-21000,9000,259000,924879,
-2156,-3728,15772,-513,296,-130,-21000,9000,259000,924892,
-2164,-3816,15776,-543,284,-78,-21000,9000,259000,924894,
-2176,-3904,15976,-494,300,-114,-21000,9000,259000,924896,
-2104,-3864,15872,-506,273,-86,-21000,9000,259000,924909,
-2072,-3892,15856,-535,214,-138,-21000,9000,259000,924911,
-2040,-3828,15908,-524,238,-84,-21000,9000,259000,924913,
-2316,-3908,16088,-586,32,-141,-21000,9000,259000,924926,
-2396,-3868,15808,-446,99,-93,-21000,9000,259000,924928,
-2340,-3820,15984,-528,-10,-170,-21000,9000,259000,924931,
-1992,-3824,15844,-423,-10,-135,-21000,9000,259000,924943,
-2068,-3792,15796,-551,-90,-162,-21000,9000,259000,924945,
-2044,-3840,15972,-419,17,-151,-21000,9000,259000,924948,
-2152,-3804,15684,-554,179,-94,-21000,9000,259000,924960,
-2000,-3808,15692,-409,278,-73,-21000,9000,259000,924963,
-2156,-3776,15812,-564,249,-69,-21000,9000,259000,924965,
-2156,-3764,15816,-442,379,-79,-21000,9000,259000,924978,
-2272,-3800,15672,-549,354,-107,-21000,9000,259000,924980,
-1964,-3864,15812,-434,421,-90,-21000,9000,259000,924982,
-2424,-3796,15948,-509,337,-71,-21000,9000,259000,924995,
-2420,-3764,15804,-513,262,-102,-21000,9000,259000,924997,
-2584,-3828,15672,-498,294,-71,-21000,9000,259000,924999,
-2304,-3892,15844,-532,69,-116,-21000,9000,259000,925012,
-1988,-3724,15792,-461,129,-67,-21000,9000,259000,925014,
-2228,-3840,15704,-550,45,-127,-21000,9000,259000,925016,
-2400,-3848,15788,-456,-32,-96,-21000,9000,259000,925029,
-2448,-3824,15760,-570,-97,-104,-21000,9000,259000,925031,
-2364,-3900,15892,-461,-39,-85,-21000,9000,259000,925034,
-2056,-3896,15916,-591,-98,-81,-21000,9000,259000,925046,
-2068,-3840,15740,-436,-47,-101,-21000,9000,259000,925048,
-2196,-3872,15696,-572,-60,-107,-21000,9000,259000,925051,
-2156,-3900,15800,-512,137,-98,-21000,9000,259000,925063,
-2048,-3820,15828,-535,126,-78,-21000,9000,259000,925066,
-1944,-3932,15788,-446,206,-102,-21000,9000,259000,925068,
-2216,-3832,15812,-472,319,-6,-21000,9000,259000,925080,
-2312,-3864,15948,-552,327,-77,-21000,9000,259000,925083,
-2084,-3844,15728,-499,372,-43,-21000,9000,259000,925085,
-2140,-3724,15876,-539,393,-85,-21000,9000,259000,925098,
-2432,-3780,15892,-414,452,-51,-21000,9000,259000,925100,
-2212,-3772,15840,-566,407,-121,-21000,9000,259000,925102,
-2152,-3740,15840,-476,431,-56,-21000,9000,259000,925115,
-2172,-3772,15820,-585,376,-66,-21000,9000,259000,925117,
-2268,-3824,15724,-465,368,-63,-21000,9000,259000,925119,
-2516,-3828,15720,-581,105,-46,-21000,9000,259000,925132,
-2460,-3812,15796,-520,56,-98,-21000,9000,259000,925134,
-2516,-3776,15688,-599,9,-27,-21000,9000,259000,925137,
-2304,-3888,15816,-577,-165,-45,-21000,9000,259000,925149,
-2408,-3920,15832,-539,-104,0,-21000,9000,259000,925151,
-2464,-3872,15884,-549,-151,-37,-21000,9000,259000,925154,
-2360,-3788,15916,-463,78,82,-21000,9000,259000,925166,
-2280,-3812,15884,-555,26,58,-21000,9000,259000,925169,
-2508,-3884,15864,-455,134,92,-21000,9000,259000,925171,
-2380,-3892,15888,-528,242,79,-21000,9000,259000,925183,
-2480,-3880,15748,-403,339,129,-21000,9000,259000,925186,
-2260,-3784,15972,-534,320,94,-21000,9000,259000,925188,
-2268,-3820,15944,-358,518,206,-21000,9000,259000,925201,
-2580,-3876,15820,-525,402,207,-21000,9000,259000,925203,
-2364,-3892,15940,-351,457,213,-21000,9000,259000,925205,
-2352,-3824,15932,-503,296,208,-21000,9000,259000,925218,
-2232,-3788,15792,-363,333,238,-21000,9000,259000,925220,
-2404,-3792,15984,-479,231,230,-21000,9000,259000,925222,
-2160,-3732,15820,-383,8,186,-21000,9000,259000,925235,
-2140,-3748,15952,-431,-59,174,-21000,9000,259000,925237,
-2012,-3740,15980,-394,-117,160,-21000,9000,259000,925240,
-1904,-3820,16316,-369,-423,120,-21000,9000,259000,925252,
-2000,-3940,16220,-328,-526,17,-21000,9000,259000,925254,
-1864,-3988,16384,-359,-594,48,-21000,9000,259000,925257,
-1380,-4044,16596,-205,-1019,-207,-21000,9000,259000,925269,
-1356,-4156,16752,-69,-1011,-210,-21000,9000,259000,925271,
-1388,-4188,17148,-150,-1168,-323,-21000,9000,259000,925274,
-744,-4252,16928,242,-1246,-706,-21000,8000,259000,925286,
-620,-4336,17188,131,-1353,-791,-21000,8000,259000,925289,
-456,-4488,16968,304,-1297,-852,-21000,8000,259000,925291,
412,-4624,17196,475,-1607,-1376,-21000,8000,259000,925303,
480,-4604,17256,649,-1634,-1511,-21000,8000,259000,925306,
856,-4640,17260,568,-1767,-1678,-21000,8000,259000,925308,
2052,-4472,17480,1013,-2032,-2590,-21000,8000,259000,925320,
2372,-4420,17512,1069,-2061,-2730,-20000,8000,259000,925323,
2544,-4408,17612,1208,-2076,-2958,-20000,7000,259000,925325,
3944,-4168,17828,1601,-1971,-3981,-20000,7000,258000,925338,
4176,-3980,17820,1572,-1958,-4224,-20000,7000,258000,925340,
4440,-3800,17872,1709,-1811,-4364,-20000,7000,258000,925342,
5472,-3952,17864,2042,-1028,-5673,-20000,6000,258000,925355,
5516,-3980,18172,2254,-783,-5916,-20000,6000,258000,925357,
5996,-3976,18260,2186,-604,-6223,-20000,6000,258000,925359,
7828,-4040,17868,2839,840,-7923,-20000,6000,257000,925372,
8052,-4240,17896,2768,1075,-8219,-20000,6000,257000,925374,
8224,-4144,17684,3008,1406,-8577,-20000,6000,256000,925377,
8384,-4320,17692,3358,2544,-10333,-19000,5000,255000,925389,
8360,-4408,17628,3574,2749,-10800,-19000,5000,255000,925391,
8276,-4564,17648,3505,2845,-11062,-19000,5000,255000,925394,
7148,-5340,18164,3938,2613,-12866,-19000,5000,254000,925406,
6892,-5480,18168,4067,2397,-13213,-19000,5000,254000,925409,
6752,-5564,18268,4103,2105,-13702,-19000,5000,253000,925411,
6240,-6028,18772,4726,92,-16060,-19000,4000,252000,925423,
6336,-6108,18960,4687,-318,-16576,-19000,4000,252000,925426,
6244,-6248,18744,4890,-604,-17028,-18000,4000,251000,925428,
7100,-6704,18236,5087,-2034,-19487,-18000,3000,250000,925441,
7532,-6684,17888,5288,-2103,-19947,-18000,3000,249000,925443,
7580,-6764,17912,5210,-2223,-20365,-18000,3000,249000,925445,
8304,-6856,17276,5421,-1634,-22458,-18000,2000,247000,925458,
8120,-7128,17064,5372,-1401,-22742,-17000,2000,247000,925460,
7484,-7672,17092,5323,155,-24424,-17000,1000,244000,925472,
7380,-7852,17168,5294,400,-24578,-17000,1000,244000,925475,
7072,-7852,17144,5310,632,-24990,-17000,0,244000,925477,
6100,-8872,16508,5382,1551,-26456,-17000,0,241000,925490,
5604,-9016,16224,5335,1572,-26810,-16000,0,241000,925492,
5396,-9084,16180,5343,1650,-26913,-16000,0,240000,925494,
4260,-9532,15524,5230,1631,-28333,-16000,0,237000,925507,
4068,-9676,15520,5323,1660,-28506,-16000,0,237000,925509,
3880,-9712,15336,5188,1562,-28813,-16000,-1000,237000,925511,
3720,-9736,15112,5204,1761,-29945,-15000,-1000,234000,925524,
3672,-9748,15224,5006,1788,-30129,-15000,-1000,233000,925526,
3752,-9736,15200,5100,1970,-30275,-15000,-1000,233000,925528,
2804,-10048,14296,4786,2696,-30845,-15000,-2000,230000,925541,
2524,-10040,14244,4821,2935,-30927,-15000,-2000,229000,925543,
2272,-10064,14068,4612,3044,-30875,-14000,-2000,229000,925546,
104,-9904,14240,4494,3862,-30950,-14000,-3000,226000,925558,
-304,-9808,14300,4478,3936,-30808,-14000,-3000,225000,925561,
-1128,-9708,14392,4468,3940,-30992,-14000,-3000,225000,925563,
-2964,-10100,14044,4224,3533,-31077,-13000,-3000,222000,925575,
-2844,-10148,13884,4064,3561,-31156,-13000,-3000,221000,925578,
-2664,-9832,13640,3926,4096,-30865,-13000,-3000,218000,925590,
-2668,-9760,13476,3722,4233,-30678,-13000,-3000,218000,925593,
-2492,-9604,13564,3770,4481,-30549,-13000,-3000,217000,925595,
-2776,-9156,13800,3364,5805,-29480,-12000,-3000,214000,925607,
-3032,-9180,13636,3366,6033,-29457,-12000,-3000,214000,925610,
-3396,-9212,13808,3352,6259,-29103,-12000,-3000,213000,925612,
-6476,-9084,13912,3459,6920,-27584,-12000,-3000,210000,925625,
-7004,-9124,14296,3568,6865,-27149,-12000,-3000,210000,925627,
-7604,-9024,14336,3533,6569,-27022,-12000,-3000,209000,925629,
-10744,-8540,15524,3872,5192,-25296,-11000,-3000,207000,925642,
-11148,-8428,15668,3738,4698,-25060,-11000,-3000,206000,925644,
-12016,-7696,15764,4052,2110,-24258,-11000,-3000,204000,925657,
-11880,-7576,15768,3859,1447,-24085,-11000,-3000,204000,925659,
-11884,-7472,16152,4055,1104,-24041,-10000,-3000,203000,925662,
-11420,-6288,14828,3784,-1272,-22865,-10000,-3000,201000,925674,
-11500,-6284,15012,3773,-1560,-22754,-10000,-3000,201000,925676,
-11104,-5996,14740,3658,-1755,-22273,-10000,-3000,200000,925679,
-9044,-4908,13620,3148,-2247,-20645,-9000,-4000,198000,925691,
-8776,-4668,13704,3144,-2149,-20283,-9000,-4000,198000,925694,
-6928,-3556,12756,2395,-1516,-18537,-9000,-4000,196000,925706,
-6704,-3400,12828,2386,-1094,-18171,-9000,-4000,196000,925709,
-6292,-3344,12780,2162,-730,-17725,-9000,-4000,196000,925711,
-5792,-3048,13284,1801,2552,-15241,-9000,-4000,194000,925723,
-5956,-3256,13152,1656,3113,-14696,-9000,-4000,194000,925726,
-6232,-3244,13332,1662,3761,-14245,-9000,-4000,194000,925728,
-8020,-3124,13880,1295,6306,-11221,-8000,-3000,192000,925741,
-8508,-3144,13844,1236,6640,-10870,-8000,-3000,192000,925743,
-9072,-3184,13640,1184,6939,-10264,-8000,-3000,192000,925745,
-12076,-2800,13836,809,6405,-8016,-8000,-2000,191000,925758,
-12288,-2816,13936,923,6093,-7589,-8000,-2000,191000,925760,
-12600,-2916,14004,790,5598,-7293,-8000,-2000,191000,925762,
-13336,-2508,14068,593,2700,-5797,-8000,-2000,190000,925775,
-13324,-2340,14096,433,2174,-5560,-8000,-1000,190000,925777,
-12048,-1688,14060,233,159,-4102,-8000,-1000,190000,925790,
-11772,-1496,13916,115,-88,-3758,-8000,-1000,190000,925792,
-11516,-1616,13852,113,-313,-3483,-8000,-1000,190000,925794,
-9808,-1088,14420,-274,-303,-1655,-8000,-1000,190000,925807,
-9524,-1000,14260,-398,-170,-1307,-8000,-1000,190000,925809,
-9180,-876,14416,-409,121,-874,-8000,-1000,190000,925812,
-8740,-508,14712,-853,1867,1320,-8000,-1000,190000,925824,
-8776,-396,14808,-792,2313,1739,-8000,-1000,190000,925827,
-8884,-336,15020,-975,2562,2092,-8000,0,190000,925829,
-9972,-144,15680,-1195,3341,3950,-8000,0,190000,925841,
-9920,-8,15772,-1367,3224,4236,-8000,0,190000,925844,
-10264,-28,15788,-1289,3218,4508,-8000,0,190000,925846,
-10232,156,16304,-1568,1925,5570,-8000,0,191000,925858,
-10120,280,16376,-1482,1603,5724,-8000,0,191000,925861,
-9948,52,16400,-1638,1216,5880,-8000,0,191000,925863,
-9424,-52,16500,-1620,-358,6752,-8000,0,191000,925876,
-9360,-188,16492,-1687,-565,6929,-8000,0,192000,925878,
-9340,-252,16464,-1610,-855,7166,-9000,0,192000,925880,
-8212,-404,16188,-1644,-1802,8166,-9000,0,193000,925893,
-7804,-432,16304,-1703,-1957,8334,-9000,0,193000,925895,
-7536,-524,16276,-1653,-1975,8489,-9000,0,193000,925897,
-6676,-1092,15868,-1750,-1854,9516,-9000,1000,194000,925910,
-6676,-1288,15972,-1616,-1628,9747,-9000,1000,194000,925912,
-6376,-1296,16008,-1764,-1507,9951,-9000,1000,194000,925914,
-6152,-2184,16140,-1658,-310,11271,-9000,1000,195000,925927,
-6172,-2320,16236,-1826,-158,11506,-9000,1000,195000,925929,
-6004,-2328,16224,-1694,155,11786,-9000,1000,196000,925932,
-6212,-2992,15868,-1919,852,13012,-9000,1000,197000,925944,
-6116,-2864,15948,-1892,899,13264,-9000,1000,197000,925947,
-6368,-3000,15856,-1979,938,13482,-9000,2000,197000,925949,
-6408,-3272,15604,-2154,919,14460,-9000,2000,199000,925961,
-6092,-3352,15444,-2161,921,14666,-9000,2000,199000,925964,
-6140,-3488,15512,-2257,807,14797,-9000,2000,199000,925966,
-6032,-3752,15212,-2361,327,15583,-10000,3000,201000,925979,
-6280,-3856,15004,-2543,120,15728,-10000,3000,201000,925981,
-6160,-3960,15212,-2469,84,15874,-10000,3000,201000,925983,
-6128,-4312,14920,-2735,-338,16771,-10000,3000,203000,925996,
-6176,-4360,14896,-2617,-363,16974,-10000,3000,203000,925998,
-6188,-4468,14872,-2752,-486,17085,-10000,3000,203000,926000,
-6396,-4812,14708,-2826,-672,17938,-10000,4000,205000,926013,
-6240,-4800,14796,-2913,-661,18084,-10000,4000,205000,926015,
-6076,-4844,14744,-2844,-670,18269,-10000,4000,206000,926018,
-5476,-5104,14840,-2981,-893,19023,-10000,4000,207000,926030,
-5384,-5088,15032,-3001,-966,19158,-10000,4000,208000,926033,
-4980,-5108,14964,-3048,-1016,19276,-11000,4000,208000,926035,
-4364,-4904,15740,-3161,-890,20015,-11000,5000,210000,926047,
-4500,-4892,15856,-3091,-760,20170,-11000,5000,210000,926050,
-4280,-4920,16328,-3381,-305,20900,-11000,5000,212000,926062,
-4220,-4848,16352,-3313,-182,21098,-11000,5000,213000,926065,
-4284,-4780,16368,-3447,-198,21165,-11000,5000,213000,926067,
-4204,-4820,16224,-3502,-274,21752,-11000,6000,215000,926079,
-4340,-4920,16028,-3630,-400,21741,-11000,6000,216000,926082,
-4240,-4752,16104,-3540,-535,21876,-11000,6000,216000,926084,
-3700,-4664,15700,-3733,-1490,22040,-11000,6000,218000,926097,
-3852,-4792,15508,-3759,-1652,22109,-11000,6000,219000,926099,
-3908,-4800,15596,-3769,-1775,22099,-11000,6000,219000,926101,
-3916,-5080,15284,-3886,-2588,22358,-12000,6000,221000,926114,
-3920,-4940,15404,-3763,-2767,22413,-12000,6000,221000,926116,
-3292,-4792,15020,-3907,-4527,22468,-12000,7000,224000,926129,
-3064,-4908,14928,-3769,-4808,22470,-12000,7000,224000,926131,
-3108,-4960,14888,-3886,-5153,22453,-12000,7000,224000,926134,
-2292,-5272,14536,-3896,-6124,22457,-12000,6000,227000,926146,
-1928,-5412,14732,-3976,-6205,22423,-12000,6000,227000,926148,
-1752,-5420,14652,-3835,-6235,22523,-12000,6000,228000,926151,
-1108,-5260,13880,-3919,-6230,22685,-12000,6000,230000,926163,
-1040,-5212,13852,-3953,-6147,22788,-12000,6000,230000,926165,
-104,-4972,13836,-4081,-5518,22944,-12000,6000,233000,926178,
64,-4860,14064,-4203,-5530,22954,-12000,6000,233000,926180,
-72,-4984,14284,-4153,-5412,22911,-12000,6000,233000,926183,
-36,-4976,14164,-4546,-4866,22682,-13000,6000,236000,926195,
8,-5056,14128,-4475,-4784,22627,-13000,6000,236000,926198,
356,-5160,14204,-4643,-4881,22523,-13000,6000,236000,926200,
940,-5548,14440,-4767,-5145,22154,-13000,6000,239000,926212,
932,-5588,14468,-4925,-5222,22001,-13000,6000,239000,926215,
1356,-5520,14444,-4849,-5292,21980,-13000,6000,239000,926217,
2604,-5624,14748,-5027,-5388,21370,-13000,6000,242000,926230,
2608,-5524,14860,-5003,-5336,21298,-13000,6000,242000,926232,
2604,-5552,14932,-5048,-5227,21140,-13000,6000,242000,926234,
2912,-5440,14956,-5171,-4856,20618,-14000,6000,244000,926247,
3088,-5496,14984,-5048,-4783,20483,-14000,6000,245000,926249,
3244,-5476,15308,-5128,-4848,20343,-14000,6000,245000,926251,
3684,-5748,15344,-5105,-4810,19327,-14000,6000,247000,926264,
3880,-5796,15392,-5240,-4904,19068,-14000,6000,247000,926266,
4204,-5732,15408,-5053,-4893,18811,-14000,6000,248000,926269,
5176,-5668,16000,-5036,-5097,17543,-15000,5000,250000,926281,
5168,-5644,16064,-4920,-5019,17347,-15000,5000,250000,926284,
5848,-5536,16496,-4742,-4235,16174,-15000,5000,251000,926296,
5864,-5456,16488,-4754,-4113,15983,-15000,5000,252000,926298,
6128,-5316,16592,-4674,-3894,15759,-15000,5000,252000,926301,
6428,-4888,16480,-4625,-2952,14479,-15000,5000,253000,926313,
6556,-4724,16620,-4503,-2707,14241,-15000,5000,254000,926316,
6432,-4780,16612,-4607,-2639,13928,-15000,5000,254000,926318,
6452,-4852,16720,-4322,-1500,12357,-16000,5000,255000,926330,
6636,-4884,16596,-4461,-1340,12082,-16000,5000,255000,926333,
6532,-4860,16816,-4273,-1069,11798,-16000,5000,256000,926335,
6888,-4620,17008,-4093,-256,10401,-16000,5000,257000,926348,
6952,-4532,17140,-3967,-115,10102,-16000,5000,257000,926350,
7048,-4376,17308,-3972,-26,9825,-16000,5000,257000,926352,
6404,-4028,17712,-3719,513,8330,-17000,6000,258000,926365,
6228,-4024,17688,-3600,676,8059,-17000,6000,258000,926367,
6156,-4128,17744,-3626,710,7824,-17000,6000,258000,926369,
5700,-4020,17460,-3229,1250,6544,-17000,6000,258000,926382,
5556,-4012,17492,-3285,1255,6257,-17000,6000,259000,926384,
5300,-3968,17476,-3093,1426,6044,-17000,6000,259000,926387,
4584,-3700,17316,-2934,1876,4783,-17000,6000,259000,926399,
4524,-3716,17464,-2740,2006,4577,-17000,6000,259000,926401,
4464,-3772,17556,-2864,1928,4424,-17000,6000,259000,926404,
4076,-3684,17984,-2489,1899,3311,-17000,6000,259000,926416,
3760,-3720,18236,-2417,1875,3163,-17000,6000,259000,926419,
3844,-3748,18200,-2299,1831,2949,-17000,6000,260000,926421,
2832,-3680,18344,-1845,1684,1988,-18000,6000,260000,926434,
2620,-3640,18164,-1853,1615,1788,-18000,6000,260000,926436,
2564,-3672,17920,-1700,1637,1672,-18000,6000,260000,926438,
2320,-3612,17432,-1461,1277,820,-18000,6000,260000,926451,
2384,-3536,17200,-1248,1297,727,-18000,6000,260000,926453,
2248,-3572,17052,-1330,1201,571,-18000,6000,260000,926455,
1608,-3572,16768,-878,1314,27,-18000,7000,260000,926468,
1540,-3496,16768,-974,1318,-58,-18000,7000,260000,926470,
1316,-3588,16788,-787,1441,-134,-18000,7000,260000,926472,
848,-3408,16940,-718,1670,-427,-18000,7000,260000,926485,
668,-3456,16788,-520,1776,-449,-18000,7000,260000,926487,
316,-3396,16884,-667,1737,-529,-18000,7000,260000,926490,
-344,-3520,17048,-460,1604,-825,-18000,7000,259000,926502,
-320,-3392,17156,-421,1597,-833,-18000,7000,259000,926504,
-460,-3520,17072,-366,1599,-927,-18000,7000,259000,926507,
-600,-3572,16692,-288,1503,-1122,-18000,7000,259000,926519,
-768,-3596,16696,-276,1446,-1160,-18000,7000,259000,926521,
-748,-3500,16604,-306,1446,-1151,-18000,7000,259000,926524,
-1164,-3512,16072,-265,1159,-1193,-18000,7000,259000,926536,
-1356,-3640,15924,-118,1207,-1186,-18000,7000,259000,926539,
-1332,-3416,15804,-283,1078,-1198,-18000,7000,259000,926541,
-1496,-3304,15684,-92,1042,-1155,-18000,7000,259000,926554,
-1692,-3288,15440,-301,936,-1125,-18000,7000,259000,926556,
-1736,-3152,15644,-178,931,-1129,-18000,7000,259000,926558,
-1916,-3192,15628,-395,913,-1011,-18000,7000,259000,926571,
-1824,-3152,15832,-397,916,-1018,-18000,7000,259000,926573,
-1988,-3268,15768,-384,982,-878,-18000,7000,259000,926576,
-2212,-3092,15768,-478,928,-698,-18000,7000,259000,926588,
-2216,-3036,15760,-394,942,-646,-18000,7000,259000,926590,
-2188,-3008,15924,-501,847,-669,-18000,7000,259000,926593,
-2312,-3080,16176,-411,652,-510,-18000,7000,259000,926605,
-2128,-3000,15968,-589,552,-518,-18000,7000,258000,926607,
-2220,-3000,16068,-480,579,-464,-18000,7000,258000,926610,
-1944,-2936,15956,-619,250,-278,-18000,7000,258000,926622,
-1928,-2816,15972,-539,256,-236,-18000,7000,258000,926625,
-1848,-2804,15912,-684,200,-201,-18000,7000,258000,926627,
-1792,-2804,15836,-689,9,-111,-18000,7000,258000,926640,
-1916,-2848,15700,-725,-2,-53,-18000,7000,258000,926642,
-1788,-2752,16000,-699,-58,-103,-18000,7000,258000,926644,
-1284,-2860,15916,-746,-37,6,-18000,7000,258000,926657,
-1368,-2868,15900,-814,-86,-32,-18000,7000,258000,926659,
-1484,-2896,15820,-771,-30,-5,-18000,7000,258000,926661,
-1472,-2968,15876,-881,-74,-17,-18000,7000,258000,926674,
-1316,-3100,15912,-756,-9,-17,-18000,7000,258000,926676,
-1332,-3100,15936,-894,-84,-16,-18000,7000,258000,926679,
-796,-3144,16152,-781,196,-90,-18000,7000,258000,926691,
-812,-3144,15956,-879,214,-90,-18000,7000,258000,926693,
-712,-3128,16040,-720,343,-90,-18000,7000,258000,926696,
-968,-3312,16188,-841,615,-89,-18000,7000,258000,926708,
-832,-3316,16236,-740,640,-122,-18000,7000,258000,926710,
-1240,-3332,16304,-840,667,-89,-18000,7000,258000,926713,
-1500,-3432,16240,-767,628,-242,-18000,7000,258000,926725,
-1348,-3280,16372,-740,595,-195,-18000,7000,258000,926728,
-1324,-3360,16276,-744,563,-295,-18000,7000,258000,926730,
-1364,-3412,16372,-627,378,-373,-18000,7000,258000,926742,
-1304,-3296,16204,-741,271,-430,-18000,7000,258000,926745,
-1324,-3316,16400,-615,326,-436,-18000,7000,258000,926747,
-1240,-3304,16236,-746,243,-521,-18000,7000,258000,926760,
-1196,-3256,16216,-601,259,-551,-18000,7000,258000,926762,
-1196,-3316,16252,-722,211,-522,-18000,7000,258000,926764,
-1140,-3216,16324,-623,59,-600,-18000,7000,258000,926777,
-1128,-3244,16208,-601,46,-577,-18000,7000,258000,926779,
-980,-3228,16324,-604,44,-640,-18000,7000,258000,926781,
-776,-3296,16388,-498,-23,-650,-18000,7000,258000,926794,
-772,-3348,16364,-579,-66,-683,-18000,7000,258000,926796,
-696,-3332,16420,-480,-45,-641,-18000,7000,258000,926799,
-788,-3388,16436,-445,-50,-629,-18000,7000,258000,926811,
-688,-3372,16380,-302,37,-643,-18000,7000,258000,926813,
-1000,-3332,16428,-423,5,-618,-18000,7000,258000,926816,
-984,-3224,16424,-302,178,-636,-18000,7000,258000,926828,
-760,-3084,16216,-370,143,-626,-18000,7000,258000,926831,
-968,-3116,16224,-299,166,-675,-18000,7000,258000,926833,
-988,-3152,16196,-298,272,-738,-18000,7000,258000,926846,
-904,-3168,16164,-315,257,-757,-18000,7000,258000,926848,
