Ax,Ay,Az,Gx,Gy,Gz,Roll,Pitch,Yaw,Timestamp,Target
-1216,6812,14760,-128,-692,-350,20000,5000,354000,498521,
-1224,6720,14852,-77,-659,-313,20000,5000,354000,498523,
-1200,6824,14560,-114,-441,-246,20000,5000,353000,498535,
-1108,6780,14676,-60,-429,-196,20000,5000,353000,498538,
-616,7340,14688,-54,-230,-350,20000,4000,353000,498568,
-640,7356,14584,-77,-182,-347,20000,4000,353000,498570,
-600,7360,14736,-87,-152,-359,20000,4000,353000,498573,
-644,7300,14844,-128,87,-329,20000,4000,353000,498585,
-872,7312,14724,-75,133,-323,20000,4000,353000,498587,
-996,7340,14668,-125,137,-303,20000,4000,353000,498589,
-1388,7188,14684,-101,155,-186,20000,4000,353000,498602,
-1500,7192,14740,-97,110,-107,20000,4000,353000,498604,
-1488,7244,14832,-124,62,-104,20000,4000,353000,498606,
-1364,7208,14516,-148,-285,20,20000,4000,353000,498619,
-1292,7148,14380,-146,-279,57,20000,4000,353000,498621,
-1276,7180,14504,-111,-286,55,20000,4000,353000,498623,
-1020,7188,14340,-247,-117,277,20000,4000,353000,498635,
-928,7112,14416,-212,-119,296,20000,4000,353000,498638,
-884,7272,14408,-263,-114,322,20000,4000,353000,498640,
-504,7220,14236,-283,-36,238,20000,4000,353000,498652,
-404,7260,14236,-299,-15,205,20000,4000,353000,498655,
-404,7220,14232,-343,39,175,20000,4000,353000,498657,
-136,7372,14300,-288,249,-46,20000,4000,353000,498669,
-64,7316,14300,-296,349,-74,20000,4000,353000,498671,
-1084,7332,14340,-588,838,-124,20000,5000,353000,498707,
-1192,7304,14284,-588,733,-62,20000,5000,353000,498709,
-1396,7152,14368,-642,686,-56,20000,5000,353000,498711,
-1508,7140,14496,-660,252,80,20000,5000,354000,498724,
-1564,7100,14484,-682,163,110,20000,5000,354000,498726,
-1648,7236,14480,-671,130,147,20000,5000,354000,498728,
-1152,7260,14464,-728,-207,241,20000,5000,354000,498741,
-1092,7176,14496,-696,-215,231,20000,5000,354000,498743,
-1088,7272,14512,-682,-267,263,20000,5000,354000,498745,
-668,7420,14740,-694,-269,235,20000,5000,354000,498757,
-604,7468,14572,-684,-296,186,20000,4000,354000,498760,
-324,7408,14720,-699,-278,152,20000,4000,354000,498762,
-216,7800,14804,-649,-162,-189,20000,4000,354000,498774,
-196,7832,14732,-668,-150,-234,20000,4000,354000,498777,
-140,7788,14776,-671,-128,-295,20000,4000,354000,498779,
-368,7756,14860,-685,-122,-570,20000,4000,353000,498791,
-432,7744,14860,-719,-124,-631,20000,4000,353000,498793,
-384,7672,14840,-659,-176,-651,20000,4000,353000,498796,
-764,7264,14696,-651,-188,-758,20000,4000,353000,498808,
-820,7064,14664,-581,-144,-728,20000,4000,353000,498810,
-1276,6760,14228,-809,1055,238,20000,5000,354000,498849,
-1320,6816,14540,-850,1076,250,20000,5000,354000,498852,
-1296,6760,14276,-802,1057,282,20000,5000,354000,498854,
-1304,7108,14596,-900,846,246,20000,5000,354000,498866,
-1192,7248,14644,-856,837,190,20000,5000,354000,498868,
-1316,7096,14620,-924,783,222,20000,5000,354000,498871,
-1028,7300,14660,-942,856,251,20000,5000,354000,498883,
-968,7192,14656,-953,869,276,20000,5000,354000,498885,
-984,7252,14752,-992,900,282,20000,5000,354000,498888,
-1160,7072,14644,-1069,1323,403,19000,5000,354000,498900,
-1196,6932,14636,-1099,1380,483,19000,5000,354000,498902,
-1300,7004,14716,-1091,1465,473,19000,5000,354000,498904,
-1544,6812,14664,-1177,1436,702,19000,5000,354000,498917,
-1780,6860,14868,-1160,1419,720,19000,5000,354000,498919,
-1864,6924,14876,-1122,1278,751,19000,5000,354000,498921,
-1688,7020,15116,-1078,614,759,19000,5000,354000,498934,
-1580,6992,15200,-1064,443,779,19000,5000,354000,498936,
-1528,7080,15128,-1061,323,710,19000,5000,354000,498938,
-968,7332,15304,-994,-82,476,19000,5000,354000,498950,
-876,7360,15272,-1005,-79,427,19000,5000,354000,498953,
-1000,7116,15408,-787,752,-93,19000,5000,354000,498992,
-1184,6952,15524,-728,684,-70,19000,5000,354000,498994,
-1316,6940,15596,-737,642,-67,19000,5000,354000,498996,
-1624,6824,15456,-589,215,4,19000,5000,354000,499009,
-1544,6780,15348,-590,122,2,19000,5000,354000,499011,
-1656,6672,15392,-539,97,19,19000,5000,354000,499013,
-1640,6740,15516,-502,-21,66,19000,5000,354000,499015,
-1228,6716,15264,-458,-240,264,19000,5000,354000,499028,
-1280,6644,15292,-422,-288,286,19000,5000,354000,499030,
-1268,6768,15228,-453,-294,340,19000,5000,354000,499032,
-928,6888,15124,-471,-187,335,19000,5000,354000,499045,
-704,6940,15148,-534,-179,313,19000,5000,354000,499047,
-620,7020,15292,-523,-154,272,19000,5000,354000,499049,
-432,7104,15084,-567,32,170,19000,5000,354000,499062,
-328,7140,15180,-543,172,89,19000,5000,354000,499064,
-304,7260,15152,-505,249,97,19000,5000,354000,499066,
-212,7244,15220,-548,960,-150,19000,5000,354000,499078,
-200,7236,15284,-558,1021,-112,19000,5000,354000,499081,
-348,7308,15200,-591,1126,-165,19000,5000,354000,499083,
-1164,6960,15284,-528,1474,-178,19000,5000,354000,499095,
-1968,6828,15484,-219,-491,-55,19000,5000,354000,499128,
-1796,6948,15336,-196,-599,-66,19000,5000,354000,499130,
-1708,6956,15320,-162,-756,-43,19000,5000,354000,499133,
-920,6936,15072,-138,-811,-54,19000,5000,354000,499145,
-844,7020,15112,-148,-782,-38,19000,5000,354000,499147,
-796,6908,15088,-147,-693,7,19000,5000,354000,499149,
-728,7060,15092,-147,-81,52,19000,5000,354000,499162,
-556,7052,15136,-175,31,31,19000,5000,354000,499164,
-712,7088,15076,-183,166,49,19000,5000,354000,499166,
-612,7128,14928,-148,276,23,19000,5000,354000,499168,
-664,7200,14868,-180,812,-68,19000,5000,354000,499181,
-652,7160,14940,-157,852,-78,19000,5000,354000,499183,
-816,7144,14820,-194,920,-107,19000,5000,354000,499185,
-1192,7092,14732,-234,1162,-88,19000,5000,354000,499198,
-1308,7092,14908,-243,1123,-74,19000,5000,354000,499200,
-1380,7080,14828,-261,1129,-69,19000,5000,354000,499202,
-1620,7144,14716,-210,716,-47,19000,5000,354000,499214,
-1556,7160,14696,-257,642,-80,19000,5000,354000,499217,
-1608,7120,14880,-210,550,-76,19000,5000,354000,499219,
-1588,7100,14916,-278,50,11,19000,5000,354000,499231,
-524,7176,14584,-294,-264,48,19000,5000,354000,499273,
-432,7320,14508,-338,-190,-16,19000,5000,354000,499275,
-416,7240,14488,-328,-139,-51,19000,5000,354000,499278,
-516,7172,14512,-419,275,-166,19000,5000,354000,499290,
-512,7188,14436,-358,361,-165,19000,5000,354000,499292,
-580,7056,14304,-398,433,-125,19000,5000,354000,499294,
-844,7288,14612,-430,837,-34,19000,5000,354000,499307,
-876,7288,14616,-452,839,-5,19000,5000,354000,499309,
-1020,7364,14656,-485,892,-3,19000,5000,354000,499311,
-1232,7368,14564,-510,1039,112,19000,5000,355000,499324,
-1228,7352,14480,-547,1021,127,19000,5000,355000,499326,
-1244,7272,14536,-578,1043,134,19000,5000,355000,499328,
-1316,7244,14548,-547,874,216,19000,6000,355000,499340,
-1228,7184,14524,-553,884,178,19000,6000,355000,499343,
-1188,7296,14560,-519,845,187,19000,6000,355000,499345,
-820,7536,14476,-592,707,66,19000,6000,355000,499357,
-764,7664,14456,-494,669,12,19000,6000,355000,499359,
-620,7528,14448,-550,683,-22,19000,6000,355000,499362,
-548,7716,14348,-558,1076,-229,19000,6000,355000,499374,
-552,7724,14400,-563,1160,-200,19000,6000,355000,499376,
-1176,7728,13988,-570,907,-523,19000,6000,355000,499416,
-1220,7568,13932,-523,809,-461,19000,6000,355000,499419,
-1212,7556,14144,-522,743,-488,19000,6000,355000,499421,
-932,7480,13704,-468,546,-548,19000,6000,355000,499433,
-856,7388,13716,-517,546,-556,19000,6000,355000,499436,
-864,7496,13592,-507,585,-611,19000,6000,355000,499438,
-288,7772,13512,-479,730,-808,19000,6000,355000,499450,
-300,7816,13412,-505,840,-911,19000,6000,355000,499452,
40,7884,13584,-436,857,-926,19000,6000,355000,499455,
140,7932,13188,-590,1672,-1154,19000,6000,354000,499467,
116,7864,13228,-599,1823,-1147,19000,6000,354000,499469,
92,7944,13088,-637,1998,-1105,19000,6000,354000,499471,
-420,7596,12900,-708,2842,-1098,19000,7000,354000,499484,
-500,7608,12944,-763,2969,-1073,19000,7000,354000,499486,
-568,7564,12892,-763,3102,-1078,19000,7000,354000,499488,
-1124,7192,12304,-847,3129,-987,19000,7000,355000,499501,
-1116,7216,12236,-852,3113,-987,19000,7000,355000,499503,
-1192,7112,12172,-832,3051,-976,19000,7000,355000,499505,
-1204,7016,11788,-973,2751,-857,19000,7000,355000,499517,
-1176,6948,11668,-930,2670,-829,19000,7000,355000,499520,
28,6700,10096,-1402,3196,92,19000,8000,355000,499561,
232,6712,10056,-1372,3391,166,19000,8000,355000,499563,
264,6752,9820,-1452,3481,226,19000,8000,355000,499565,
1152,6752,9032,-1498,3710,652,19000,8000,355000,499577,
1352,6744,8576,-1581,3848,528,19000,9000,355000,499580,
1224,6704,8400,-1708,3967,456,19000,9000,355000,499582,
1136,6284,7164,-2246,4307,640,19000,9000,355000,499594,
1068,6048,7028,-2362,4358,687,19000,9000,356000,499597,
1296,5988,6828,-2473,4454,700,19000,9000,356000,499599,
1536,5116,6184,-3032,4659,916,19000,9000,356000,499611,
1612,4976,6180,-3179,4737,916,19000,9000,356000,499613,
1596,4932,5944,-3275,4743,937,19000,9000,356000,499616,
1948,4464,5776,-3982,5066,665,19000,10000,356000,499628,
2180,4392,5836,-4031,5089,657,18000,10000,356000,499630,
2180,4448,5676,-4163,5166,667,18000,10000,356000,499632,
2860,3952,5296,-4719,6063,529,18000,10000,356000,499645,
2880,3920,5192,-4843,6326,541,18000,10000,357000,499647,
2948,3872,5216,-4955,6592,553,18000,10000,357000,499649,
2184,3032,4664,-5634,8240,691,18000,11000,357000,499662,
1992,2852,4700,-5786,8588,718,18000,11000,357000,499664,
-1280,-252,5832,-7121,9177,1597,15000,13000,358000,499700,
-1484,-284,5900,-7248,8933,1648,15000,13000,358000,499703,
-1472,-236,5956,-7421,8639,1720,15000,13000,358000,499705,
-2576,-404,6920,-8475,6979,1724,14000,14000,359000,499717,
-2624,-336,7264,-8734,6667,1665,14000,14000,359000,499720,
-2680,-300,7440,-8998,6359,1567,14000,14000,359000,499722,
-3956,-16,9128,-10110,4041,916,13000,15000,359000,499734,
-4216,32,9312,-10298,3615,826,13000,15000,359000,499736,
-4128,-108,9768,-10499,3126,724,13000,15000,359000,499739,
-4428,-116,11220,-11159,911,254,12000,15000,359000,499751,
-4316,-412,11600,-11212,758,241,11000,15000,359000,499753,
-4444,-376,11940,-11214,653,223,11000,15000,359000,499756,
-4440,-1636,13720,-11019,2068,101,10000,15000,359000,499768,
-4428,-1876,13828,-10887,2489,242,10000,15000,359000,499770,
-4432,-2128,13856,-10779,2946,340,10000,15000,359000,499772,
-4600,-1884,14784,-10232,5948,907,9000,16000,359000,499785,
-4572,-1672,14644,-10263,6628,978,8000,16000,359000,499787,
-4612,-1200,14776,-10314,7403,998,8000,16000,359000,499789,
-5520,416,15328,-10468,10988,461,7000,17000,359000,499802,
-5568,592,15324,-10554,11449,269,7000,17000,359000,499804,
-10292,968,18132,-10373,9796,-2551,4000,20000,359000,499838,
-10748,760,18588,-10300,9372,-2719,4000,20000,359000,499840,
-10964,724,18688,-10199,8832,-2860,4000,20000,359000,499843,
-11644,1320,20496,-9898,6760,-3309,3000,21000,359000,499855,
-11632,1656,20968,-9753,6452,-3271,3000,21000,359000,499857,
-11736,2028,21140,-9681,6197,-3268,2000,21000,358000,499860,
-11724,2916,22200,-9053,5374,-3166,1000,22000,358000,499872,
-11712,3032,22312,-8909,5339,-3189,1000,22000,358000,499874,
-11668,3088,22160,-8799,5366,-3250,1000,22000,358000,499876,
-11232,3352,21832,-8257,5104,-3346,0,23000,358000,499889,
-11028,3556,21664,-8220,5076,-3392,0,23000,358000,499891,
-10996,3616,21784,-8134,4997,-3389,0,23000,358000,499893,
-10548,3968,21824,-8031,4340,-3551,0,23000,357000,499906,
-10596,4008,21916,-7941,4159,-3596,0,23000,357000,499908,
-10904,4004,21784,-7918,3972,-3623,0,23000,357000,499910,
-11112,4048,22340,-7780,2942,-3891,-1000,24000,357000,499923,
-11296,4116,22492,-7718,2606,-3838,-1000,24000,357000,499925,
-11312,4056,22628,-7691,2331,-3841,-1000,24000,357000,499927,
-11400,3456,23376,-7006,1333,-3578,-2000,24000,356000,499940,
-11192,3340,23272,-6894,1238,-3618,-2000,24000,356000,499942,
-10648,2852,22956,-5936,1093,-3268,-3000,24000,356000,499954,
-10180,2728,21480,-5068,1736,-2920,-4000,24000,355000,499971,
-10048,2780,21200,-5033,1769,-2935,-4000,24000,355000,499973,
-9956,2720,21136,-4911,1762,-2884,-4000,24000,355000,499975,
-9404,3032,20144,-4824,1537,-2941,-4000,24000,355000,499988,
-9392,2988,20124,-4786,1361,-2918,-4000,24000,355000,499990,
-9304,3100,19936,-4789,1216,-2945,-5000,24000,355000,499992,
-9672,2940,17752,-5093,-170,-2879,-5000,24000,355000,500005,
-9744,2512,17968,-5249,-394,-2779,-5000,24000,355000,500007,
-9484,2316,19740,-5092,-788,-2784,-5000,24000,355000,500009,
-9072,2088,25920,-4302,-4989,-2723,-6000,24000,354000,500021,
-9948,2416,24144,-4189,-5417,-2725,-6000,24000,354000,500024,
-13528,696,25236,-4068,-5725,-1983,-6000,23000,354000,500036,
-13036,404,25696,-3831,-5876,-1446,-6000,23000,354000,500038,
-11480,612,25484,-3704,-5904,-1352,-6000,23000,354000,500041,
-10328,204,25636,-3120,-4822,-575,-7000,23000,354000,500053,
-10108,112,25396,-2995,-4373,-380,-7000,23000,354000,500055,
-9768,256,25316,-2959,-3827,-277,-7000,22000,354000,500057,
-9332,32,24280,-2639,-1621,395,-7000,22000,354000,500070,
-9288,-132,24144,-2629,-1336,568,-7000,22000,354000,500072,
-9560,-128,23880,-2650,-1043,757,-7000,22000,354000,500074,
-10148,-984,22560,-2499,-3478,2898,-7000,21000,355000,500108,
-10048,-1024,22280,-2474,-3803,3069,-7000,21000,355000,500110,
-9912,-1172,22148,-2397,-4140,3197,-7000,21000,356000,500113,
-8604,-1208,21176,-2342,-5355,4013,-7000,21000,356000,500125,
-8312,-1052,21036,-2198,-5453,4108,-7000,21000,356000,500127,
-8108,-1268,21020,-2142,-5497,4156,-7000,21000,356000,500130,
-7320,-540,19172,-2127,-4906,4714,-7000,20000,357000,500142,
-7084,-288,18712,-2228,-4655,4779,-7000,20000,357000,500144,
-7092,-60,18264,-2440,-4314,4865,-7000,20000,357000,500146,
-6688,16,17336,-3090,-2026,4953,-7000,20000,358000,500159,
-6940,-88,17520,-3118,-1581,4999,-7000,20000,358000,500161,
-7256,-184,17404,-3077,-1118,5086,-7000,20000,358000,500163,
-9008,-36,17812,-3331,1224,6097,-7000,20000,358000,500176,
-9256,8,18328,-3285,1502,6286,-7000,20000,358000,500178,
-9432,80,18728,-3203,1649,6473,-7000,20000,359000,500180,
-10284,864,19604,-2962,1443,7137,-7000,21000,359000,500193,
-10492,1080,19792,-2914,1284,7207,-7000,21000,359000,500195,
-11112,2108,21564,-2370,376,7537,-7000,21000,0,500207,
-11148,2272,21752,-2206,246,7600,-7000,21000,0,500210,
-11136,2376,22052,-2039,193,7671,-7000,21000,0,500212,
-10800,5440,20084,-608,7582,9990,-5000,24000,4000,500259,
-11072,5540,20140,-625,7876,10061,-5000,24000,4000,500261,
-11488,5484,20204,-513,8180,10094,-5000,25000,5000,500264,
-14936,5088,20740,-164,8146,10096,-5000,26000,6000,500276,
-15288,5032,20880,-117,7744,10310,-5000,26000,6000,500278,
-15664,4796,20944,38,7255,10503,-4000,26000,6000,500280,
-18508,5220,22520,894,2618,12193,-4000,26000,7000,500293,
-18236,5232,22380,1006,2204,12375,-4000,26000,8000,500295,
-17164,3880,22088,937,1188,12626,-3000,26000,8000,500297,
-21164,5840,23144,2684,-3162,12845,-2000,26000,9000,500310,
-20884,5340,21984,2792,-3969,13028,-2000,26000,9000,500312,
-18920,5068,22204,2923,-4408,13008,-2000,26000,10000,500314,
-17496,4808,20368,4368,-7364,14198,-1000,26000,11000,500326,
-17132,4480,20164,4609,-7984,14427,-1000,25000,12000,500329,
-16528,4272,19768,4902,-8674,14624,-1000,25000,12000,500331,
-13740,3708,17260,5811,-11198,15136,0,24000,13000,500343,
-13308,3620,17076,5959,-11507,15052,0,24000,14000,500346,
-12924,3576,16432,6079,-11754,15071,0,24000,14000,500348,
-10276,3820,14496,6061,-12234,14263,1000,23000,16000,500360,
-9924,3884,14004,6015,-12204,14164,2000,23000,16000,500362,
-9560,3928,13800,5996,-12120,14003,2000,22000,16000,500365,
-6216,1460,12972,4687,-8636,11336,5000,20000,20000,500404,
-6092,1536,12892,4696,-8506,11239,5000,19000,20000,500406,
-5756,1328,12636,4751,-8345,11096,5000,19000,20000,500409,
-4248,984,12168,4801,-7364,10237,6000,19000,21000,500421,
-4084,1048,12252,4879,-7208,10093,6000,18000,21000,500423,
-3736,1148,12272,4839,-7011,9910,6000,18000,21000,500426,
-2104,2288,11440,4723,-5446,8872,7000,18000,22000,500438,
-2096,2392,11104,4595,-5112,8707,7000,17000,22000,500440,
-2136,2580,10948,4509,-4812,8604,7000,17000,22000,500442,
-2784,1708,9796,4224,-3466,8090,8000,17000,23000,500455,
-3060,1704,9580,4139,-3342,7986,8000,17000,23000,500457,
-3192,1420,9244,4174,-3272,7912,8000,17000,23000,500459,
-4192,812,8760,4386,-4525,7409,8000,16000,24000,500472,
-4260,884,8452,4373,-4954,7297,9000,16000,24000,500474,
-4480,804,8048,4293,-5478,7186,9000,16000,24000,500476,
-5124,824,8440,4420,-8868,6773,9000,15000,25000,500488,
-4988,728,8100,4439,-9506,6669,9000,15000,25000,500491,
-4980,624,8252,4423,-10055,6612,9000,15000,25000,500493,
-4208,-292,8588,4603,-12479,6298,10000,14000,25000,500505,
-3996,-336,8516,4607,-12863,6318,10000,14000,25000,500507,
-3676,-520,8496,4680,-12904,6356,10000,13000,25000,500510,
720,5812,5576,2733,-3667,6771,12000,11000,28000,500552,
644,5884,5568,2526,-3165,6705,12000,11000,28000,500554,
664,5984,5660,2250,-2784,6607,12000,11000,28000,500556,
268,5768,6956,1402,-1974,5348,13000,11000,28000,500569,
84,5668,7060,1217,-1964,5085,13000,11000,28000,500571,
-300,5584,6892,1047,-1944,4822,13000,11000,28000,500573,
-756,4480,6948,423,-1898,4040,13000,10000,29000,500586,
-584,4144,6896,297,-1912,3989,13000,10000,29000,500588,
-356,4196,7008,183,-1886,3868,13000,10000,29000,500590,
28,3532,7028,-427,-1651,3699,13000,10000,29000,500602,
76,3500,7144,-547,-1539,3651,13000,10000,29000,500605,
104,3632,7064,-679,-1445,3640,13000,10000,29000,500607,
664,4328,7152,-1640,-1358,3211,13000,10000,30000,500619,
1416,4744,7132,-1825,-1511,3031,13000,10000,30000,500622,
1900,4956,7256,-2064,-1658,2708,13000,9000,30000,500624,
4924,5940,9112,-3178,-2920,398,13000,9000,30000,500636,
5260,6092,9220,-3373,-2889,-218,13000,9000,30000,500638,
5524,6020,9252,-3560,-2760,-775,13000,9000,30000,500641,
4196,2868,11576,-4094,-1168,-2037,12000,9000,29000,500653,
3864,2220,11788,-4065,-863,-2037,12000,9000,29000,500655,
4600,-1344,14372,-2681,-11450,-92,11000,3000,28000,500713,
5208,-1352,14568,-2870,-11326,253,11000,3000,28000,500715,
5960,-1400,14392,-3109,-11092,502,10000,2000,28000,500718,
7052,-2716,15544,-3565,-8345,1961,10000,1000,28000,500730,
7148,-2784,15640,-3658,-7760,2364,10000,1000,28000,500732,
7356,-2764,16032,-3672,-7230,2740,10000,1000,28000,500734,
7748,-2700,17236,-3927,-4606,4936,9000,0,29000,500747,
7764,-2620,16960,-3888,-4250,5224,9000,0,29000,500749,
7848,-2456,17232,-3896,-3903,5511,9000,0,29000,500751,
8668,-1940,17812,-3897,-2515,6189,9000,0,29000,500763,
8808,-1860,17700,-3911,-2392,6303,9000,0,29000,500766,
8824,-1816,17736,-3872,-2273,6390,9000,0,30000,500768,
9028,-756,17932,-3484,-1801,7100,8000,0,30000,500780,
9312,-508,17796,-3441,-1654,7227,8000,0,30000,500783,
9432,-476,17560,-3327,-1547,7281,8000,0,30000,500785,
9492,-228,17652,-3324,-1380,7392,8000,0,31000,500787,
