Ax,Ay,Az,Gx,Gy,Gz,Roll,Pitch,Yaw,Timestamp,Target
-2940,-4296,15664,-1047,-444,-252,-23000,10000,79000,561858,
-2932,-4576,15672,-974,-818,7,-23000,10000,79000,561871,
-2824,-4508,15696,-955,-875,54,-23000,10000,79000,561873,
-2820,-4684,15932,-897,-932,89,-23000,10000,79000,561875,
-2128,-4752,15988,-799,-1262,365,-23000,10000,79000,561888,
-1872,-4728,15972,-756,-1305,382,-23000,10000,79000,561890,
-1748,-4636,15912,-793,-1331,407,-23000,10000,79000,561893,
-1304,-4580,15900,-764,-1104,430,-23000,10000,79000,561905,
-1324,-4680,16076,-859,-1029,481,-23000,10000,79000,561908,
-1192,-4628,15888,-819,-907,468,-23000,10000,79000,561910,
-1108,-4432,16020,-588,-539,307,-23000,10000,79000,561923,
-1004,-4420,16032,-542,-407,253,-23000,9000,79000,561925,
-1000,-4340,16100,-461,-358,241,-23000,9000,79000,561928,
-1284,-4248,15880,-546,90,71,-23000,9000,79000,561940,
-1284,-4376,15920,-517,125,76,-23000,9000,79000,561943,
-1440,-4400,15920,-524,194,77,-23000,9000,79000,561945,
-1428,-4640,15804,-406,476,153,-23000,9000,79000,561958,
-1636,-4728,15704,-411,530,163,-23000,9000,79000,561960,
-1492,-4668,15836,-402,632,152,-23000,9000,79000,561963,
-1724,-4608,15936,-309,822,181,-23000,10000,79000,561975,
-1828,-4696,15784,-306,899,173,-23000,10000,79000,561978,
-1724,-4680,15856,-240,904,170,-23000,10000,79000,561980,
-1976,-4548,15960,-263,1036,201,-23000,10000,79000,561993,
-1940,-4540,15824,-294,978,253,-23000,10000,79000,561995,
-2052,-4452,15700,-289,995,218,-23000,10000,79000,561997,
-2008,-4556,15868,-237,1107,162,-23000,10000,79000,562010,
-2012,-4456,15748,-274,1123,185,-23000,10000,79000,562013,
-2092,-4520,15932,-246,984,64,-23000,10000,79000,562025,
-2348,-4560,15904,-291,955,58,-23000,10000,79000,562028,
-2372,-4556,15816,-233,957,18,-23000,10000,79000,562030,
-2412,-4528,15900,-302,768,4,-23000,10000,79000,562043,
-2664,-4564,15848,-228,717,42,-23000,10000,79000,562045,
-2604,-4572,15880,-273,638,49,-23000,10000,79000,562047,
-2608,-4448,15788,-254,362,237,-23000,10000,79000,562060,
-2484,-4512,15716,-357,326,269,-23000,10000,79000,562063,
-2484,-4384,15772,-326,348,302,-23000,10000,79000,562065,
-2172,-4524,15996,-373,266,415,-23000,10000,79000,562078,
-2032,-4372,15996,-380,248,405,-23000,10000,79000,562080,
-1888,-4472,16056,-311,216,405,-23000,10000,79000,562082,
-1664,-4508,15952,-308,346,205,-23000,10000,79000,562095,
-1844,-4452,16032,-328,396,156,-23000,10000,79000,562097,
-1772,-4428,15864,-360,399,129,-23000,10000,79000,562100,
-2012,-4388,15924,-369,438,-24,-22000,10000,79000,562112,
-2056,-4380,15864,-411,450,-42,-22000,10000,79000,562115,
-2204,-4380,15752,-350,491,-31,-22000,10000,79000,562117,
-2260,-4504,15628,-442,437,123,-22000,10000,79000,562130,
-2448,-4428,15812,-423,449,113,-22000,10000,79000,562132,
-2288,-4496,15876,-406,431,154,-22000,10000,79000,562135,
-2224,-4548,15924,-346,394,249,-22000,10000,79000,562147,
-2292,-4408,15772,-355,326,309,-22000,10000,79000,562150,
-2108,-4496,15940,-345,336,315,-22000,10000,79000,562152,
-1972,-4444,15740,-315,430,444,-22000,10000,79000,562165,
-1752,-4568,15880,-315,503,428,-22000,10000,79000,562167,
-1792,-4540,15796,-259,541,405,-22000,10000,79000,562169,
-1540,-4452,15852,-222,830,385,-22000,10000,79000,562182,
-1584,-4512,15856,-210,909,388,-22000,10000,79000,562185,
-1688,-4568,15992,-277,955,342,-22000,10000,79000,562187,
-2004,-4396,15968,-325,1223,227,-22000,10000,79000,562200,
-2092,-4388,15772,-380,1236,196,-22000,10000,79000,562202,
-2160,-4436,15776,-317,1211,188,-22000,10000,79000,562204,
-2580,-4416,15676,-387,1103,324,-22000,10000,79000,562217,
-2516,-4356,15772,-321,1046,383,-22000,10000,79000,562219,
-2568,-4384,15704,-389,1009,394,-22000,11000,79000,562222,
-2328,-4492,15980,-337,891,433,-22000,11000,79000,562235,
-2316,-4408,15896,-364,890,390,-22000,11000,79000,562237,
-2264,-4336,16132,-373,917,378,-22000,11000,79000,562239,
-2304,-4368,16016,-485,806,200,-22000,11000,79000,562252,
-2332,-4396,15844,-537,806,150,-22000,11000,79000,562254,
-2476,-4336,15920,-507,733,135,-22000,11000,79000,562257,
-2788,-4332,15908,-581,458,63,-22000,11000,79000,562270,
-2804,-4428,15816,-574,324,80,-22000,11000,79000,562272,
-2908,-4404,15860,-588,249,127,-22000,11000,79000,562274,
-3092,-4476,15888,-616,-202,219,-22000,11000,79000,562287,
-3044,-4416,15992,-643,-258,229,-22000,11000,79000,562289,
-2892,-4392,15784,-588,-278,252,-22000,11000,79000,562292,
-2400,-4332,15812,-622,-517,329,-22000,11000,79000,562305,
-2340,-4532,15880,-530,-571,294,-22000,11000,79000,562307,
-2128,-4360,15776,-580,-555,271,-22000,11000,79000,562309,
-1744,-4468,15872,-554,-399,200,-22000,11000,79000,562322,
-1700,-4456,15820,-589,-316,186,-22000,11000,79000,562324,
-1712,-4492,15896,-580,-224,120,-22000,11000,79000,562327,
-1748,-4440,15752,-525,67,106,-22000,11000,79000,562340,
-1916,-4564,15804,-497,140,88,-22000,11000,79000,562342,
-1928,-4532,15832,-494,149,44,-22000,11000,79000,562344,
-2268,-4492,15824,-390,327,107,-22000,11000,79000,562357,
-2336,-4576,16000,-384,291,141,-22000,11000,79000,562359,
-2372,-4472,15972,-365,257,158,-22000,11000,79000,562362,
-2500,-4328,15992,-392,128,189,-22000,11000,79000,562375,
-2560,-4480,15832,-413,114,164,-22000,11000,79000,562377,
-2428,-4352,15960,-326,70,152,-22000,11000,79000,562379,
-2248,-4300,15840,-399,4,127,-22000,11000,79000,562392,
-2224,-4496,15792,-353,-51,85,-22000,11000,79000,562394,
-2404,-4448,15808,-385,-64,117,-22000,11000,79000,562397,
-2308,-4372,15824,-362,-24,94,-22000,11000,79000,562410,
-2240,-4528,15716,-353,12,49,-22000,11000,79000,562412,
-2212,-4516,15856,-347,66,59,-22000,11000,79000,562414,
-2204,-4472,15772,-301,28,117,-22000,11000,79000,562427,
-2160,-4432,15708,-257,47,117,-22000,11000,79000,562429,
-2220,-4408,15772,-298,24,95,-22000,11000,79000,562432,
-2168,-4512,15980,-262,137,110,-22000,10000,80000,562445,
-2176,-4368,15916,-280,108,124,-22000,10000,80000,562447,
-2152,-4388,15992,-290,110,155,-22000,10000,80000,562449,
-2232,-4424,15736,-382,39,283,-22000,10000,80000,562462,
-2104,-4444,15800,-374,94,229,-22000,10000,80000,562464,
-2180,-4384,15840,-297,123,238,-22000,10000,80000,562467,
-1900,-4372,15716,-290,305,90,-22000,10000,80000,562480,
-2156,-4204,15784,-287,262,61,-22000,10000,80000,562482,
-2108,-4348,15916,-381,273,25,-22000,10000,80000,562484,
-2148,-4400,15664,-382,342,43,-22000,11000,80000,562497,
-2108,-4356,15768,-392,391,24,-22000,11000,80000,562499,
-2176,-4436,15720,-363,437,24,-22000,11000,80000,562502,
-2180,-4388,15840,-358,494,67,-22000,11000,80000,562514,
-2156,-4460,15744,-312,514,44,-22000,11000,80000,562517,
-2192,-4416,15784,-304,486,50,-22000,11000,80000,562519,
-2352,-4340,16012,-296,500,26,-22000,11000,80000,562532,
-2336,-4472,16240,-285,553,72,-22000,11000,80000,562534,
-2336,-4400,16316,-189,682,43,-22000,11000,80000,562537,
-2256,-4320,15620,-462,291,160,-22000,11000,80000,562550,
-2384,-4316,15560,-462,222,106,-22000,11000,80000,562552,
-2308,-4300,15620,-382,154,117,-22000,11000,80000,562554,
-2328,-4396,15976,-286,610,206,-22000,11000,80000,562567,
-2152,-4352,15860,-278,643,268,-22000,11000,80000,562569,
-2192,-4348,15776,-311,658,301,-22000,11000,80000,562572,
-1900,-4356,15788,-302,510,299,-22000,11000,80000,562584,
-1884,-4380,15976,-313,572,296,-22000,11000,80000,562587,
-1904,-4456,15856,-263,623,258,-22000,11000,80000,562589,
-2052,-4404,16020,-350,945,254,-22000,11000,80000,562602,
-2072,-4404,15932,-309,938,245,-22000,11000,80000,562604,
-2088,-4360,15868,-375,967,273,-22000,11000,80000,562607,
-2432,-4276,15812,-294,988,73,-22000,11000,80000,562620,
-2464,-4144,15888,-343,970,81,-22000,11000,80000,562622,
-2624,-4248,15872,-357,923,50,-22000,11000,80000,562624,
-2920,-4356,15780,-466,620,102,-22000,11000,80000,562637,
-2948,-4356,15812,-465,637,112,-22000,11000,80000,562639,
-2964,-4332,15828,-407,526,131,-22000,11000,80000,562642,
-2708,-4440,15796,-407,348,157,-22000,11000,80000,562654,
-2664,-4372,15800,-385,274,149,-22000,11000,80000,562657,
-2508,-4440,15816,-425,225,157,-22000,11000,80000,562659,
-2192,-4448,16020,-378,188,48,-22000,11000,80000,562672,
-2208,-4300,16044,-391,222,47,-22000,11000,80000,562674,
-2208,-4296,15844,-404,316,4,-22000,11000,80000,562677,
-2080,-4384,15984,-453,382,43,-22000,11000,80000,562690,
-2136,-4380,15884,-393,422,28,-22000,11000,80000,562692,
-2204,-4312,15928,-390,407,34,-22000,11000,80000,562694,
-2580,-4452,15872,-446,458,14,-22000,11000,80000,562707,
-2616,-4468,15816,-443,432,35,-22000,11000,80000,562709,
-2468,-4408,15820,-499,383,-2,-22000,11000,80000,562712,
-2644,-4352,16044,-468,176,-23,-22000,11000,80000,562724,
-2680,-4276,15860,-505,142,-14,-22000,11000,80000,562727,
-2716,-4252,15840,-496,129,-20,-22000,11000,80000,562729,
-2460,-4300,15996,-588,-61,33,-22000,11000,80000,562742,
-2448,-4264,15896,-581,-23,18,-22000,11000,80000,562745,
-2292,-4184,15880,-592,-73,18,-22000,11000,80000,562747,
-2280,-4276,15908,-625,-65,-1,-22000,11000,80000,562760,
-2368,-4392,15800,-667,-39,8,-22000,11000,80000,562762,
-2220,-4260,15804,-659,3,-41,-22000,11000,80000,562764,
-2352,-4404,15916,-711,-62,-114,-22000,11000,80000,562777,
-2524,-4416,15732,-689,-10,-100,-22000,11000,80000,562780,
-2552,-4448,15796,-621,-55,-156,-22000,11000,80000,562782,
-2652,-4460,16028,-612,-258,-239,-22000,11000,80000,562795,
-2712,-4296,16040,-590,-344,-253,-22000,11000,80000,562797,
-2676,-4412,16060,-629,-401,-232,-22000,11000,80000,562800,
-2680,-4212,16056,-743,-753,-281,-22000,11000,80000,562812,
-2616,-4192,15956,-773,-818,-250,-22000,11000,80000,562815,
-2584,-4216,15836,-772,-836,-311,-22000,11000,80000,562817,
-2524,-4300,15720,-800,-1005,-324,-22000,11000,80000,562830,
-2488,-4512,15796,-798,-977,-344,-22000,11000,80000,562832,
-2580,-4412,15820,-763,-1085,-357,-22000,11000,80000,562835,
-2328,-4532,15832,-709,-1071,-462,-22000,10000,80000,562848,
-2300,-4464,15820,-693,-1125,-473,-22000,10000,80000,562850,
-2232,-4504,15776,-714,-1081,-502,-22000,10000,80000,562853,
-2256,-4632,16012,-612,-1116,-645,-22000,10000,80000,562865,
-2184,-4656,15920,-557,-1078,-673,-22000,10000,80000,562868,
-2240,-4600,15836,-531,-1178,-704,-22000,10000,80000,562870,
-2516,-4536,15968,-501,-1386,-809,-22000,10000,80000,562883,
-2428,-4524,16128,-543,-1486,-815,-22000,10000,80000,562885,
-2576,-4612,15988,-576,-1562,-852,-22000,10000,80000,562888,
-2696,-4704,15888,-901,-2332,-782,-22000,10000,80000,562901,
-2612,-4804,16072,-865,-2362,-736,-22000,10000,80000,562903,
-2604,-4560,16112,-738,-2394,-695,-22000,10000,80000,562905,
-2292,-4304,15928,-585,-2657,-522,-22000,9000,80000,562918,
-2276,-4268,15708,-646,-2771,-537,-22000,9000,80000,562921,
-1908,-4136,15948,-898,-2744,-529,-22000,9000,80000,562935,
-1896,-4236,15968,-819,-2781,-499,-22000,9000,80000,562937,
-1896,-4208,15996,-814,-2791,-526,-22000,9000,80000,562939,
-1544,-4356,15924,-759,-2741,-625,-22000,9000,80000,562952,
-1472,-4448,15724,-805,-2684,-643,-22000,9000,80000,562955,
-1480,-4512,15924,-721,-2643,-725,-22000,8000,80000,562957,
-1340,-4628,15788,-708,-2368,-508,-22000,8000,80000,562970,
-1200,-4556,15628,-750,-2265,-439,-22000,8000,80000,562972,
-1060,-4632,15868,-777,-2153,-379,-22000,8000,80000,562975,
-776,-4608,15720,-678,-1661,-448,-22000,8000,80000,562987,
-760,-4704,15800,-773,-1618,-386,-22000,8000,80000,562990,
-768,-4724,15784,-807,-1518,-412,-23000,8000,80000,562992,
-936,-4740,16060,-711,-1118,-369,-23000,8000,80000,563005,
-768,-4728,16092,-657,-993,-389,-23000,8000,80000,563007,
-848,-4584,16112,-651,-1013,-404,-23000,8000,80000,563009,
-1212,-4352,16092,-818,-902,-341,-23000,8000,80000,563022,
-1060,-4492,16120,-808,-941,-321,-23000,7000,80000,563024,
-1176,-4396,15960,-849,-930,-263,-23000,7000,80000,563027,
-1596,-4440,16148,-823,-900,-199,-23000,7000,80000,563039,
-1536,-4400,16336,-861,-956,-152,-23000,7000,80000,563042,
-1676,-4536,16180,-814,-1022,-120,-23000,7000,80000,563044,
-1576,-4624,15612,-1313,-1570,186,-23000,7000,80000,563057,
-1540,-4672,15788,-1279,-1430,177,-23000,7000,80000,563059,
-1456,-4624,16184,-1180,-1378,186,-23000,7000,80000,563062,
-1404,-4720,16280,-1066,-1772,142,-23000,7000,80000,563074,
-1312,-4580,16420,-1076,-1850,188,-23000,7000,80000,563077,
-1224,-4556,16396,-1155,-1996,147,-23000,7000,80000,563079,
-1552,-4584,16660,-1506,-2981,-77,-23000,7000,80000,563092,
-1704,-4472,16768,-1653,-3158,-98,-23000,7000,80000,563094,
-1828,-4388,17068,-1766,-3368,-169,-23000,6000,80000,563097,
-2076,-4380,17548,-1991,-4053,-932,-23000,6000,81000,563109,
-2108,-4384,17668,-1986,-4207,-1187,-23000,6000,81000,563112,
-2496,-4104,17436,-2238,-4523,-1262,-23000,6000,81000,563114,
-3016,-4380,17712,-3551,-4693,-1087,-23000,5000,81000,563127,
-2888,-4512,17600,-3763,-4742,-1117,-23000,5000,81000,563129,
-2760,-4636,17720,-3899,-4871,-1249,-23000,5000,81000,563132,
-2452,-5076,17176,-4266,-6547,-1742,-24000,5000,81000,563144,
-2444,-5188,17364,-4401,-7017,-1879,-24000,5000,81000,563147,
-2096,-5368,17524,-4508,-7736,-1979,-24000,4000,81000,563149,
-1540,-5208,18576,-4630,-10569,-2120,-24000,3000,81000,563162,
-1388,-5256,18748,-4438,-10759,-2155,-24000,3000,81000,563164,
-1300,-5416,19060,-4415,-10976,-2137,-24000,3000,81000,563167,
296,-5360,19384,-3938,-10485,-1465,-25000,2000,82000,563179,
620,-5180,19468,-3891,-10334,-1427,-25000,2000,82000,563182,
1160,-5352,19468,-3712,-10194,-1427,-25000,2000,82000,563184,
2408,-5660,19092,-2459,-9542,-1651,-25000,1000,82000,563197,
2436,-5540,19240,-2168,-9364,-1593,-25000,0,82000,563199,
2408,-5448,19180,-1944,-9137,-1406,-25000,0,82000,563202,
2644,-5640,19688,-1095,-7397,-390,-25000,0,82000,563214,
2708,-5636,19704,-1026,-7092,-323,-25000,0,82000,563217,
2636,-5604,19896,-1000,-6772,-314,-25000,0,82000,563219,
2484,-5400,20008,-287,-3940,-329,-25000,0,83000,563232,
2452,-5756,20180,-150,-3359,-390,-25000,0,83000,563234,
2448,-5836,20256,-28,-2821,-450,-25000,0,83000,563236,
2592,-6360,20152,270,-804,-583,-25000,0,83000,563249,
2652,-6320,20236,411,-543,-701,-25000,0,83000,563251,
2680,-6320,20372,648,-429,-731,-25000,0,83000,563254,
2680,-6436,20392,873,-295,-879,-25000,0,83000,563256,
2176,-6612,20952,2191,-382,-1102,-25000,0,82000,563269,
2104,-6588,21184,2383,-494,-1065,-25000,-1000,82000,563271,
1956,-6480,21404,2623,-568,-1084,-25000,-1000,82000,563273,
1384,-6736,21468,3442,-1145,-859,-24000,-1000,82000,563286,
1164,-6708,21336,3618,-1230,-853,-24000,-1000,82000,563289,
1060,-6672,21148,3688,-1332,-873,-24000,-1000,82000,563291,
420,-7016,21168,4215,-2152,-1084,-24000,-1000,82000,563304,
216,-7108,21028,4258,-2394,-1087,-24000,-1000,82000,563306,
120,-7144,20824,4361,-2609,-1152,-23000,-1000,82000,563308,
124,-7600,21920,5215,-3773,-1335,-23000,-1000,82000,563321,
88,-7736,22172,5536,-3934,-1415,-23000,-2000,82000,563323,
192,-7860,22540,5895,-4105,-1502,-23000,-2000,82000,563326,
724,-7880,23772,7244,-4536,-1943,-22000,-2000,82000,563338,
772,-7900,23732,7484,-4550,-2004,-22000,-2000,82000,563341,
768,-7812,23816,7596,-4508,-1996,-22000,-2000,82000,563343,
808,-7156,23472,8521,-4147,-1878,-21000,-3000,82000,563356,
844,-7100,23524,8676,-4138,-1805,-21000,-3000,82000,563358,
988,-6960,23308,8822,-4122,-1796,-20000,-3000,82000,563360,
1772,-6216,24028,9562,-4810,-1787,-20000,-3000,82000,563373,
2008,-6176,24228,9775,-4987,-1842,-19000,-3000,82000,563376,
2184,-6136,24196,9962,-5245,-1906,-19000,-4000,82000,563378,
3140,-6036,23768,10704,-6010,-2185,-18000,-4000,82000,563391,
3316,-6072,23208,10950,-5927,-2291,-18000,-4000,82000,563393,
3500,-5964,22996,11059,-5737,-2357,-18000,-4000,82000,563395,
4476,-5796,22164,11702,-4699,-3052,-17000,-5000,82000,563408,
4692,-5540,22260,11770,-4513,-3036,-16000,-5000,82000,563410,
4836,-5540,22280,11930,-4285,-3106,-16000,-5000,82000,563413,
5316,-5524,22092,12852,-2906,-3355,-15000,-6000,82000,563425,
5296,-5644,21996,12964,-2482,-3421,-15000,-6000,82000,563428,
5164,-5340,21132,13535,-182,-3741,-13000,-6000,81000,563440,
5208,-5348,20952,13817,319,-3789,-13000,-6000,81000,563443,
4944,-5432,20712,13651,768,-3795,-13000,-6000,81000,563445,
4248,-5124,19224,14190,3011,-3433,-11000,-6000,81000,563458,
3916,-4992,18908,14120,3306,-3257,-11000,-6000,81000,563460,
3768,-5112,18756,14130,3614,-3113,-11000,-6000,81000,563462,
2864,-4784,18084,14327,4586,-2240,-9000,-5000,81000,563475,
2784,-4776,18028,14626,4645,-2031,-9000,-5000,80000,563477,
2664,-4688,17836,14512,4764,-1841,-9000,-5000,80000,563480,
2296,-4232,16528,14748,4891,-1305,-7000,-5000,80000,563492,
2232,-4092,16272,14863,4952,-1427,-7000,-5000,80000,563495,
2088,-3828,15808,14947,4895,-1450,-7000,-4000,80000,563497,
1444,-3116,14960,14493,4190,-1250,-6000,-4000,80000,563510,
1236,-3044,14596,14489,3905,-1348,-5000,-4000,80000,563512,
1276,-2992,14484,14692,3698,-1410,-5000,-4000,80000,563514,
848,-2484,12744,13974,2825,-1065,-4000,-4000,80000,563527,
956,-2488,12828,14060,2737,-1085,-3000,-4000,80000,563529,
1024,-2316,12488,14113,2499,-1134,-3000,-4000,80000,563532,
1156,-1744,11956,13750,1263,-1010,-2000,-3000,80000,563544,
1184,-1728,11736,13606,1265,-903,-2000,-3000,80000,563547,
1152,-1320,11612,13523,1042,-885,-1000,-3000,80000,563549,
1548,-784,10540,13007,537,-754,0,-3000,80000,563562,
1564,-720,10756,12719,505,-760,0,-3000,80000,563564,
1772,-684,10764,12759,626,-779,0,-3000,80000,563567,
1576,-388,10556,12783,565,-856,0,-3000,79000,563569,
1776,360,10084,12001,322,-1099,1000,-3000,79000,563582,
1696,616,10232,11899,103,-1194,1000,-3000,79000,563584,
1672,636,9868,11645,-69,-1155,1000,-3000,79000,563586,
1664,1028,9568,10949,-259,-846,2000,-3000,79000,563599,
1664,1092,9632,10760,-317,-836,2000,-3000,79000,563601,
1688,1328,9352,10651,-450,-951,3000,-3000,79000,563604,
1904,1760,9168,9909,-1195,-826,4000,-4000,79000,563616,
1928,1968,9212,9781,-1285,-813,4000,-4000,79000,563619,
1984,1860,9148,9720,-1407,-800,4000,-4000,79000,563621,
2448,2316,8992,8883,-1848,-840,5000,-4000,79000,563634,
2604,2372,8852,8827,-1884,-881,5000,-4000,79000,563636,
2640,2492,8652,8641,-1964,-912,5000,-4000,79000,563638,
3132,2888,8868,7868,-1964,-1135,6000,-4000,79000,563651,
3176,2756,8864,7680,-2011,-1177,6000,-4000,79000,563653,
3252,3116,9008,7506,-1953,-1178,6000,-4000,79000,563656,
3496,3352,9284,6812,-1870,-1248,7000,-5000,79000,563668,
3688,3420,9596,6733,-1812,-1269,7000,-5000,79000,563671,
3612,3508,9580,6621,-1802,-1221,7000,-5000,79000,563673,
4128,3828,9500,5912,-1575,-1555,8000,-5000,78000,563686,
4172,3908,9324,5772,-1606,-1645,8000,-5000,78000,563688,
4080,3916,9352,5601,-1628,-1795,8000,-5000,78000,563690,
4520,4180,9612,4714,-1730,-2308,9000,-5000,78000,563703,
4528,4132,9852,4512,-1649,-2386,9000,-5000,78000,563705,
4820,4236,10096,4370,-1655,-2514,9000,-5000,78000,563708,
5608,4368,10756,3816,-1833,-3058,10000,-6000,78000,563720,
5800,4316,11000,3793,-1829,-3198,10000,-6000,78000,563723,
5760,4408,10992,3728,-1816,-3292,10000,-6000,77000,563725,
6396,4600,11684,3183,-1005,-3898,10000,-6000,77000,563738,
6464,4500,11956,3113,-842,-3951,10000,-6000,77000,563740,
6596,4656,12004,3034,-625,-4035,10000,-6000,77000,563742,
6916,4700,12640,3041,334,-4498,11000,-6000,77000,563755,
6896,4776,12564,3021,546,-4550,11000,-6000,76000,563757,
6872,4880,12496,2947,815,-4595,11000,-6000,76000,563760,
6952,5256,13216,2736,1987,-4848,11000,-6000,76000,563772,
6928,5108,13016,2687,2060,-4943,11000,-6000,76000,563775,
6952,5352,12848,2594,2075,-5011,11000,-6000,76000,563777,
6636,5384,13472,2243,2450,-5607,12000,-5000,75000,563790,
6592,5348,13584,2212,2445,-5691,12000,-5000,75000,563792,
6468,5476,13764,2125,2450,-5786,12000,-5000,75000,563794,
5832,5244,14180,1940,2309,-6032,12000,-5000,75000,563807,
5704,5268,14004,1908,2311,-6049,12000,-5000,74000,563809,
5648,5264,14168,1931,2334,-6151,12000,-5000,74000,563812,
5332,5052,14244,2003,1996,-6637,13000,-5000,74000,563824,
5256,5256,14140,2003,1824,-6695,13000,-5000,74000,563827,
5396,5100,14136,1960,1675,-6745,13000,-5000,74000,563829,
5108,5216,14052,1908,926,-7282,13000,-5000,73000,563842,
4936,5188,13976,1854,808,-7368,13000,-5000,73000,563844,
4980,5296,13928,1873,794,-7479,13000,-5000,73000,563846,
4984,5320,14060,1785,545,-7785,13000,-4000,72000,563859,
4948,5312,14004,1815,551,-7894,13000,-4000,72000,563861,
4932,5364,13992,1817,515,-7920,13000,-4000,72000,563864,
4756,5272,13808,1617,601,-8362,14000,-4000,71000,563877,
4812,5292,13636,1590,644,-8432,14000,-4000,71000,563879,
4800,5176,13584,1521,744,-8602,14000,-4000,71000,563881,
4428,5188,13424,1279,805,-9316,14000,-4000,70000,563894,
4200,5172,13356,1272,807,-9419,14000,-4000,70000,563896,
3472,5140,13084,1069,979,-9476,14000,-4000,69000,563909,
3380,5164,12976,1041,1134,-9470,14000,-3000,68000,563911,
3164,5168,12908,1080,1252,-9439,14000,-3000,68000,563913,
2804,5028,12772,609,1565,-9786,14000,-3000,67000,563926,
2688,5116,12812,596,1534,-9881,15000,-3000,67000,563928,
2648,5064,12592,450,1505,-9964,15000,-3000,67000,563931,
1940,4880,12248,18,1555,-9996,15000,-3000,66000,563943,
1664,4836,12416,-121,1517,-9930,15000,-3000,66000,563946,
1592,4792,12316,-157,1538,-9949,15000,-2000,66000,563948,
920,4708,12252,-616,1292,-9909,15000,-2000,65000,563961,
820,4512,12136,-650,1392,-9904,15000,-2000,65000,563963,
836,4504,12204,-726,1415,-9931,15000,-2000,65000,563965,
168,4408,12320,-1073,1294,-9775,15000,-2000,64000,563978,
152,4444,12392,-1042,1307,-9693,15000,-2000,64000,563980,
-12,4388,12488,-1083,1386,-9541,15000,-1000,63000,563983,
-392,4572,12652,-1447,1227,-9207,15000,-1000,63000,563996,
-456,4580,12732,-1465,1249,-9137,15000,-1000,62000,563998,
-420,4692,12628,-1486,1207,-9202,15000,-1000,62000,564000,
-1112,4864,12556,-1809,1117,-9125,14000,-1000,61000,564013,
-1184,4904,12428,-1846,1181,-9072,14000,0,61000,564016,
-1272,4888,12296,-1898,1193,-9030,14000,0,61000,564018,
-1812,4804,12160,-2370,1626,-8815,14000,0,60000,564031,
-1904,4944,12324,-2511,1637,-8757,14000,0,60000,564033,
-1988,4948,12304,-2604,1677,-8742,14000,0,60000,564035,
-2492,4888,12848,-2724,1329,-8413,14000,0,59000,564048,
-2704,4872,12996,-2743,1275,-8399,14000,0,59000,564050,
-2596,4968,12952,-2749,1142,-8317,14000,0,59000,564053,
-2768,5116,13100,-2832,981,-8220,14000,0,59000,564055,
-3208,5440,13204,-3145,443,-7976,13000,0,58000,564068,
-3304,5540,13032,-3202,410,-7917,13000,0,58000,564070,
-3232,5724,13096,-3295,405,-7851,13000,0,58000,564073,
-3564,5880,13096,-3691,368,-7491,13000,0,57000,564085,
-3640,5936,13112,-3766,393,-7511,13000,1000,57000,564088,
-3704,5928,13300,-3853,430,-7432,13000,1000,57000,564090,
-4232,5392,13504,-4294,710,-7421,13000,1000,56000,564103,
-4268,5372,13500,-4252,720,-7346,12000,1000,56000,564105,
-4400,5192,13480,-4285,753,-7295,12000,1000,56000,564107,
-4896,4736,13364,-4400,976,-6895,12000,1000,55000,564120,
-4900,4740,13252,-4493,954,-6774,12000,1000,55000,564122,
-4992,4680,13296,-4575,939,-6680,12000,2000,55000,564125,
-5552,4564,13568,-4749,817,-6068,11000,2000,55000,564137,
-5636,4572,13684,-4681,804,-5952,11000,2000,54000,564140,
-5560,4620,13872,-4713,753,-5776,11000,2000,54000,564142,
-5828,4680,13988,-5006,1000,-5429,11000,2000,54000,564155,
-6040,4660,13904,-5036,998,-5355,11000,2000,54000,564157,
-6072,4604,14052,-5147,1052,-5315,11000,2000,54000,564159,
-6452,4408,13680,-5170,1306,-4727,10000,3000,53000,564172,
-6504,4228,13744,-5227,1331,-4597,10000,3000,53000,564174,
-6512,4268,13576,-5202,1371,-4418,10000,3000,53000,564177,
-6756,3876,13296,-5298,1363,-3401,9000,3000,53000,564189,
-6596,3772,13204,-5313,1375,-3215,9000,3000,53000,564192,
-6600,3800,13160,-5462,1394,-2997,9000,3000,53000,564194,
-6312,4276,13392,-6095,1836,-2174,9000,4000,53000,564207,
-6252,4364,13492,-6143,2002,-1998,9000,4000,53000,564209,
-6264,4440,13556,-6126,2229,-1924,8000,4000,53000,564212,
-6080,4436,13412,-6248,3147,-1158,8000,4000,52000,564224,
-5988,4392,13228,-6438,3342,-1043,8000,4000,52000,564227,
-6080,4424,13452,-6530,3477,-865,8000,4000,52000,564229,
-5688,4384,14232,-7044,4212,-125,7000,5000,52000,564242,
-5680,4352,14292,-7010,4337,-52,7000,5000,52000,564244,
-5688,4252,14300,-7048,4543,43,7000,5000,52000,564247,
-5792,3864,14176,-7385,5594,273,6000,6000,53000,564259,
-5764,3708,14340,-7476,5819,266,6000,6000,53000,564261,
-5928,3744,14320,-7496,6039,315,6000,6000,53000,564264,
-6732,2748,14420,-7536,6674,727,5000,7000,53000,564280,
-6868,2712,14564,-7516,6624,767,5000,7000,53000,564282,
-6968,2696,14760,-7516,6631,845,5000,7000,53000,564285,
-7836,3064,15668,-7607,5477,1128,4000,8000,53000,564297,
-7812,3100,15656,-7623,5135,1201,4000,8000,53000,564300,
-8052,3244,15712,-7557,4756,1255,4000,8000,53000,564302,
-8476,3504,15332,-7635,3140,1718,3000,8000,53000,564315,
-8532,3408,15404,-7622,2795,1803,3000,9000,53000,564317,
-8524,3368,15356,-7732,2450,1937,3000,9000,53000,564320,
-7892,2864,15612,-8168,904,2721,2000,9000,54000,564332,
-7736,2748,15688,-8299,683,2812,2000,9000,54000,564335,
-7556,2568,15852,-8360,531,2979,2000,9000,54000,564337,
-6796,1816,17536,-8304,-109,3375,1000,9000,54000,564350,
-6668,1700,17752,-8245,-135,3420,1000,9000,54000,564352,
-6624,1652,18024,-8092,-182,3474,1000,9000,54000,564354,
-6440,1340,18028,-7601,237,3673,0,9000,55000,564367,
-6448,1356,17932,-7473,322,3740,0,9000,55000,564369,
-6616,1408,18200,-7446,412,3816,0,9000,55000,564372,
-6524,1388,18004,-7405,521,3896,0,9000,55000,564374,
-6988,1112,18056,-7198,535,4561,0,9000,55000,564387,
-6880,988,17976,-7232,569,4682,0,9000,55000,564389,
-6996,984,18016,-7196,489,4806,0,9000,55000,564392,
-6840,952,18320,-7198,417,4936,0,9000,56000,564394,
-6660,744,18452,-6938,-78,5559,-1000,9000,56000,564407,
-6544,616,18448,-6912,-146,5677,-1000,9000,56000,564409,
-6524,600,18428,-6940,-144,5751,-1000,9000,56000,564411,
-6048,564,18916,-6728,-274,6174,-1000,9000,57000,564424,
-6068,484,19024,-6613,-315,6227,-1000,9000,57000,564426,
-5936,440,18948,-6560,-338,6295,-1000,9000,57000,564429,
-5888,12,19276,-6136,-346,6796,-2000,9000,58000,564441,
-5864,84,19244,-6060,-353,6818,-2000,9000,58000,564444,
-5792,-104,19324,-6020,-358,6870,-2000,9000,58000,564446,
-6020,-472,19344,-5610,-616,6986,-3000,9000,59000,564459,
-6044,-628,19424,-5561,-656,7019,-3000,9000,59000,564461,
-6124,-648,19592,-5439,-736,7016,-3000,9000,59000,564463,
-6368,-1224,19252,-4832,-1253,7182,-3000,9000,60000,564476,
-6416,-1272,19328,-4719,-1359,7218,-3000,9000,60000,564478,
-6424,-1344,19400,-4642,-1507,7290,-3000,9000,60000,564481,
-6236,-1300,18796,-4347,-2239,8016,-3000,9000,61000,564493,
-6120,-1260,18720,-4390,-2423,8147,-3000,9000,61000,564496,
-5976,-1092,18708,-4414,-2520,8263,-4000,9000,61000,564498,
-5272,-596,19008,-4195,-2838,8753,-4000,9000,62000,564511,
-5148,-632,18848,-4193,-2852,8832,-4000,9000,62000,564513,
-5020,-576,18836,-4099,-2894,8879,-4000,9000,62000,564516,
-4120,-444,18536,-4087,-2931,9229,-4000,9000,63000,564528,
-4088,-476,18572,-4035,-2951,9293,-4000,9000,63000,564531,
-3736,-440,18704,-4008,-2965,9342,-4000,9000,64000,564533,
-2948,-724,18612,-3705,-2980,9764,-4000,9000,65000,564546,
-2752,-792,18564,-3606,-2848,9915,-4000,8000,65000,564548,
-2628,-880,18424,-3548,-2729,10046,-4000,8000,65000,564550,
-1548,-1040,18472,-3388,-2778,10280,-5000,8000,66000,564563,
-1412,-1372,18388,-3248,-2711,10306,-5000,8000,66000,564565,
-1352,-1084,18324,-3154,-2744,10266,-5000,8000,66000,564568,
-832,-1284,18404,-2762,-2534,10183,-5000,8000,67000,564580,
-688,-1272,18344,-2759,-2615,10078,-5000,8000,68000,564583,
-524,-1292,18372,-2801,-2710,10048,-5000,8000,68000,564585,
-52,-1416,18356,-2400,-2861,9893,-5000,8000,69000,564598,
-12,-1412,18244,-2400,-2932,9875,-5000,8000,69000,564600,
48,-1336,18252,-2318,-2978,9866,-5000,8000,69000,564603,
824,-1276,18200,-2142,-3404,9669,-5000,7000,70000,564615,
892,-1348,18100,-2034,-3493,9604,-5000,7000,70000,564618,
1104,-1292,18208,-1991,-3647,9524,-5000,7000,70000,564620,
1644,-1384,17956,-1621,-4099,9267,-5000,7000,71000,564633,
1776,-1124,17768,-1617,-4088,9229,-5000,7000,72000,564635,
1996,-1248,17716,-1586,-4087,9207,-5000,7000,72000,564637,
2672,-1348,17780,-1540,-4126,8748,-5000,6000,73000,564650,
2676,-1360,17648,-1549,-4165,8647,-5000,6000,73000,564652,
2824,-1320,17672,-1474,-4180,8502,-5000,6000,73000,564655,
3456,-1468,17540,-1211,-4062,7899,-5000,6000,74000,564667,
3552,-1444,17428,-1184,-4107,7773,-5000,6000,74000,564670,
3608,-1476,17260,-1198,-4069,7678,-5000,5000,74000,564672,
4192,-1524,16948,-912,-3343,7210,-5000,5000,75000,564685,
4272,-1532,16772,-918,-3141,7142,-5000,5000,75000,564687,
4284,-1472,16948,-883,-2899,7092,-5000,5000,75000,564689,
4580,-1456,16744,-750,-1910,6777,-5000,5000,76000,564702,
4796,-1384,16796,-715,-1654,6688,-5000,5000,76000,564704,
4600,-1288,16576,-646,-1484,6578,-5000,5000,76000,564707,
4492,-1292,16176,-471,-59,6053,-5000,5000,77000,564719,
4492,-1300,16128,-479,101,6000,-5000,5000,77000,564722,
4464,-1280,16056,-532,366,5919,-5000,5000,77000,564724,
4236,-1028,15644,-666,1158,5484,-5000,5000,77000,564737,
4168,-996,15452,-703,1253,5415,-5000,5000,77000,564739,
4064,-1028,15548,-695,1326,5320,-5000,5000,77000,564741,
3728,-748,15136,-786,1422,4827,-5000,5000,78000,564754,
3608,-736,14968,-753,1447,4715,-5000,5000,78000,564756,
3544,-740,14916,-825,1390,4624,-5000,5000,78000,564759,
3216,-556,14500,-1118,1076,4231,-5000,5000,78000,564771,
3124,-612,14508,-1173,918,4188,-5000,5000,79000,564774,
3156,-520,14600,-1218,788,4144,-5000,5000,79000,564776,
2988,-716,14300,-1448,16,3813,-5000,5000,79000,564789,
3084,-648,14220,-1538,-84,3752,-5000,5000,79000,564791,
2980,-640,14112,-1616,-255,3688,-5000,5000,79000,564793,
2868,-524,13836,-1869,-1087,3386,-5000,4000,79000,564806,
2968,-580,14032,-1808,-1070,3365,-6000,4000,80000,564808,
2876,-584,14056,-1822,-995,3355,-6000,4000,80000,564811,
3176,-516,14160,-2212,-1000,3069,-6000,4000,80000,564823,
3024,-520,14076,-2263,-1097,2968,-6000,4000,80000,564826,
2984,-308,14092,-2321,-1156,2896,-6000,4000,80000,564828,
