Ax,Ay,Az,Gx,Gy,Gz,Roll,Pitch,Yaw,Timestamp,Target
-9916,7660,8928,-557,-2,-160,31000,43000,301000,466298,
-9820,7620,8804,-555,8,-173,31000,43000,301000,466311,
-9848,7596,8836,-612,23,-208,31000,43000,301000,466313,
-9760,7676,8824,-569,37,-207,31000,43000,301000,466315,
-9716,7672,8992,-594,113,-241,31000,43000,301000,466318,
-9844,7688,9012,-578,186,-291,31000,43000,301000,466330,
-9852,7652,8944,-634,186,-314,31000,43000,301000,466333,
-9920,7632,9132,-601,175,-312,31000,43000,301000,466335,
-10040,7764,9012,-700,235,-354,31000,43000,301000,466348,
-9916,7672,9096,-632,270,-363,31000,43000,301000,466350,
-9904,7748,8872,-684,219,-371,31000,43000,301000,466353,
-9988,7612,8876,-625,299,-372,31000,43000,302000,466365,
-10024,7620,8836,-646,198,-351,31000,43000,302000,466368,
-9976,7556,8828,-660,251,-345,31000,43000,302000,466370,
-10012,7652,9028,-634,160,-362,31000,43000,302000,466383,
-10112,7552,8960,-651,214,-368,31000,43000,302000,466385,
-10160,7668,9080,-625,177,-343,31000,43000,302000,466387,
-10128,7540,9504,-644,212,-352,31000,43000,302000,466400,
-10204,7536,9308,-604,227,-339,31000,43000,302000,466402,
-10192,7572,9344,-628,209,-336,31000,43000,302000,466405,
-10240,7468,9300,-516,301,-284,31000,43000,302000,466417,
-10176,7440,9428,-509,259,-281,31000,43000,302000,466420,
-10260,7460,9204,-473,322,-285,31000,43000,302000,466422,
-10472,7588,9256,-367,338,-203,31000,43000,302000,466435,
-10368,7600,9012,-397,318,-186,31000,43000,302000,466437,
-10452,7548,9400,-351,301,-198,31000,43000,302000,466440,
-10640,7624,9412,-338,229,-157,31000,43000,302000,466452,
-10564,7652,9620,-291,330,-132,31000,43000,302000,466455,
-10732,7592,9592,-333,176,-124,31000,43000,302000,466457,
-10852,7652,9700,-173,206,3,31000,43000,302000,466470,
-10872,7632,9820,-186,133,-4,31000,43000,302000,466472,
-10956,7660,9760,-141,240,37,31000,43000,302000,466475,
-11012,7612,9660,-164,199,42,31000,43000,302000,466477,
-11516,7712,9936,80,318,241,31000,43000,302000,466490,
-11616,7780,9860,178,380,291,31000,43000,302000,466492,
-11844,7872,9788,184,361,381,31000,43000,302000,466495,
-12688,7844,9716,407,195,762,31000,43000,302000,466507,
-12984,7976,9800,400,93,904,31000,43000,302000,466510,
-13088,7972,9604,502,96,1046,31000,43000,302000,466512,
-13800,8168,9468,593,-402,1867,32000,43000,302000,466525,
-13996,8168,9496,688,-473,2017,32000,43000,302000,466527,
-14044,8140,9376,638,-562,2192,32000,43000,302000,466530,
-14524,8140,9360,779,-729,3031,32000,43000,303000,466542,
-14648,8184,9272,780,-756,3214,32000,42000,303000,466545,
-14704,8248,9084,807,-722,3362,32000,42000,303000,466547,
-15440,8408,8232,850,-1122,4393,33000,42000,303000,466559,
-15512,8420,8100,782,-1219,4639,33000,42000,303000,466562,
-15528,8436,8232,770,-1342,4840,33000,42000,303000,466564,
-15672,8688,7324,267,-2003,6128,33000,42000,304000,466577,
-15796,8752,7112,187,-2139,6388,33000,42000,304000,466579,
-15760,8792,7232,-18,-2259,6589,33000,42000,304000,466582,
-15460,8456,6804,-586,-2344,7804,34000,41000,305000,466594,
-15572,8520,6676,-725,-2395,7995,34000,41000,305000,466597,
-15612,8436,6636,-760,-2473,8283,34000,41000,305000,466599,
-15372,8048,6372,-1324,-2496,9603,35000,40000,306000,466612,
-15456,8080,6268,-1413,-2525,9886,35000,40000,306000,466614,
-15308,7952,6328,-1519,-2497,10133,35000,40000,306000,466617,
-14576,7300,6856,-1753,-2491,11471,35000,39000,307000,466629,
-14256,7128,6940,-1765,-2453,11653,35000,39000,308000,466632,
-14148,7128,6856,-1874,-2331,11912,35000,39000,308000,466634,
-13016,6660,7184,-2223,-1573,12824,36000,38000,309000,466647,
-12884,6624,7168,-2251,-1367,13077,36000,38000,309000,466649,
-12580,6488,7320,-2403,-1234,13202,36000,38000,310000,466652,
-12332,5996,6628,-2720,-430,13998,37000,37000,311000,466664,
-12364,5992,6524,-2903,-423,14138,37000,37000,311000,466667,
-12336,5828,6196,-2928,-422,14285,37000,37000,311000,466669,
-12376,5628,5508,-3393,-1189,15081,38000,36000,313000,466682,
-12336,5620,5408,-3433,-1440,15183,38000,36000,313000,466684,
-12144,5556,5328,-3577,-1810,15391,38000,36000,313000,466687,
-11396,5152,4952,-3799,-3256,16014,38000,34000,315000,466699,
-11132,5236,4848,-3934,-3604,16178,38000,34000,315000,466702,
-10756,5152,4904,-3962,-3748,16238,38000,34000,315000,466704,
-9712,4968,4796,-4294,-4826,16760,39000,33000,316000,466717,
-9492,5036,4840,-4403,-4969,16830,39000,33000,316000,466719,
-9272,5016,4756,-4473,-5070,16924,39000,32000,317000,466721,
-8132,4800,5320,-4921,-5256,17202,39000,31000,318000,466734,
-7868,4664,5224,-5004,-5257,17289,39000,31000,318000,466736,
-7732,4884,5404,-5137,-5192,17292,39000,30000,318000,466739,
-6548,4836,5616,-5575,-5075,17499,39000,29000,319000,466751,
-6416,4896,5576,-5730,-4911,17423,39000,29000,320000,466753,
-6332,4836,5512,-5981,-4873,17503,39000,29000,320000,466756,
-5556,5092,5432,-6614,-4423,17296,39000,27000,321000,466768,
-5384,5108,5548,-6823,-4514,17301,39000,27000,321000,466771,
-5252,5176,5396,-6856,-4501,17245,39000,27000,321000,466773,
-4580,5288,5888,-7534,-4603,16956,39000,25000,322000,466785,
-4516,5340,5756,-7597,-4619,16894,38000,25000,323000,466788,
-3672,5428,6016,-8323,-4972,16422,38000,24000,324000,466800,
-3664,5536,6076,-8368,-5013,16254,38000,24000,324000,466803,
-3604,5572,6104,-8525,-5169,16175,38000,23000,324000,466805,
-2736,5596,6148,-9099,-5830,15529,38000,22000,325000,466817,
-2600,5700,6252,-9207,-5956,15412,37000,22000,325000,466820,
-2316,5708,6324,-9254,-5993,15276,37000,21000,325000,466822,
-1032,5284,6680,-9781,-6284,14625,37000,20000,326000,466834,
-808,5388,6752,-9783,-6153,14440,37000,20000,326000,466837,
-516,5356,6752,-9928,-6118,14335,36000,19000,326000,466839,
512,5644,7236,-10248,-5098,13422,36000,18000,327000,466852,
504,5572,7260,-10378,-5170,13228,36000,18000,327000,466854,
736,5580,7500,-10394,-4872,13152,35000,18000,328000,466856,
1312,5780,8320,-11023,-3438,12426,35000,17000,328000,466869,
1528,5888,8588,-11015,-3067,12263,34000,16000,328000,466871,
1616,5792,8656,-11158,-2952,11919,34000,16000,329000,466874,
2128,5512,8964,-11402,-2351,11130,33000,15000,329000,466886,
2136,5496,8932,-11415,-2366,11013,33000,15000,330000,466889,
2208,5508,9020,-11371,-2405,10890,33000,15000,330000,466891,
2548,5904,9364,-11280,-2605,9931,32000,14000,330000,466904,
2728,5976,9460,-11324,-2696,9796,32000,14000,331000,466906,
2760,6116,9840,-11316,-2800,9609,32000,14000,331000,466908,
3140,6480,10996,-11038,-3043,8612,31000,13000,331000,466921,
3348,6572,11160,-11121,-3106,8395,31000,13000,331000,466923,
3276,6628,11296,-11045,-3145,8250,31000,13000,331000,466925,
3504,6324,12868,-10730,-3679,7257,30000,12000,332000,466938,
3500,6376,12920,-10631,-3829,7100,29000,12000,332000,466940,
3640,6316,13084,-10503,-4025,6972,29000,11000,332000,466942,
4008,6428,13708,-9548,-4956,6410,28000,10000,332000,466955,
4060,6636,13780,-9420,-5105,6307,28000,10000,332000,466957,
4160,6748,13696,-9198,-5247,6226,28000,10000,332000,466960,
4660,7396,13976,-8505,-6188,5905,27000,9000,333000,466972,
4816,7372,14132,-8334,-6265,5814,27000,9000,333000,466975,
4736,7532,14216,-8267,-6530,5785,27000,9000,333000,466977,
5516,8112,14292,-7688,-7471,5449,26000,8000,333000,466989,
5616,8224,14440,-7638,-7594,5397,26000,8000,333000,466992,
5708,8284,14384,-7608,-7693,5336,26000,7000,333000,466994,
6600,8676,15420,-7359,-8404,4793,25000,6000,333000,467007,
6696,8672,15388,-7276,-8418,4631,25000,6000,333000,467009,
6816,8664,15672,-7320,-8589,4506,25000,6000,333000,467011,
7832,8672,16128,-6969,-8457,3738,24000,5000,333000,467024,
8092,8656,16260,-6999,-8397,3605,24000,5000,333000,467026,
8080,8676,15968,-6871,-8318,3466,24000,4000,333000,467028,
8816,8956,16220,-6646,-7738,2580,24000,4000,333000,467041,
8816,8888,15996,-6549,-7544,2417,23000,3000,333000,467043,
8920,8844,16032,-6578,-7505,2221,23000,3000,333000,467046,
9268,8908,15768,-6286,-7061,1412,23000,2000,333000,467058,
9288,8916,15592,-6279,-6979,1292,23000,2000,333000,467060,
9464,9036,15548,-6257,-6947,1126,23000,2000,333000,467063,
9680,9432,15952,-6280,-5996,45,22000,1000,332000,467075,
9784,9428,16144,-6422,-5857,-212,22000,1000,332000,467078,
9712,9504,16304,-6387,-5612,-446,22000,1000,332000,467080,
9480,9296,17160,-6574,-4392,-1621,21000,1000,332000,467092,
9404,9196,17228,-6476,-4061,-1812,21000,0,332000,467095,
9476,9056,17408,-6516,-3899,-2020,21000,0,332000,467097,
8736,8928,17696,-6093,-3042,-2874,20000,0,332000,467110,
8648,9056,17612,-6065,-3039,-3073,20000,0,331000,467112,
8544,8900,17656,-5978,-2981,-3188,20000,0,331000,467114,
7956,8324,17288,-5783,-3350,-3957,20000,0,331000,467127,
7952,8128,17276,-5664,-3433,-4056,20000,0,331000,467129,
7964,7952,17192,-5628,-3527,-4165,19000,0,331000,467132,
8012,7644,17428,-4871,-3843,-4824,19000,0,330000,467144,
8016,7696,17300,-4836,-3853,-4943,19000,0,330000,467146,
8068,7656,17552,-4693,-3836,-5093,19000,0,330000,467149,
7900,8048,17824,-4406,-3602,-6009,18000,0,329000,467161,
7800,8072,17964,-4296,-3447,-6124,18000,0,329000,467164,
7704,8064,18016,-4326,-3371,-6312,18000,0,329000,467166,
7464,7520,18612,-4054,-2747,-7059,18000,0,328000,467178,
7404,7388,18684,-4031,-2631,-7236,18000,0,328000,467181,
7292,7276,18652,-3930,-2498,-7363,18000,0,328000,467183,
6496,6868,18596,-3360,-1964,-8021,18000,-1000,327000,467195,
6404,6672,18508,-3253,-1980,-8102,17000,-1000,327000,467197,
6092,6624,18340,-3124,-1926,-8169,17000,-1000,327000,467200,
5504,6280,17660,-2557,-2315,-8588,17000,-1000,326000,467212,
5288,6192,17580,-2540,-2484,-8655,17000,-1000,326000,467215,
5180,6204,17668,-2348,-2560,-8689,17000,-1000,326000,467217,
4908,5684,17596,-1886,-3397,-9024,17000,-1000,325000,467230,
4804,5756,17016,-1745,-3403,-9057,17000,-1000,325000,467232,
4928,5752,17236,-1738,-3614,-9139,17000,-1000,325000,467234,
5220,5576,16496,-1408,-3848,-9509,17000,-1000,324000,467247,
5340,5596,16592,-1473,-3800,-9580,17000,-1000,323000,467249,
5280,5632,16624,-1457,-3713,-9742,17000,-1000,323000,467251,
5356,5332,16616,-1523,-2986,-10488,17000,-1000,322000,467264,
5324,5376,16968,-1482,-2687,-10607,17000,-1000,322000,467266,
5212,5220,17084,-1561,-2497,-10769,17000,-1000,322000,467269,
4180,4776,17668,-1499,-1439,-11337,17000,-1000,321000,467281,
4124,4764,17628,-1521,-1332,-11387,16000,-1000,320000,467284,
3924,4580,17464,-1450,-1246,-11454,16000,-1000,320000,467286,
3228,3976,16792,-1170,-1191,-11735,16000,-1000,319000,467299,
3008,3836,16564,-1002,-1200,-11747,16000,-1000,319000,467301,
2456,3472,15776,-602,-1749,-11876,16000,-1000,318000,467313,
2444,3492,15912,-530,-1780,-11885,16000,-1000,318000,467316,
2240,3488,15812,-431,-1984,-11951,16000,-1000,317000,467318,
1792,3996,16276,47,-2313,-12110,16000,-1000,316000,467331,
1864,4132,16348,51,-2407,-12168,16000,-1000,316000,467333,
1712,4152,16276,72,-2414,-12182,16000,0,316000,467335,
1784,4052,16680,-41,-2333,-12549,16000,0,315000,467348,
1656,4120,16740,-78,-2189,-12616,16000,0,314000,467350,
1728,3972,16888,-84,-2148,-12724,16000,0,314000,467353,
1388,3424,16844,72,-1529,-12861,16000,0,313000,467365,
1304,3324,16752,43,-1419,-12863,16000,0,313000,467367,
1216,3304,16824,129,-1313,-12890,16000,0,312000,467370,
728,2964,16084,257,-1266,-13013,16000,0,311000,467382,
672,2828,15964,362,-1151,-13063,16000,0,311000,467385,
444,2876,16108,368,-1157,-13063,16000,0,311000,467387,
340,2768,16160,507,-1211,-13083,16000,0,311000,467389,
28,3028,15760,760,-1731,-13117,16000,0,309000,467402,
24,3236,15932,822,-1669,-13099,16000,0,309000,467404,
-176,3228,15912,802,-1737,-13202,16000,0,309000,467406,
-424,3456,16264,793,-1594,-13308,16000,0,308000,467419,
-492,3336,16192,766,-1679,-13323,16000,0,307000,467421,
-472,3208,16144,822,-1566,-13345,16000,0,307000,467424,
-672,2984,15812,914,-1848,-13374,16000,0,306000,467436,
-624,2940,15524,956,-1800,-13278,16000,0,306000,467438,
-516,2988,15664,924,-1973,-13345,16000,0,305000,467441,
-484,2688,14716,929,-2107,-13287,16000,0,304000,467453,
-500,2712,14616,855,-2127,-13329,16000,0,304000,467456,
-432,2600,14628,883,-2160,-13372,16000,0,304000,467458,
-724,2636,15044,740,-1857,-13530,16000,1000,302000,467470,
-676,2796,15256,782,-1659,-13515,16000,1000,302000,467473,
-896,2740,15484,654,-1577,-13604,16000,1000,302000,467475,
-1516,2932,16136,498,-756,-13842,16000,1000,300000,467488,
-1652,2704,16092,424,-763,-13848,16000,1000,300000,467490,
-1640,2748,16092,446,-590,-13873,16000,1000,300000,467492,
-2264,2580,15296,426,-345,-13769,16000,2000,299000,467505,
-2336,2452,15276,494,-158,-13709,16000,2000,299000,467507,
-2336,2388,15044,501,-274,-13730,16000,2000,298000,467509,
-2560,2368,13976,494,-690,-13451,16000,2000,297000,467522,
-2584,2308,13600,531,-811,-13394,16000,2000,297000,467524,
-2544,2244,13228,433,-1014,-13349,16000,2000,297000,467526,
-2272,2248,13316,259,-1858,-13248,16000,2000,295000,467539,
-2208,2404,13484,149,-1883,-13335,16000,3000,295000,467541,
-2344,2456,13680,131,-1858,-13319,16000,3000,295000,467544,
-2604,2608,14384,-359,-1261,-13473,16000,3000,294000,467556,
-2764,2600,14588,-425,-1105,-13500,16000,3000,293000,467559,
-2896,2620,14652,-513,-925,-13468,16000,3000,293000,467561,
-3564,2852,14704,-966,67,-13425,16000,3000,292000,467574,
-3620,2876,14700,-1047,289,-13385,16000,3000,292000,467576,
-3844,2812,14608,-1097,345,-13357,16000,4000,291000,467578,
-4616,2824,13648,-1283,598,-12823,15000,4000,290000,467591,
-4672,2860,13584,-1317,418,-12756,15000,4000,290000,467593,
-4688,2696,13212,-1370,401,-12591,15000,4000,290000,467595,
-4796,2488,12324,-1817,-705,-11881,15000,5000,289000,467608,
-4880,2524,12420,-1933,-963,-11872,15000,5000,288000,467610,
-4868,2624,12428,-1946,-1090,-11745,15000,5000,288000,467613,
-5112,2696,13144,-2421,-1378,-11375,15000,5000,287000,467625,
-5148,2648,13260,-2570,-1339,-11260,14000,5000,287000,467627,
-5164,2700,13284,-2611,-1239,-11173,14000,5000,287000,467630,
-5304,2564,13548,-3211,-620,-10643,14000,5000,286000,467642,
-5444,2556,13720,-3341,-438,-10532,14000,5000,286000,467645,
-5548,2488,13856,-3407,-325,-10426,14000,5000,285000,467647,
-5880,2608,13244,-3777,386,-9618,13000,6000,284000,467660,
-5876,2584,13248,-3855,464,-9437,13000,6000,284000,467662,
-6032,2680,13076,-3938,539,-9296,13000,6000,284000,467664,
-6384,3044,12424,-4469,704,-8530,13000,6000,283000,467677,
-6516,3028,12352,-4594,703,-8325,13000,6000,283000,467679,
-6532,3100,12364,-4690,768,-8150,12000,6000,283000,467681,
-7032,3304,13228,-5446,1140,-7364,12000,7000,282000,467694,
-7112,3192,13452,-5520,1327,-7207,12000,7000,282000,467696,
-7188,3200,13784,-5693,1370,-7107,12000,7000,282000,467699,
-7800,2848,14592,-6026,2055,-6164,11000,7000,282000,467711,
-7816,2676,14460,-6126,2147,-6004,11000,8000,281000,467714,
-7904,2584,14712,-6201,2157,-5770,11000,8000,281000,467716,
-8280,2340,14548,-6261,2446,-4612,10000,8000,281000,467728,
-8476,2312,14268,-6296,2323,-4382,10000,8000,281000,467731,
-8492,2236,14200,-6258,2250,-4132,10000,8000,281000,467733,
-8512,2268,13276,-6456,1399,-2761,9000,9000,281000,467746,
-8512,2224,13084,-6459,1262,-2515,9000,9000,281000,467748,
-8488,2196,12940,-6562,1026,-2248,9000,9000,281000,467750,
-8036,2640,13208,-6905,269,-1164,8000,9000,280000,467763,
-8036,2756,13640,-7017,235,-989,8000,9000,280000,467765,
-8144,2800,13708,-7149,248,-765,8000,9000,280000,467767,
-7748,2468,14956,-7707,367,236,7000,9000,280000,467780,
-7704,2468,15192,-7716,413,373,7000,9000,280000,467782,
-7456,2376,15188,-7779,429,611,7000,9000,280000,467785,
-7484,2040,15864,-7721,817,1708,6000,9000,281000,467797,
-7480,2016,15852,-7775,795,1916,6000,9000,281000,467799,
-7504,1924,15764,-7668,878,2112,6000,9000,281000,467802,
-7476,1960,15328,-7700,914,3322,5000,9000,281000,467814,
-7464,1904,15340,-7612,985,3556,5000,9000,281000,467816,
-7500,2108,15448,-7713,935,3766,5000,9000,281000,467819,
-7364,2400,15444,-7665,1366,4809,4000,10000,282000,467831,
-7344,2500,15444,-7755,1434,4987,4000,10000,282000,467833,
-7364,2524,15548,-7729,1567,5146,4000,10000,282000,467836,
-7160,2576,16172,-8024,1815,6091,4000,10000,282000,467848,
-7240,2608,16248,-8010,1888,6219,3000,10000,283000,467850,
-7368,2556,16244,-8108,1900,6433,3000,10000,283000,467853,
-7520,2172,16628,-8070,2122,7395,3000,10000,283000,467865,
-7492,2216,16568,-8129,2066,7619,3000,10000,284000,467868,
-7480,2116,16640,-8072,2058,7768,3000,10000,284000,467870,
-7648,2228,16472,-8248,1563,8738,2000,11000,285000,467882,
-7604,2228,16688,-8194,1453,8938,2000,11000,285000,467885,
-7788,2196,16908,-8221,1138,9146,2000,11000,285000,467887,
-7436,2136,17156,-8177,-389,10113,1000,11000,286000,467900,
-7440,2220,17080,-8126,-631,10318,1000,11000,286000,467902,
-7368,2168,17212,-8155,-891,10523,1000,11000,286000,467904,
-6304,1940,17900,-7888,-1863,11452,0,10000,287000,467917,
-6108,1992,17936,-7886,-2006,11614,0,10000,288000,467919,
-5904,1916,17940,-7798,-2059,11750,0,10000,288000,467922,
-4896,1792,17964,-7475,-1867,12590,0,10000,289000,467934,
-4768,1764,18040,-7395,-1729,12587,0,10000,289000,467936,
-4516,1788,17964,-7333,-1525,12633,0,10000,289000,467939,
-3816,1840,17664,-7037,-344,13459,0,10000,291000,467951,
-3696,1892,17740,-7019,5,13522,0,10000,291000,467953,
-3528,1848,17720,-6999,266,13715,0,10000,291000,467956,
-3220,1916,17620,-6925,1445,14221,0,10000,293000,467968,
-3268,2044,17624,-6834,1633,14290,0,10000,293000,467971,
-3268,1960,17672,-6860,1638,14352,0,10000,293000,467973,
-3492,1960,17384,-6683,1830,14772,-1000,11000,295000,467985,
-3456,2120,17524,-6711,1684,14948,-1000,11000,295000,467988,
-3452,2064,17460,-6631,1600,14965,-1000,11000,295000,467990,
-3128,1972,17532,-6606,725,15387,-1000,11000,297000,468003,
-3008,1924,17688,-6561,629,15397,-1000,11000,297000,468005,
-2856,1972,17816,-6590,466,15488,-1000,11000,297000,468007,
-1808,1596,17976,-6286,463,15706,-1000,11000,299000,468020,
-1636,1544,18132,-6295,495,15787,-2000,11000,299000,468022,
-1420,1572,18164,-6218,606,15749,-2000,11000,299000,468025,
-692,1444,18120,-5923,1098,15921,-2000,11000,301000,468037,
-448,1296,18104,-5883,1260,15889,-2000,11000,301000,468040,
-332,1280,17952,-5784,1388,15909,-2000,11000,302000,468042,
80,1236,17604,-5596,1818,15964,-2000,11000,303000,468054,
96,1168,17672,-5474,1837,15938,-2000,11000,303000,468057,
224,1256,17528,-5488,1890,15914,-2000,11000,304000,468059,
548,888,17620,-5140,1697,15633,-2000,11000,305000,468071,
664,908,17772,-5101,1653,15534,-2000,11000,305000,468074,
716,704,17620,-4994,1594,15528,-2000,11000,306000,468076,
1392,500,18000,-4478,1325,15061,-2000,12000,307000,468088,
1600,400,17840,-4400,1247,15024,-2000,12000,307000,468091,
1784,392,17880,-4283,1236,14842,-2000,12000,308000,468093,
2544,172,18508,-3857,833,14179,-3000,12000,309000,468105,
2596,196,18296,-3715,842,14025,-3000,12000,309000,468108,
2732,-68,18336,-3663,798,13887,-3000,12000,310000,468110,
3288,-124,18248,-3137,616,12793,-3000,12000,311000,468122,
3292,-156,18284,-3140,493,12905,-3000,12000,311000,468124,
3304,-276,18328,-2971,478,12504,-3000,12000,311000,468127,
3656,-328,17936,-2539,-205,11548,-3000,12000,312000,468139,
3968,-508,17876,-2073,-501,10906,-3000,11000,313000,468146,
3912,-448,17772,-2013,-562,10688,-3000,11000,313000,468148,
4036,-380,17688,-1854,-545,10500,-3000,11000,313000,468151,
4176,-452,17452,-1316,-478,9283,-2000,11000,314000,468163,
4180,-312,17224,-1121,-385,9093,-2000,11000,314000,468166,
4228,-368,17236,-1096,-408,8891,-2000,11000,315000,468168,
4308,-44,17312,-582,-299,7882,-2000,11000,315000,468180,
4300,132,17012,-551,-222,7617,-2000,11000,316000,468183,
4232,60,17056,-506,-267,7455,-2000,11000,316000,468185,
3944,252,16844,-188,145,6279,-2000,11000,316000,468197,
3876,272,16816,-170,171,6148,-2000,11000,316000,468200,
3724,388,16880,-102,325,5969,-2000,11000,317000,468202,
3132,592,16640,119,671,5041,-2000,11000,317000,468214,
3040,708,16392,104,604,4943,-2000,11000,317000,468217,
2736,752,16400,145,639,4754,-2000,11000,317000,468219,
2112,824,16452,316,136,3991,-2000,11000,318000,468232,
1900,832,16388,378,64,3860,-2000,11000,318000,468234,
1812,896,16304,401,-165,3767,-2000,11000,318000,468236,
1836,840,16292,484,-253,3631,-2000,11000,318000,468238,
1148,1080,16196,630,-1055,3133,-2000,10000,318000,468251,
1276,1096,15980,730,-1150,3042,-1000,10000,318000,468253,
1212,1124,15996,683,-1286,2947,-1000,10000,318000,468256,
1228,1316,15788,879,-1775,2452,-1000,10000,318000,468268,
1260,1288,15768,837,-1786,2364,-1000,10000,319000,468270,
1436,1340,15672,879,-1789,2273,-1000,10000,319000,468273,
1780,1540,15780,811,-1351,1710,-1000,10000,319000,468285,
1816,1524,15884,859,-1183,1621,-1000,10000,319000,468288,
1656,1528,15732,796,-1077,1485,-1000,10000,319000,468290,
1376,1484,15828,763,-442,918,-1000,10000,319000,468303,
1284,1436,15836,700,-352,852,-1000,10000,319000,468305,
1192,1416,15736,722,-265,799,-1000,10000,319000,468307,
812,1524,15440,696,80,391,-1000,9000,319000,468320,
900,1628,15460,673,58,295,-1000,9000,319000,468322,
744,1600,15436,699,152,230,-1000,9000,319000,468324,
652,1716,15352,605,65,161,-1000,9000,319000,468327,
308,1532,15336,604,78,-169,-1000,9000,319000,468339,
292,1584,15340,573,-3,-245,-1000,9000,319000,468342,
312,1476,15352,587,24,-292,-1000,9000,319000,468344,
-12,1680,15468,451,-34,-636,0,9000,319000,468356,
-32,1660,15488,484,-10,-657,0,9000,319000,468359,
-64,1608,15548,418,3,-701,0,9000,319000,468361,
-164,1676,15552,420,-75,-782,0,9000,319000,468363,
-408,1676,15400,290,-18,-950,0,9000,319000,468376,
-396,1748,15580,273,-109,-987,0,9000,319000,468378,
-456,1780,15628,278,-55,-1004,0,9000,319000,468381,
-508,1736,15572,240,-73,-1048,0,9000,319000,468383,
-580,1756,15532,188,121,-1241,0,9000,319000,468395,
-688,1756,15440,206,150,-1234,0,9000,319000,468398,
-784,1600,15440,208,191,-1250,0,9000,319000,468400,
-804,1608,15488,213,181,-1274,0,9000,319000,468402,
-1152,1512,15576,239,139,-1318,0,9000,318000,468415,
-1156,1524,15492,226,45,-1308,0,9000,318000,468417,
-1420,1592,15404,247,76,-1339,0,9000,318000,468419,
-1452,1392,15524,273,-181,-1224,0,9000,318000,468432,
-1484,1452,15392,297,-153,-1254,0,9000,318000,468434,
-1492,1576,15528,260,-267,-1238,0,9000,318000,468436,
-1616,1452,15448,270,-271,-1184,0,9000,318000,468439,
