Ax,Ay,Az,Gx,Gy,Gz,Roll,Pitch,Yaw,Timestamp,Target
-2636,5968,15068,-633,-312,-32,15000,11000,204000,225651,
-2696,5972,14900,-614,-376,-12,15000,11000,204000,225654,
-2576,5900,15176,-647,-410,-79,15000,11000,204000,225666,
-2452,5840,15116,-666,-452,-43,15000,11000,204000,225668,
-2552,5888,15100,-681,-413,-70,15000,11000,204000,225671,
-2452,5780,14932,-658,-252,-46,15000,11000,204000,225683,
-2460,5836,14920,-691,-218,-72,15000,11000,204000,225685,
-2348,5928,15020,-659,-153,-91,15000,11000,204000,225687,
-2308,5860,14936,-708,65,-155,15000,11000,204000,225700,
-2400,5796,15148,-658,130,-161,15000,11000,204000,225702,
-2336,5840,15044,-680,100,-151,15000,11000,204000,225704,
-2400,5836,15004,-694,383,-190,15000,11000,204000,225717,
-2368,5864,15052,-733,374,-152,15000,11000,204000,225719,
-2340,5908,15204,-766,444,-151,15000,11000,204000,225721,
-2276,5784,14948,-731,506,-191,15000,11000,204000,225734,
-2512,5784,15136,-742,546,-198,15000,11000,204000,225736,
-2456,5808,15184,-681,540,-225,15000,11000,204000,225738,
-2644,5836,15092,-683,479,-283,15000,11000,204000,225750,
-2844,5892,15096,-608,407,-297,15000,11000,204000,225753,
-2556,5932,15248,-696,-31,-186,15000,11000,204000,225792,
-2576,5928,15164,-658,-70,-182,15000,11000,204000,225794,
-2608,6036,15060,-677,-90,-181,15000,11000,204000,225796,
-2512,6136,15052,-671,-66,-149,15000,11000,204000,225809,
-2528,6056,15148,-720,-20,-133,15000,11000,204000,225811,
-2484,6096,15048,-741,-5,-139,15000,11000,204000,225813,
-2524,6104,15212,-752,21,-117,15000,11000,204000,225826,
-2496,6144,15256,-770,89,-112,15000,11000,204000,225828,
-2316,6000,15124,-747,56,-105,15000,11000,204000,225830,
-2268,6048,15324,-738,193,-140,15000,11000,204000,225842,
-2312,6028,15344,-720,212,-147,15000,11000,204000,225845,
-2380,6064,15360,-746,230,-153,15000,11000,204000,225847,
-2348,6032,15340,-692,385,-258,15000,11000,204000,225859,
-2276,6004,15224,-690,420,-328,15000,11000,204000,225861,
-2256,6040,15300,-680,481,-346,15000,11000,204000,225864,
-2724,5996,15128,-590,308,-425,15000,11000,204000,225876,
-2684,6136,15272,-568,238,-470,15000,11000,204000,225878,
-2776,6044,15332,-591,209,-433,15000,11000,204000,225881,
-2848,6112,15264,-502,-87,-470,15000,11000,204000,225893,
-2688,6076,15088,-531,-139,-460,15000,11000,204000,225895,
-2732,6032,15248,-570,-164,-425,15000,11000,204000,225897,
-2520,5804,15304,-603,325,-411,14000,11000,204000,225938,
-2708,5748,15408,-622,388,-399,14000,11000,204000,225940,
-2592,5808,15288,-551,377,-384,14000,11000,204000,225942,
-2680,5720,15288,-601,440,-282,14000,11000,204000,225955,
-2712,5796,15356,-577,404,-284,14000,11000,204000,225957,
-2744,5656,15332,-620,400,-230,14000,11000,204000,225959,
-2852,5796,15288,-543,342,-177,14000,11000,204000,225972,
-2876,5648,15292,-555,329,-189,14000,11000,204000,225974,
-2788,5744,15332,-520,343,-161,14000,11000,204000,225976,
-2988,5744,15428,-463,119,-122,14000,11000,204000,225989,
-2772,5752,15292,-406,120,-146,14000,11000,204000,225991,
-2744,5712,15328,-426,77,-104,14000,11000,204000,225993,
-2820,5816,15324,-411,19,-116,14000,11000,204000,226006,
-2784,5804,15388,-383,-34,-62,14000,11000,204000,226008,
-2736,5844,15184,-395,-25,-72,14000,11000,204000,226010,
-2404,5736,15200,-359,-61,-70,14000,11000,204000,226022,
-2572,5780,15304,-363,-29,-87,14000,11000,204000,226024,
-2580,5776,15312,-304,11,-132,14000,11000,204000,226027,
-2452,5792,15116,-243,62,-180,14000,11000,204000,226039,
-2484,5808,15240,-253,60,-152,14000,11000,204000,226041,
-2456,5796,15256,-262,79,-152,14000,11000,204000,226043,
-2668,5884,15272,-250,164,-155,14000,11000,204000,226085,
-2832,5800,15436,-254,163,-176,14000,11000,204000,226088,
-2788,5844,15324,-202,48,-119,14000,11000,204000,226090,
-2848,5964,15304,-155,-63,-138,14000,11000,204000,226102,
-2780,5864,15312,-170,-81,-92,14000,11000,204000,226104,
-2744,5888,15324,-186,-51,-112,14000,11000,204000,226107,
-2600,5956,15196,-163,-113,-135,14000,11000,204000,226119,
-2624,5952,15284,-179,-80,-143,14000,11000,204000,226121,
-2532,5884,15112,-135,-49,-161,14000,11000,204000,226124,
-2500,6044,15104,-166,8,-170,15000,11000,204000,226136,
-2500,6076,15032,-124,2,-162,15000,11000,204000,226138,
-2492,6172,14972,-145,-27,-142,15000,11000,204000,226140,
-2572,6220,15040,-176,115,-107,15000,11000,204000,226153,
-2572,6384,15144,-223,131,-77,15000,11000,204000,226155,
-2504,6240,15172,-256,164,-110,15000,11000,204000,226157,
-2780,6024,15228,-298,182,-45,15000,11000,204000,226170,
-2692,6040,15304,-297,212,-54,15000,11000,204000,226172,
-2788,6068,15088,-288,127,-45,15000,11000,204000,226174,
-2824,5932,15060,-367,51,28,15000,11000,204000,226186,
-2868,5848,15008,-330,25,80,15000,11000,204000,226189,
-2540,5748,15308,-231,-86,260,15000,11000,204000,226229,
-2584,5712,15264,-247,-47,267,15000,11000,204000,226231,
-2552,5612,15308,-233,35,236,15000,11000,204000,226234,
-2480,5700,15100,-196,191,201,15000,11000,204000,226246,
-2544,5796,15168,-178,241,225,15000,11000,204000,226248,
-2540,5820,15196,-127,196,188,15000,11000,204000,226251,
-2564,5856,14932,-120,323,172,15000,11000,204000,226263,
-2524,5844,14992,-123,250,209,15000,11000,204000,226265,
-2580,5700,15052,-147,300,202,15000,11000,204000,226268,
-2556,5936,15008,-114,242,178,15000,11000,204000,226280,
-2496,5908,15036,-113,292,190,15000,11000,204000,226282,
-2608,5908,14944,-91,321,174,15000,11000,204000,226285,
-2556,5876,14892,-178,286,169,15000,11000,204000,226297,
-2512,6012,14772,-145,247,172,15000,11000,204000,226299,
-2516,5912,14968,-181,228,194,15000,11000,204000,226301,
-2480,5924,14952,-182,237,142,15000,11000,204000,226314,
-2572,5812,14796,-253,176,164,15000,11000,204000,226316,
-2580,5832,15016,-238,235,143,15000,11000,204000,226318,
-2636,5860,14900,-292,128,136,15000,11000,204000,226331,
-2648,5928,14920,-309,130,74,15000,11000,204000,226333,
-2720,5860,14748,-276,114,130,15000,11000,204000,226335,
-2604,5848,14904,-394,101,155,15000,11000,204000,226348,
-2404,5940,14724,-537,59,197,15000,11000,204000,226375,
-2484,5932,15012,-490,42,186,15000,11000,204000,226378,
-2480,5920,14868,-516,58,220,15000,11000,204000,226380,
-2268,5872,14976,-483,145,223,15000,11000,204000,226392,
-2264,6020,15032,-490,198,172,15000,11000,204000,226395,
-2240,5880,14960,-530,248,154,15000,11000,204000,226397,
-2456,6040,14884,-540,316,60,15000,11000,204000,226409,
-2448,6072,14852,-515,343,63,15000,11000,204000,226412,
-2588,5960,14928,-535,311,63,15000,11000,204000,226414,
-2532,6016,14964,-563,227,110,15000,11000,204000,226426,
-2480,6032,15024,-530,182,138,15000,11000,204000,226428,
-2460,6020,15056,-560,182,136,15000,11000,204000,226431,
-2648,6100,14996,-557,34,97,15000,11000,204000,226443,
-2468,6036,14952,-620,70,100,15000,11000,204000,226445,
-2512,5988,15080,-577,60,82,15000,11000,204000,226447,
-2532,6064,15000,-643,66,108,15000,11000,204000,226460,
-2476,6080,14964,-594,19,103,15000,11000,204000,226462,
-2544,6044,15036,-615,25,114,15000,11000,204000,226464,
-2352,5976,15076,-618,67,114,15000,11000,204000,226477,
-2336,5948,15168,-656,106,116,15000,11000,204000,226479,
-2280,5948,15152,-675,131,89,15000,11000,204000,226481,
-2436,6012,15184,-691,250,37,15000,11000,205000,226494,
-2452,5672,15216,-684,325,-44,15000,11000,205000,226525,
-2392,5704,15256,-728,321,-31,15000,11000,205000,226528,
-2492,5780,15228,-719,312,-12,15000,11000,205000,226530,
-2476,5744,15428,-641,214,7,15000,11000,205000,226542,
-2500,5796,15348,-648,208,18,15000,11000,205000,226545,
-2504,5796,15300,-564,192,10,15000,11000,205000,226547,
-2516,5864,15260,-569,194,-40,15000,11000,205000,226559,
-2568,6016,15368,-562,124,-24,15000,11000,205000,226562,
-2556,5852,15332,-604,165,-27,15000,11000,205000,226564,
-2516,5864,15304,-538,32,44,15000,11000,205000,226576,
-2452,5900,15232,-568,37,26,15000,11000,205000,226578,
-2416,5844,15200,-548,47,48,15000,11000,205000,226581,
-2292,5980,15264,-518,58,36,15000,11000,205000,226593,
-2504,5908,15120,-502,68,43,15000,11000,205000,226595,
-2292,6028,15308,-508,46,67,15000,11000,205000,226597,
-2316,5848,15056,-525,208,53,15000,11000,205000,226610,
-2264,5900,15216,-535,192,77,15000,11000,205000,226612,
-2252,6008,15176,-546,246,43,15000,11000,205000,226614,
-2288,5844,15092,-570,318,38,15000,11000,205000,226627,
-2344,5920,15268,-520,368,-4,15000,11000,205000,226629,
-2416,5876,15152,-489,342,0,15000,11000,205000,226631,
-2508,6040,15284,-532,1,-119,14000,11000,205000,226670,
-2464,6020,15096,-502,-7,-98,14000,11000,205000,226673,
-2388,5972,15092,-534,-23,-109,14000,11000,205000,226675,
-2532,5936,15196,-568,0,-105,14000,11000,205000,226687,
-2380,5960,15192,-616,21,-74,14000,11000,205000,226690,
-2512,5896,15192,-593,46,-110,14000,11000,205000,226692,
-2340,6040,15304,-619,48,-88,14000,11000,205000,226704,
-2368,5888,15336,-540,102,-132,14000,11000,205000,226707,
-2448,6024,15304,-544,56,-159,14000,11000,205000,226709,
-2300,5820,15404,-487,214,-212,14000,11000,205000,226722,
-2416,5932,15416,-496,188,-173,14000,11000,205000,226724,
-2368,5936,15432,-480,195,-184,14000,11000,205000,226726,
-2588,5952,15300,-456,264,-153,14000,11000,205000,226738,
-2492,5916,15352,-487,288,-163,14000,11000,205000,226741,
-2604,5884,15292,-424,284,-193,14000,11000,205000,226743,
-2728,5780,15536,-414,159,-127,14000,11000,205000,226755,
-2892,5784,15424,-359,91,-102,14000,11000,205000,226757,
-2752,5720,15468,-390,21,-93,14000,11000,205000,226760,
-2640,5568,15292,-233,-136,-89,14000,11000,205000,226772,
-2452,5680,15464,-247,-143,-50,14000,11000,205000,226774,
-2532,5704,15504,-216,-104,-61,14000,11000,205000,226776,
-2240,5828,15376,-167,-25,-124,14000,11000,205000,226789,
-2404,5784,15016,-178,470,-217,14000,11000,205000,226818,
-2472,5836,15140,-160,467,-274,14000,11000,205000,226820,
-2576,5716,15048,-182,401,-222,14000,11000,205000,226822,
-2620,5912,15088,-177,346,-216,15000,11000,205000,226835,
-2580,5988,14984,-234,320,-195,15000,11000,205000,226837,
-2592,5988,15172,-261,314,-202,15000,11000,205000,226839,
-2560,5968,15264,-275,122,-156,15000,11000,205000,226852,
-2632,5912,15120,-299,104,-156,15000,11000,205000,226854,
-2468,5848,15108,-268,75,-151,15000,11000,205000,226856,
-2452,5856,15116,-307,82,-178,15000,11000,205000,226869,
-2344,5884,15164,-275,31,-180,15000,11000,205000,226871,
-2376,5856,15100,-323,38,-172,15000,11000,205000,226873,
-2240,5964,15156,-270,112,-239,15000,11000,205000,226885,
-2240,6036,15076,-332,135,-237,15000,11000,205000,226888,
-2264,6012,15040,-305,171,-247,15000,11000,205000,226890,
-2300,5820,15276,-335,265,-306,15000,11000,205000,226902,
-2340,5968,15196,-323,312,-332,15000,11000,205000,226904,
-2336,5904,15176,-284,278,-303,15000,11000,205000,226907,
-2592,5712,15156,-251,262,-345,15000,11000,205000,226919,
-2544,5756,15096,-286,252,-354,15000,11000,205000,226921,
-2596,5828,15204,-290,233,-314,15000,11000,205000,226924,
-2540,5888,15096,-216,-105,-167,15000,11000,204000,226975,
-2432,6024,15116,-190,-123,-120,15000,11000,204000,226978,
-2412,5876,15256,-207,-73,-144,15000,11000,204000,226980,
-2412,6036,15112,-218,173,-182,15000,11000,204000,226992,
-2340,5940,15104,-274,226,-192,15000,11000,204000,226994,
-2352,5916,15020,-264,330,-237,15000,11000,204000,226997,
-2568,5956,14996,-264,435,-211,15000,11000,204000,227009,
-2656,5956,15168,-224,424,-239,15000,11000,204000,227011,
-2580,5924,15204,-265,392,-184,15000,11000,204000,227014,
-2752,6048,15148,-211,349,-218,15000,11000,204000,227026,
-2768,6016,15160,-267,354,-189,15000,11000,204000,227028,
-2804,5952,15176,-238,357,-219,15000,11000,204000,227030,
-2860,6092,15096,-260,174,-168,15000,11000,204000,227043,
-2872,6016,15088,-268,150,-153,15000,11000,204000,227045,
-2868,5928,15088,-195,96,-144,15000,11000,204000,227047,
-2856,5900,15152,-219,-76,-77,15000,11000,204000,227060,
-2780,5952,15152,-186,-141,-43,15000,11000,204000,227062,
-2736,5872,15160,-243,-108,-47,15000,11000,204000,227064,
-2508,6004,15204,-197,-134,8,15000,11000,204000,227077,
-2376,6072,15152,-222,-115,20,15000,11000,204000,227079,
-2652,6036,14980,-261,105,71,15000,11000,205000,227118,
-2644,5988,15160,-286,110,102,15000,11000,205000,227120,
-2628,5940,15064,-283,115,74,15000,11000,205000,227122,
-2576,6012,15192,-269,86,119,15000,11000,205000,227135,
-2572,5984,15268,-270,55,71,15000,11000,205000,227137,
-2520,5888,15232,-243,43,68,15000,11000,205000,227139,
-2504,5916,15268,-213,74,-23,15000,11000,205000,227152,
-2536,5764,15276,-175,26,-7,15000,11000,205000,227154,
-2416,5792,15156,-197,43,-17,15000,11000,205000,227156,
-2452,5876,15164,-106,5,-83,15000,11000,205000,227168,
-2500,5896,14968,-107,-5,-96,15000,11000,205000,227171,
-2484,5924,14960,-83,44,-131,15000,11000,205000,227173,
-2692,6020,14868,-122,-68,-146,15000,11000,205000,227185,
-2672,6108,15044,-84,-41,-145,15000,11000,205000,227187,
-2576,6088,15056,-59,-106,-91,15000,11000,205000,227190,
-2824,6000,14940,-94,-319,20,15000,11000,205000,227202,
-2776,5912,14944,-170,-428,63,15000,11000,205000,227204,
-2880,6004,14860,-186,-513,68,15000,11000,205000,227206,
-2952,6020,14728,-202,-808,114,15000,11000,205000,227219,
-2916,5928,14696,-229,-803,142,15000,11000,205000,227221,
-2808,6012,14692,-210,-891,162,15000,11000,205000,227223,
-2184,5792,13948,-837,-549,279,15000,11000,205000,227269,
-2292,5704,13916,-820,-489,266,15000,10000,205000,227271,
-2316,5636,14024,-862,-539,256,15000,10000,205000,227274,
-3056,5528,13716,-1026,-850,236,15000,10000,205000,227286,
-3192,5500,13776,-1100,-951,282,15000,10000,205000,227288,
-3220,5512,13740,-1140,-1042,283,15000,10000,205000,227290,
-3324,5444,13692,-1358,-2085,447,15000,10000,205000,227303,
-3336,5508,13484,-1413,-2200,447,15000,10000,205000,227305,
-3292,5496,13448,-1419,-2329,478,15000,10000,205000,227307,
-2860,5544,13300,-1714,-3094,549,15000,10000,205000,227320,
-2764,5504,13256,-1742,-3206,569,15000,10000,205000,227322,
-2664,5444,13380,-1833,-3277,616,14000,10000,205000,227324,
-2208,5484,13096,-2213,-3411,658,14000,9000,205000,227337,
-2020,5528,13156,-2293,-3397,667,14000,9000,205000,227339,
-2044,5520,12996,-2393,-3378,678,14000,9000,205000,227341,
-1512,5512,12976,-2852,-3109,746,14000,9000,205000,227354,
-1576,5536,12876,-2886,-3036,728,14000,9000,205000,227356,
-1300,5564,12892,-2962,-3006,773,14000,9000,205000,227358,
-1132,5336,12624,-3485,-2394,670,14000,9000,205000,227370,
-1180,5320,12620,-3579,-2277,668,14000,8000,205000,227373,
-1060,5344,12488,-3694,-2147,635,14000,8000,205000,227375,
-2396,4656,11504,-5705,-2207,382,12000,8000,205000,227413,
-2476,4556,11516,-5814,-2344,416,12000,8000,205000,227415,
-2360,4508,11400,-5986,-2433,404,12000,8000,205000,227418,
-1904,4364,11300,-6677,-3061,461,11000,7000,205000,227430,
-1856,4324,11404,-6842,-3094,410,11000,7000,205000,227432,
-1764,4324,11252,-6895,-3138,390,11000,7000,205000,227434,
-1264,3924,10820,-7798,-2978,256,10000,7000,205000,227447,
-1144,3976,10800,-7923,-2912,210,10000,7000,205000,227449,
-1112,3936,10608,-8109,-2840,241,10000,7000,205000,227451,
-764,3612,10560,-9049,-2256,92,9000,7000,205000,227464,
-776,3596,10588,-9233,-2154,66,9000,7000,205000,227466,
-876,3524,10196,-9451,-1990,30,9000,7000,205000,227468,
-560,3256,10036,-10445,-1388,-175,8000,7000,205000,227481,
-552,3052,10004,-10673,-1227,-234,8000,6000,205000,227483,
-468,3024,9824,-10827,-1119,-275,8000,6000,205000,227485,
-408,2680,9500,-12060,-151,-548,7000,6000,204000,227497,
-436,2548,9420,-12254,-42,-593,6000,6000,204000,227500,
-392,2420,9384,-12493,120,-636,6000,6000,204000,227502,
-500,1636,9512,-13611,559,-1068,5000,6000,204000,227514,
-640,1528,9628,-13858,583,-1188,5000,6000,204000,227516,
-548,1476,9616,-14037,666,-1337,4000,6000,204000,227519,
-572,932,11644,-17782,811,-3599,-1000,7000,203000,227565,
-552,820,11576,-18053,901,-3661,-1000,7000,203000,227568,
-788,792,11836,-18163,933,-3704,-2000,7000,203000,227570,
-1064,348,12348,-19188,1128,-3795,-4000,7000,203000,227582,
-1184,208,12328,-19282,1044,-3756,-4000,7000,202000,227585,
-1284,68,12216,-19498,979,-3753,-4000,7000,202000,227587,
-1760,-512,12624,-20389,575,-3717,-6000,7000,202000,227599,
-1864,-756,12672,-20567,450,-3710,-7000,7000,202000,227601,
-1968,-780,12612,-20775,317,-3708,-7000,7000,202000,227604,
-2320,-1552,12796,-21766,-623,-3323,-9000,7000,202000,227616,
-2392,-1776,12688,-21902,-813,-3269,-9000,7000,202000,227618,
-2460,-1768,12788,-22024,-1019,-3151,-10000,7000,202000,227620,
-2360,-2776,13020,-23081,-1982,-2697,-12000,7000,201000,227633,
-2328,-2844,13196,-23139,-2138,-2592,-12000,6000,201000,227635,
-1152,-3872,14176,-23807,-2969,-2508,-15000,6000,201000,227648,
-1000,-3964,14176,-23863,-3069,-2568,-15000,6000,201000,227650,
-680,-4112,14412,-23990,-3185,-2610,-15000,6000,201000,227652,
268,-5116,14420,-24339,-3207,-3159,-18000,6000,201000,227665,
324,-5116,14544,-24462,-3113,-3291,-18000,5000,201000,227667,
368,-5228,14516,-24500,-3005,-3429,-19000,5000,201000,227669,
-60,-5912,14256,-25069,-2496,-3985,-21000,5000,200000,227681,
-1468,-7124,13244,-26285,-3358,-4322,-26000,4000,200000,227704,
-1588,-7236,13280,-26429,-3542,-4254,-26000,4000,200000,227706,
-1596,-7316,13144,-26663,-3706,-4266,-27000,4000,200000,227709,
-1360,-8188,13016,-27490,-5001,-4068,-29000,3000,200000,227721,
-1224,-8376,12976,-27748,-5318,-4069,-30000,3000,200000,227723,
-1120,-8484,12752,-27905,-5646,-4070,-30000,3000,200000,227726,
-1072,-9400,12404,-29265,-7394,-3909,-33000,2000,200000,227738,
-900,-9468,12348,-29454,-7818,-3880,-34000,2000,200000,227740,
-1096,-11008,12888,-30931,-10320,-3632,-37000,1000,200000,227753,
-1108,-11232,12824,-31097,-10779,-3519,-37000,1000,200000,227755,
-1136,-11704,13076,-31335,-11216,-3456,-38000,1000,200000,227757,
-1160,-13688,14864,-32023,-14099,-2807,-41000,0,201000,227770,
-1164,-14016,15104,-32077,-14607,-2672,-41000,0,201000,227772,
-624,-16000,16116,-32610,-17709,-1572,-45000,-1000,202000,227785,
-632,-16736,17120,-32016,-18351,-1416,-45000,-1000,202000,227787,
-308,-16780,16800,-31477,-18602,-1136,-46000,-1000,203000,227789,
1692,-18564,16248,-30433,-21005,-674,-49000,-3000,204000,227801,
2012,-18756,16308,-30043,-20942,-599,-49000,-3000,204000,227804,
4864,-19492,16452,-27828,-22112,-1139,-52000,-4000,206000,227816,
5396,-19732,16168,-27292,-22029,-1242,-52000,-5000,206000,227818,
5672,-19552,15976,-26857,-21924,-1343,-53000,-5000,206000,227821,
8528,-17388,13156,-19942,-11565,-3495,-59000,-8000,209000,227859,
8692,-17536,13052,-19589,-10613,-3627,-59000,-8000,209000,227861,
8744,-17376,12792,-19325,-9606,-3740,-60000,-8000,209000,227864,
8556,-16936,12364,-18090,-4799,-4297,-61000,-9000,209000,227876,
8276,-16804,12372,-17898,-3882,-4452,-62000,-9000,209000,227879,
7188,-17400,12432,-16935,-826,-4485,-63000,-10000,209000,227891,
6780,-17304,12664,-16822,-518,-4366,-64000,-10000,209000,227893,
6556,-17264,12664,-16574,-318,-4315,-64000,-10000,209000,227896,
4708,-17168,13220,-15572,686,-3638,-65000,-10000,209000,227908,
4656,-17132,13556,-15303,553,-3447,-65000,-10000,209000,227910,
3836,-17268,14804,-14261,-848,-2631,-67000,-10000,209000,227923,
3764,-17376,15088,-13970,-1179,-2450,-67000,-10000,209000,227925,
3804,-17328,15396,-13706,-1474,-2296,-67000,-10000,209000,227927,
5492,-17888,15688,-11829,-3262,-1835,-68000,-11000,209000,227940,
5864,-17976,15664,-11444,-3417,-1842,-68000,-11000,209000,227942,
7128,-17544,14040,-9604,-2858,-1601,-69000,-11000,209000,227954,
7084,-17372,13788,-9320,-2504,-1402,-69000,-11000,209000,227957,
7004,-17100,13500,-9025,-2166,-1145,-70000,-11000,209000,227959,
6588,-16408,12620,-8087,-396,-264,-70000,-11000,209000,227971,
6416,-16280,12564,-7877,-221,-256,-70000,-11000,209000,227973,
5372,-15944,12576,-7001,313,-300,-71000,-11000,209000,227986,
5632,-15932,12804,-5538,269,264,-71000,-11000,209000,228004,
5636,-15932,12912,-5320,287,230,-72000,-11000,209000,228006,
5688,-15772,12936,-5145,215,237,-72000,-11000,209000,228009,
5684,-15824,13180,-4156,-69,160,-72000,-11000,209000,228021,
5564,-15860,13208,-3922,-208,143,-72000,-11000,209000,228024,
5668,-16040,13216,-3713,-291,138,-72000,-11000,209000,228026,
5540,-16140,13196,-2519,-608,202,-72000,-11000,209000,228038,
5528,-16068,13268,-2337,-644,245,-72000,-11000,209000,228041,
5500,-16108,13224,-2127,-679,294,-72000,-11000,209000,228043,
5292,-15928,13108,-1085,-639,780,-72000,-11000,209000,228055,
5316,-15884,13356,-803,-633,860,-72000,-11000,209000,228058,
5360,-15896,13352,-663,-531,920,-72000,-11000,209000,228060,
6380,-15812,13708,432,136,1281,-72000,-11000,209000,228072,
6644,-15712,13624,594,266,1321,-72000,-11000,209000,228074,
7340,-15772,13588,1577,1738,1463,-72000,-11000,209000,228087,
7428,-15832,13700,1729,2089,1500,-72000,-11000,209000,228089,
7340,-15944,13504,1948,2459,1527,-71000,-11000,209000,228091,
7008,-15888,13800,2827,5104,1995,-71000,-11000,209000,228104,
6912,-15816,14052,3026,5357,2120,-71000,-11000,208000,228106,
6656,-15932,13860,3170,5608,2222,-71000,-11000,208000,228108,
5148,-16028,14048,4253,6242,2528,-70000,-10000,208000,228121,
4216,-16504,13608,9070,2442,3199,-67000,-9000,207000,228165,
4280,-16476,13636,9323,2463,3197,-66000,-9000,207000,228168,
4696,-16568,13600,9492,2493,3190,-66000,-9000,207000,228170,
5312,-16200,13600,10387,3200,3084,-65000,-8000,207000,228182,
5416,-16176,13500,10480,3359,3074,-65000,-8000,207000,228185,
5484,-16076,13588,10558,3554,3060,-65000,-8000,207000,228187,
5176,-15968,13816,11184,4719,3009,-63000,-8000,207000,228199,
5172,-15960,13880,11292,4976,3043,-63000,-8000,207000,228202,
5160,-15968,13900,11473,5101,3027,-63000,-8000,207000,228204,
4304,-15932,13592,12168,5466,3094,-62000,-7000,206000,228216,
4104,-15700,13700,12277,5423,3132,-61000,-7000,206000,228219,
3324,-15644,13756,12976,5064,3217,-60000,-7000,206000,228231,
3376,-15644,13732,13044,4829,3221,-60000,-7000,206000,228233,
3168,-15556,13752,13156,4710,3262,-60000,-6000,206000,228236,
3456,-15476,13684,13711,3923,3157,-58000,-6000,206000,228248,
3540,-15540,13636,14072,3857,3148,-58000,-6000,206000,228250,
3592,-15436,13588,14151,3779,3055,-58000,-6000,206000,228253,
3712,-15376,13360,14245,3558,2910,-56000,-5000,205000,228265,
3872,-15284,13212,14691,3587,2861,-56000,-5000,205000,228267,
3864,-15272,13432,14443,3601,2882,-56000,-5000,205000,228269,
4156,-14900,13204,15070,3683,2746,-54000,-5000,205000,228282,
4212,-14840,13196,15148,3751,2710,-54000,-5000,205000,228284,
3128,-13848,13868,15985,3850,2211,-48000,-4000,205000,228329,
3000,-13896,13908,16048,3694,2191,-48000,-3000,205000,228331,
2988,-13832,14044,16043,3585,2144,-48000,-3000,205000,228334,
3284,-13928,14332,16418,3042,1883,-46000,-3000,205000,228346,
3332,-14008,14576,16442,2891,1796,-46000,-3000,205000,228349,
3328,-13940,14592,16613,2829,1735,-45000,-3000,204000,228351,
3200,-13800,14240,16991,2361,1341,-44000,-3000,204000,228363,
3092,-13628,14180,17090,2311,1264,-44000,-3000,204000,228365,
2900,-13528,14140,17070,2177,1239,-43000,-3000,204000,228368,
2396,-13004,14228,17239,1930,1045,-42000,-3000,204000,228380,
2548,-12928,14352,17166,1879,1077,-41000,-3000,204000,228382,
2416,-12380,14536,17269,1368,1142,-40000,-2000,204000,228395,
2348,-12480,14780,17191,1258,1141,-39000,-2000,204000,228397,
2476,-12456,14704,17276,1206,1124,-39000,-2000,204000,228399,
2832,-12204,14760,17493,1167,1124,-37000,-2000,204000,228412,
2888,-12212,14732,17548,1220,1079,-37000,-2000,204000,228414,
2880,-12088,14676,17596,1195,1107,-37000,-2000,204000,228416,
2592,-11628,14820,17715,1661,1046,-35000,-2000,204000,228429,
2656,-11544,14752,17675,1662,1057,-35000,-2000,204000,228431,
2664,-11432,14768,17639,1717,1033,-35000,-2000,204000,228433,
1632,-9896,15540,18402,559,930,-27000,-2000,205000,228484,
1796,-9596,15664,18391,447,897,-27000,-2000,205000,228486,
1804,-9560,15608,18395,473,803,-27000,-2000,205000,228489,
1836,-8900,15520,18423,708,529,-25000,-2000,205000,228501,
1792,-8940,15512,18441,779,515,-25000,-2000,205000,228503,
1600,-8836,15344,18483,912,525,-24000,-2000,205000,228506,
1252,-8396,15068,18215,1321,649,-23000,-1000,205000,228518,
1260,-8256,14832,18298,1352,693,-22000,-1000,205000,228520,
1284,-8176,14892,18166,1361,750,-22000,-1000,205000,228522,
1212,-7928,14464,18099,1519,888,-20000,-1000,205000,228535,
1248,-7836,14552,18047,1517,900,-20000,-1000,205000,228537,
1132,-7844,14404,18012,1588,901,-20000,-1000,205000,228539,
1112,-7136,14456,17927,1665,920,-18000,-1000,205000,228552,
1072,-7092,14420,17993,1731,901,-18000,-1000,205000,228554,
944,-6924,14540,18007,1705,906,-17000,-1000,205000,228556,
740,-6164,14644,17928,1586,884,-16000,-1000,205000,228568,
712,-6184,14540,17954,1537,881,-16000,-1000,205000,228571,
596,-6140,14544,17829,1536,904,-15000,-1000,205000,228573,
92,-5596,14408,17679,1373,969,-14000,-1000,205000,228585,
0,-5656,14456,17548,1310,1028,-13000,-1000,205000,228588,
-80,-5600,14412,17559,1296,1009,-13000,-1000,205000,228590,
-264,-5220,14352,17454,865,1181,-11000,0,205000,228602,
812,-2624,13272,16530,496,1174,-6000,0,205000,228645,
876,-2620,13188,16514,613,1131,-6000,0,205000,228648,
852,-2580,13124,16407,649,1120,-5000,0,205000,228650,
920,-2484,12872,16253,784,1111,-5000,0,205000,228652,
800,-1916,12540,15732,1531,1034,-4000,0,205000,228665,
748,-1976,12396,15664,1601,1024,-3000,0,205000,228667,
648,-1760,12392,15555,1719,1006,-3000,0,205000,228669,
260,-1104,11828,15057,1944,1028,-2000,0,205000,228681,
372,-1372,12672,15239,2106,1042,-1000,0,206000,228684,
628,-988,12416,15146,2463,1170,-1000,0,206000,228686,
164,-300,11828,14017,2060,938,0,0,206000,228698,
24,-116,11544,14001,1996,945,0,0,206000,228700,
-68,-64,11464,13934,2067,977,0,0,206000,228703,
-180,16,11744,13606,2003,1006,0,0,206000,228705,
-320,368,11600,12942,1762,1120,1000,0,206000,228717,
-404,420,11532,12785,1641,1138,1000,0,206000,228719,
-340,464,11472,12626,1555,1134,2000,0,206000,228722,
-228,512,11436,12578,1551,1141,2000,0,206000,228724,
132,1040,11100,11881,1088,1146,3000,0,206000,228736,
184,980,11244,11788,1056,1112,3000,0,206000,228738,
724,2636,11048,7791,2486,603,7000,1000,206000,228800,
724,2748,11100,7748,2558,560,7000,1000,206000,228803,
700,2736,11004,7545,2598,518,7000,1000,206000,228805,
520,2736,10912,7443,2710,494,7000,1000,206000,228807,
156,3008,11180,6701,3068,356,8000,1000,206000,228820,
192,3036,11108,6619,3102,362,8000,1000,206000,228822,
156,3120,11384,6538,3152,328,8000,1000,207000,228824,
224,3412,11340,5955,3162,411,9000,2000,207000,228836,
144,3480,11164,5900,3146,409,9000,2000,207000,228838,
204,3516,11276,5742,3115,472,9000,2000,207000,228841,
472,3920,11684,5293,2989,309,10000,2000,207000,228853,
420,4112,11612,5061,3000,339,10000,2000,207000,228855,
420,4240,11704,4934,3038,283,10000,2000,207000,228858,
344,4640,12020,4275,3122,90,10000,2000,207000,228870,
276,4660,12180,4202,3149,77,11000,2000,207000,228872,
212,4624,11948,4087,3133,24,11000,2000,207000,228874,
184,4748,12208,3964,3093,-2,11000,2000,207000,228877,
8,5128,12316,3422,2941,-37,11000,3000,207000,228889,
0,5224,12480,3242,2882,-17,11000,3000,207000,228891,
4,5308,12528,3127,2824,-47,11000,3000,207000,228893,
160,5540,13016,2532,2672,11,12000,3000,207000,228906,
208,5656,13044,2448,2721,-14,12000,3000,207000,228908,
-208,6064,14632,505,2569,-900,12000,4000,207000,228967,
-184,6012,14772,429,2512,-874,12000,4000,207000,228969,
-268,5944,14700,347,2499,-903,12000,4000,207000,228971,
-172,5984,15092,220,2288,-899,12000,5000,207000,228984,
-132,5836,15104,192,2307,-937,12000,5000,207000,228986,
-252,5900,15184,237,2199,-911,12000,5000,207000,228988,
-532,6240,15352,117,2155,-978,12000,5000,207000,229001,
-608,6308,15308,74,2038,-965,12000,5000,207000,229003,
-464,6316,15528,-8,2016,-945,12000,5000,207000,229005,
-672,6612,15600,-123,1719,-809,12000,5000,207000,229018,
-748,6580,15540,-178,1700,-820,12000,5000,207000,229020,
-744,6680,15636,-249,1652,-770,12000,5000,207000,229022,
-872,6636,15944,-466,1482,-509,12000,5000,207000,229034,
-880,6644,16092,-431,1424,-440,12000,5000,207000,229037,
-900,6640,16120,-523,1312,-384,12000,5000,207000,229039,
-628,6664,16156,-478,964,-279,12000,5000,207000,229051,
-564,6672,16288,-540,942,-290,12000,5000,207000,229053,
-560,6744,16212,-544,1010,-303,12000,5000,207000,229056,
-296,6948,16296,-552,905,-287,12000,5000,207000,229068,
-428,6820,16180,-540,945,-342,12000,5000,207000,229070,
-312,6884,15888,-591,878,-341,12000,5000,207000,229073,
-1020,6076,16288,-481,-294,-583,12000,5000,206000,229119,
-980,6076,16240,-379,-417,-615,12000,5000,206000,229121,
-920,6012,16284,-379,-470,-604,12000,5000,206000,229124,
-904,6040,16160,-237,-688,-594,12000,5000,206000,229136,
-836,6216,16112,-246,-694,-608,12000,5000,206000,229138,
-872,6144,16164,-217,-681,-623,12000,5000,206000,229141,
-756,6148,15932,-312,-472,-552,12000,5000,206000,229153,
-784,6196,16068,-298,-458,-504,12000,5000,206000,229155,
-916,6084,15936,-322,-445,-451,12000,5000,206000,229158,
-848,5876,15912,-400,-229,-301,12000,5000,206000,229170,
-840,5880,15808,-461,-216,-297,12000,5000,206000,229172,
-924,5812,15844,-454,-158,-263,12000,5000,206000,229174,
-1168,5580,15600,-494,-55,-189,12000,5000,206000,229187,
-1176,5492,15604,-498,-10,-171,12000,5000,206000,229189,
-1292,5520,15708,-443,-46,-165,12000,5000,206000,229191,
-1532,5440,15928,-470,-200,5,12000,5000,206000,229204,
-1484,5468,15796,-422,-327,18,12000,5000,206000,229206,
-1492,5420,15760,-426,-384,56,12000,5000,206000,229208,
-1268,5508,15632,-413,-640,165,12000,5000,206000,229220,
-1200,5584,15744,-423,-671,185,12000,5000,206000,229223,
-912,5512,15484,-381,-623,235,12000,5000,206000,229257,
-1072,5440,15392,-344,-587,215,12000,5000,206000,229259,
-956,5508,15256,-322,-613,230,12000,5000,206000,229261,
-1072,5616,15212,-388,-502,242,12000,5000,206000,229274,
-952,5548,15352,-377,-537,273,12000,5000,206000,229276,
