Ax,Ay,Az,Gx,Gy,Gz,Roll,Pitch,Yaw,Timestamp,Target
-2684,3092,15168,-741,550,-348,4000,15000,142000,367781,
-2624,3112,15208,-719,511,-346,4000,15000,142000,367794,
-2640,3028,15452,-722,448,-397,4000,15000,142000,367796,
-2584,2980,15256,-730,463,-411,4000,15000,142000,367799,
-2940,3036,15360,-805,406,-437,3000,15000,142000,367811,
-2864,2960,15364,-761,421,-423,3000,15000,142000,367813,
-2900,3008,15220,-783,436,-401,3000,15000,142000,367816,
-2792,2912,15268,-697,367,-438,3000,15000,142000,367828,
-2872,2996,15464,-728,314,-456,3000,15000,142000,367831,
-2836,2948,15456,-687,369,-454,3000,15000,142000,367833,
-2908,3024,15508,-736,331,-393,3000,15000,142000,367845,
-2804,2884,15184,-712,292,-404,3000,15000,142000,367848,
-2904,2972,15324,-708,335,-432,3000,15000,142000,367850,
-2856,2960,15240,-742,286,-404,3000,15000,142000,367863,
-2916,3024,15188,-697,329,-416,3000,15000,142000,367865,
-2872,2996,15324,-725,269,-415,3000,15000,142000,367867,
-2840,3156,15140,-710,385,-387,3000,15000,142000,367880,
-3024,3148,15324,-684,352,-405,3000,15000,142000,367882,
-3028,3024,15272,-687,415,-426,3000,15000,142000,367885,
-3172,3016,15124,-730,320,-335,3000,15000,142000,367897,
-3188,3060,15420,-756,314,-292,3000,15000,142000,367899,
-3096,3048,15272,-736,310,-292,3000,15000,142000,367902,
-3204,3084,15264,-771,217,-255,3000,15000,142000,367914,
-3196,3036,15220,-732,294,-243,3000,15000,142000,367916,
-3196,2980,15164,-778,246,-238,3000,15000,142000,367919,
-3300,3032,15324,-764,196,-157,3000,15000,142000,367931,
-3212,2872,15312,-786,202,-130,3000,15000,142000,367934,
-3136,2960,15276,-756,194,-124,3000,15000,142000,367936,
-3088,3004,15252,-748,215,-71,3000,15000,142000,367949,
-2920,2920,15260,-702,295,-56,3000,15000,142000,367951,
-3012,2964,15548,-755,279,-77,3000,15000,142000,367953,
-3144,2868,15344,-691,367,-88,3000,15000,142000,367966,
-3112,2912,15440,-742,371,-68,3000,15000,142000,367968,
-3064,2928,15308,-690,363,-47,3000,15000,142000,367970,
-3056,2840,15416,-662,470,-51,3000,15000,142000,367983,
-3096,2800,15436,-652,438,-41,3000,15000,142000,367985,
-3152,2884,15220,-650,550,-39,3000,15000,142000,367988,
-3096,2912,15220,-596,533,12,3000,15000,142000,368000,
-3008,2800,15248,-572,547,5,3000,15000,142000,368002,
-3160,2940,15156,-596,482,-7,3000,15000,142000,368005,
-3140,2916,15048,-558,506,-4,3000,15000,142000,368007,
-3168,3008,15024,-588,354,37,3000,15000,142000,368020,
-3148,2908,15104,-531,392,32,3000,15000,142000,368022,
-3044,3020,15108,-616,336,73,3000,15000,142000,368024,
-3008,2980,15224,-604,334,48,3000,15000,142000,368037,
-2956,2980,15208,-558,308,77,3000,15000,142000,368039,
-2988,2956,15280,-580,352,59,3000,15000,142000,368041,
-2832,2988,15224,-587,383,69,3000,15000,142000,368054,
-2852,2980,15224,-572,465,55,3000,15000,142000,368056,
-2876,3032,15164,-639,405,31,3000,15000,142000,368058,
-2960,3016,15212,-577,442,27,3000,15000,142000,368061,
-2972,2996,15088,-667,436,-18,3000,15000,142000,368073,
-3088,2940,15208,-609,503,15,3000,15000,142000,368075,
-3064,2928,15088,-667,502,8,3000,15000,142000,368078,
-2948,3044,15352,-679,461,2,3000,15000,142000,368090,
-3032,2908,15272,-629,494,-31,3000,15000,142000,368093,
-2980,2828,15220,-690,430,4,3000,15000,142000,368095,
-3108,2908,15092,-655,529,26,3000,15000,142000,368107,
-2972,2896,15168,-666,512,40,3000,15000,142000,368110,
-2980,2844,15204,-636,515,23,3000,15000,142000,368112,
-2992,2892,15208,-697,476,32,3000,15000,142000,368114,
-3132,2844,15272,-637,504,32,3000,15000,142000,368127,
-3076,2904,15120,-693,429,25,3000,15000,142000,368129,
-3072,2944,15188,-635,490,46,3000,15000,142000,368132,
-2896,2792,15276,-674,399,51,3000,15000,142000,368144,
-2996,2840,15232,-643,490,31,3000,15000,142000,368147,
-2988,2996,15264,-688,383,43,3000,15000,142000,368149,
-3004,2836,15328,-621,461,41,3000,15000,142000,368161,
-2980,2948,15308,-687,412,39,3000,15000,142000,368164,
-2960,2888,15404,-646,426,52,3000,15000,142000,368166,
-3064,2840,15200,-638,414,60,3000,15000,142000,368168,
-3008,2884,15288,-566,471,-4,3000,15000,142000,368181,
-3016,2804,15420,-625,448,-3,3000,15000,142000,368183,
-2952,2912,15344,-557,480,-6,3000,15000,142000,368186,
-2960,2888,15312,-597,446,-35,3000,15000,142000,368198,
-2928,2884,15164,-523,449,-20,3000,15000,142000,368200,
-2908,2940,15136,-566,391,-39,3000,15000,142000,368203,
-3000,2812,15312,-513,410,-121,3000,15000,142000,368215,
-3096,2768,15276,-578,381,-83,3000,15000,142000,368218,
-3004,2868,15176,-508,370,-104,3000,15000,142000,368220,
-3064,2816,15276,-545,370,-103,3000,15000,142000,368232,
-3128,2852,15388,-465,413,-110,3000,15000,142000,368235,
-3008,2920,15348,-514,378,-106,3000,15000,142000,368237,
-3092,2752,15420,-418,440,-127,3000,15000,142000,368250,
-3088,2680,15392,-466,392,-154,3000,15000,142000,368252,
-3040,2792,15308,-430,412,-147,3000,15000,142000,368254,
-3124,2756,15456,-421,423,-145,3000,16000,142000,368267,
-3120,2708,15456,-338,483,-145,3000,16000,142000,368269,
-2952,2696,15392,-396,446,-152,3000,16000,142000,368271,
-3232,2888,15352,-288,460,-165,3000,16000,142000,368284,
-3124,2864,15332,-344,435,-195,3000,16000,142000,368286,
-3204,2740,15328,-289,463,-169,3000,16000,142000,368289,
-3100,2852,15320,-333,411,-148,3000,16000,142000,368301,
-3092,2744,15272,-264,426,-136,3000,16000,142000,368303,
-3084,2688,15288,-314,434,-161,3000,16000,142000,368306,
-3124,2880,15252,-245,446,-167,3000,16000,142000,368318,
-3096,2816,15336,-272,420,-190,3000,16000,142000,368321,
-3052,2800,15132,-225,432,-218,3000,16000,142000,368323,
-3060,2852,15244,-314,356,-240,3000,16000,142000,368335,
-3008,2844,15352,-257,406,-249,3000,16000,142000,368338,
-3048,2836,15344,-336,353,-271,3000,16000,142000,368340,
-3004,2816,15504,-232,460,-249,3000,16000,142000,368353,
-3080,2776,15360,-254,356,-266,3000,16000,142000,368355,
-3148,2864,15268,-238,423,-274,3000,16000,142000,368357,
-3076,2860,15204,-202,357,-231,3000,16000,142000,368370,
-3136,2788,15296,-209,416,-222,3000,16000,142000,368372,
-2972,2788,15292,-240,369,-247,3000,16000,142000,368374,
-3120,2792,15240,-249,306,-229,3000,16000,142000,368387,
-3060,2756,15120,-206,388,-219,3000,16000,142000,368389,
-3196,2824,15152,-255,321,-210,3000,16000,142000,368392,
-3060,2844,15184,-252,375,-193,3000,16000,142000,368404,
-3032,2936,14996,-312,359,-243,3000,16000,142000,368407,
-3116,2828,14952,-271,381,-234,3000,16000,142000,368409,
-3132,2764,15080,-367,304,-246,3000,16000,142000,368421,
-3228,2752,15080,-375,226,-243,3000,16000,142000,368424,
-3144,2796,15056,-367,226,-271,3000,16000,142000,368426,
-3216,2836,15172,-448,169,-303,3000,16000,142000,368439,
-3140,2916,15196,-481,123,-316,3000,16000,142000,368441,
-3128,2888,15096,-437,168,-316,3000,16000,142000,368443,
-3160,2824,15244,-521,140,-347,3000,16000,142000,368456,
-3248,2780,15132,-519,214,-371,3000,16000,142000,368458,
-3056,2832,15184,-562,124,-386,3000,16000,142000,368460,
-3076,2836,15224,-526,160,-383,3000,16000,142000,368473,
-3248,2860,15316,-529,127,-376,3000,16000,142000,368475,
-3188,2900,15320,-550,118,-406,3000,16000,142000,368477,
-3196,2792,15088,-533,121,-328,3000,16000,142000,368490,
-3276,2780,15172,-590,76,-330,3000,16000,142000,368492,
-3236,2856,15152,-518,116,-326,3000,16000,142000,368494,
-3220,2824,15148,-581,111,-288,3000,16000,142000,368507,
-3140,2896,14996,-537,164,-303,3000,16000,142000,368509,
-3068,2928,15100,-580,100,-343,3000,16000,142000,368512,
-3376,2948,15092,-553,217,-295,3000,16000,142000,368524,
-3300,2952,15252,-622,149,-298,3000,16000,142000,368527,
-3100,2892,15048,-572,206,-314,3000,16000,142000,368529,
-3188,2904,15120,-589,212,-329,3000,16000,142000,368541,
-3176,3000,15188,-607,227,-331,3000,16000,142000,368544,
-3156,2932,15096,-621,189,-338,3000,16000,142000,368546,
-3248,2936,15136,-663,194,-376,3000,16000,142000,368559,
-3208,2916,15288,-645,191,-343,3000,16000,142000,368561,
-3240,2924,14984,-661,231,-357,3000,16000,142000,368563,
-3304,2828,15156,-683,136,-417,3000,16000,142000,368576,
-3240,2880,15220,-677,183,-428,3000,16000,142000,368578,
-3324,2840,15100,-713,101,-466,3000,16000,142000,368580,
-3396,2820,15300,-696,159,-458,3000,16000,142000,368593,
-3352,2900,15140,-691,98,-445,3000,16000,142000,368595,
-3328,2880,15180,-705,84,-443,3000,16000,142000,368598,
-3352,2768,15124,-691,118,-424,3000,15000,141000,368610,
-3336,2816,15164,-686,88,-426,3000,15000,141000,368612,
-3396,2800,15104,-677,172,-414,3000,15000,141000,368615,
-3192,2816,15232,-626,133,-393,3000,15000,141000,368627,
-3228,2848,15188,-643,113,-391,3000,15000,141000,368629,
-3192,2892,15380,-598,186,-400,3000,15000,141000,368632,
-3380,2888,15424,-636,125,-347,3000,15000,141000,368644,
-3268,2800,15228,-593,183,-344,3000,15000,141000,368646,
-3384,2840,15212,-616,113,-354,3000,15000,141000,368649,
-3280,2924,15256,-586,184,-384,3000,15000,141000,368661,
-3296,2980,15236,-588,124,-358,3000,15000,141000,368664,
-3328,2964,15156,-609,224,-355,3000,15000,141000,368666,
-3272,2796,15148,-614,126,-312,3000,15000,141000,368678,
-3300,2808,15144,-601,152,-323,3000,15000,141000,368681,
-3264,2696,15084,-594,125,-317,3000,15000,141000,368683,
-3252,2844,15112,-589,192,-342,3000,15000,141000,368696,
-3172,2864,15016,-511,225,-308,3000,15000,141000,368698,
-3200,2844,15132,-545,303,-301,3000,15000,141000,368700,
-3348,2828,15080,-503,311,-304,3000,15000,141000,368713,
-3284,2820,15084,-560,277,-317,3000,15000,141000,368715,
-3332,2832,15140,-501,329,-311,3000,15000,141000,368717,
-3336,2816,15108,-519,325,-315,3000,15000,141000,368730,
-3440,2824,15192,-461,348,-290,3000,15000,141000,368732,
-3296,2852,15088,-480,346,-302,3000,15000,141000,368735,
-3508,2768,15152,-429,354,-292,3000,15000,141000,368747,
-3464,2756,15136,-490,337,-277,3000,15000,141000,368749,
-3544,2744,15064,-439,352,-251,3000,15000,141000,368752,
-3400,2744,14984,-447,376,-240,3000,16000,141000,368764,
-3416,2808,15092,-391,352,-245,3000,16000,141000,368767,
-3308,2680,15064,-405,431,-239,3000,16000,141000,368769,
-3216,2724,15072,-356,427,-217,3000,16000,141000,368782,
-3332,2768,15012,-372,508,-230,3000,16000,141000,368784,
-3284,2716,15124,-373,463,-226,3000,16000,141000,368786,
-3416,2704,15016,-362,604,-269,3000,16000,141000,368799,
-3372,2732,15104,-351,557,-215,3000,16000,141000,368801,
-3336,2772,14936,-336,614,-264,3000,16000,141000,368803,
-3548,2692,14996,-368,528,-277,3000,16000,141000,368816,
-3496,2616,15064,-332,617,-258,3000,16000,141000,368818,
-3520,2740,14972,-396,525,-281,3000,16000,141000,368821,
-3480,2712,15152,-347,594,-247,3000,16000,141000,368833,
-3576,2812,15176,-395,542,-243,3000,16000,141000,368836,
-3468,2696,15208,-333,588,-263,3000,16000,141000,368838,
-3408,2664,15144,-405,561,-219,3000,16000,141000,368850,
-3408,2680,15232,-321,605,-248,3000,16000,141000,368853,
-3360,2780,15192,-381,642,-260,3000,16000,141000,368855,
-3432,2720,15384,-343,623,-276,3000,16000,141000,368868,
-3368,2772,15140,-410,591,-274,3000,16000,141000,368870,
-3352,2704,15064,-367,595,-240,3000,16000,141000,368872,
-3348,2724,15124,-414,635,-246,3000,16000,141000,368885,
-3272,2720,14976,-411,604,-237,3000,16000,141000,368887,
-3232,2836,15008,-424,649,-264,3000,16000,141000,368889,
-3308,2720,14952,-498,622,-308,3000,16000,141000,368902,
-3368,2800,15016,-491,738,-275,3000,16000,141000,368904,
-3412,2744,14972,-543,633,-270,3000,16000,141000,368906,
-3448,2816,15124,-599,620,-260,3000,16000,141000,368919,
-3460,2736,14972,-629,516,-247,3000,16000,141000,368921,
-3404,2784,15168,-618,571,-258,3000,16000,141000,368923,
-3412,2752,15116,-745,361,-230,3000,16000,141000,368936,
-3352,2816,15316,-696,413,-195,2000,16000,141000,368938,
-3380,2744,15200,-766,337,-211,2000,16000,141000,368941,
-3300,2764,15208,-819,211,-215,2000,16000,141000,368953,
-3288,2720,15360,-754,252,-217,2000,16000,141000,368955,
-3336,2712,15292,-826,205,-221,2000,16000,141000,368958,
-3060,2740,15400,-831,206,-211,2000,16000,141000,368970,
-3080,2684,15308,-835,252,-224,2000,16000,141000,368973,
-3012,2708,15156,-850,193,-246,2000,16000,141000,368975,
-2996,2672,15244,-840,277,-285,2000,16000,141000,368987,
-3032,2784,15260,-862,216,-262,2000,16000,141000,368990,
-3088,2772,15344,-834,300,-281,2000,16000,141000,368992,
-3016,2596,15188,-988,131,-336,2000,16000,141000,369005,
-2896,2508,15272,-1018,109,-347,2000,16000,141000,369007,
-3016,2472,15276,-1041,13,-357,2000,16000,141000,369009,
-3020,1880,15708,-1412,-849,-379,2000,16000,141000,369022,
-2892,1792,15680,-1444,-1033,-388,2000,16000,141000,369024,
-2748,1684,15664,-1597,-1324,-341,2000,16000,141000,369026,
-1120,852,16664,-2299,-2691,-325,2000,15000,141000,369039,
-884,688,17028,-2457,-3031,-406,2000,15000,141000,369041,
-200,608,17096,-2532,-3372,-463,2000,15000,141000,369043,
3988,-1284,19104,-3506,-4162,-1398,1000,15000,141000,369056,
4856,-1504,19472,-3630,-4003,-1702,1000,15000,141000,369058,
6048,-1876,20012,-3675,-3667,-2084,1000,14000,141000,369061,
10140,-3832,21900,-3058,-1125,-4823,1000,14000,140000,369073,
10688,-4120,22072,-2888,-400,-5423,1000,14000,140000,369076,
11404,-4508,22420,-2685,401,-5974,1000,14000,140000,369078,
13792,-6264,23264,-1939,4623,-9681,0,14000,139000,369090,
13832,-6564,23164,-1709,5516,-10455,0,14000,139000,369093,
13732,-6812,23216,-1497,6396,-11196,0,14000,139000,369095,
11056,-8080,23284,149,8903,-15465,0,15000,137000,369108,
10412,-8156,23304,471,8954,-16204,0,15000,137000,369110,
9872,-8284,23316,794,8810,-16981,0,15000,136000,369112,
5740,-8512,22748,2758,6141,-20662,0,16000,134000,369125,
5140,-8376,22496,3224,5270,-21345,0,16000,134000,369127,
4408,-8384,22504,3613,4335,-21933,0,16000,134000,369130,
772,-7700,21564,5281,-2293,-24900,-1000,15000,131000,369142,
424,-7436,21260,5515,-3804,-25457,-1000,15000,131000,369144,
-124,-7196,21224,5598,-5160,-25866,-1000,15000,130000,369147,
-1720,-6132,20152,5747,-13499,-28189,-1000,14000,127000,369159,
-1912,-6172,20240,5653,-14938,-28613,-1000,13000,127000,369162,
-1744,-5868,19936,5607,-16325,-28960,-1000,13000,126000,369164,
-1268,-5428,19216,4799,-22916,-30601,-1000,11000,123000,369177,
-976,-5272,18908,4668,-24017,-30894,-2000,10000,123000,369179,
-712,-5096,18792,4444,-24997,-31165,-2000,10000,122000,369181,
1740,-4956,17964,3787,-28928,-32657,-2000,7000,119000,369194,
2248,-4952,17984,3623,-29245,-32768,-2000,6000,118000,369196,
5112,-4840,16824,2983,-29439,-32768,-2000,3000,115000,369209,
5860,-4700,16448,2785,-28952,-32768,-2000,3000,115000,369211,
6344,-4580,16312,2606,-28617,-32768,-2000,2000,114000,369213,
8348,-3984,15232,842,-24462,-32768,-2000,0,111000,369226,
8640,-4016,15068,594,-23726,-32768,-2000,0,111000,369228,
8824,-4028,15128,294,-22644,-32768,-2000,0,110000,369230,
8628,-5460,17712,1048,-18262,-32768,-2000,-2000,107000,369243,
8260,-6696,18208,2164,-17433,-32768,-2000,-3000,107000,369245,
8204,-7336,17552,3234,-16416,-32768,-2000,-3000,106000,369247,
7308,-6072,16620,3134,-12595,-32768,-1000,-5000,103000,369260,
7100,-5580,16580,3154,-11780,-32768,-1000,-5000,102000,369262,
6844,-5180,16808,3205,-11262,-32768,-1000,-5000,102000,369265,
4604,-4956,17616,1744,-8977,-32768,-1000,-6000,99000,369277,
4228,-5248,17744,1484,-8775,-32768,-1000,-6000,98000,369279,
3884,-5504,17840,1169,-8628,-32768,0,-6000,97000,369282,
2188,-6424,16772,519,-7778,-32768,0,-7000,94000,369294,
2064,-6252,16804,260,-7717,-32768,0,-7000,94000,369297,
1892,-6072,16512,193,-7586,-32768,0,-7000,93000,369299,
668,-5604,15872,-1124,-8575,-32768,0,-8000,90000,369312,
460,-5720,16016,-1417,-8979,-32768,0,-8000,89000,369314,
152,-5700,15728,-1642,-9225,-32768,0,-9000,89000,369316,
220,-6380,15092,-2834,-11139,-32768,0,-10000,86000,369329,
524,-6176,14984,-3005,-11293,-32768,0,-10000,85000,369331,
740,-6168,14784,-3255,-11626,-32768,0,-10000,84000,369333,
1156,-5788,15668,-4415,-12179,-32768,0,-11000,81000,369346,
1124,-5968,16048,-4740,-12242,-32768,0,-11000,81000,369348,
796,-6280,16112,-4962,-12138,-32768,0,-12000,80000,369350,
-100,-7396,17564,-6152,-11992,-32768,0,-13000,77000,369363,
-372,-7536,18232,-6335,-11920,-32768,0,-13000,76000,369365,
-696,-7604,18588,-6710,-11991,-32768,0,-13000,76000,369368,
-2144,-8584,18612,-8181,-11539,-32768,0,-14000,73000,369380,
-1796,-8672,18324,-8451,-11406,-32768,0,-14000,72000,369382,
-1636,-8744,18204,-8610,-11027,-32768,0,-14000,71000,369385,
-56,-8972,17080,-9426,-8993,-32768,0,-15000,68000,369397,
68,-9244,16920,-9472,-8375,-32768,0,-15000,68000,369399,
216,-9424,16576,-9590,-7922,-32768,0,-15000,67000,369401,
1172,-10048,15428,-9666,-4032,-32768,0,-16000,64000,369414,
1496,-10112,15328,-9664,-3334,-32768,0,-16000,63000,369416,
1560,-10036,15100,-9543,-2404,-32768,0,-16000,63000,369419,
2100,-10056,14348,-9224,3113,-32768,0,-16000,59000,369431,
2168,-10048,14144,-8995,4345,-32768,-1000,-15000,59000,369434,
2016,-10040,14088,-8919,5480,-32768,-1000,-15000,58000,369436,
1712,-10120,13180,-8073,11616,-32768,-1000,-14000,55000,369449,
1720,-10128,13228,-8039,12640,-32768,-1000,-14000,54000,369451,
1588,-10180,13000,-7865,13711,-32768,-1000,-14000,54000,369453,
1296,-10388,11964,-7651,18445,-32768,-1000,-12000,51000,369466,
1168,-10364,11836,-7624,19254,-32768,-1000,-12000,50000,369468,
948,-10544,11348,-7620,20113,-32768,-1000,-11000,49000,369471,
-580,-11400,10816,-7678,23721,-32768,-1000,-9000,46000,369483,
-1252,-12012,11280,-7715,24245,-32768,-2000,-9000,46000,369486,
-5636,-14448,11444,-8315,26317,-32768,-2000,-6000,42000,369498,
-6584,-14680,11440,-8409,26459,-32768,-2000,-6000,42000,369500,
-7264,-14864,11676,-8512,26661,-32768,-2000,-5000,41000,369503,
-10544,-15464,13484,-9537,26044,-32768,-3000,-3000,38000,369515,
-11656,-15548,13452,-9833,25808,-32768,-3000,-2000,37000,369518,
-12124,-15732,13716,-9952,25460,-32768,-4000,-2000,37000,369520,
-14092,-15104,13780,-10504,22533,-30489,-5000,0,33000,369533,
-14128,-15004,13764,-10519,21699,-29547,-5000,0,33000,369535,
-13644,-13916,13616,-10478,17130,-25371,-6000,1000,30000,369548,
-13356,-13736,13412,-10376,16137,-24525,-7000,2000,30000,369550,
-13496,-13452,13280,-10318,15364,-23876,-7000,2000,29000,369552,
-12200,-11516,12912,-9078,11487,-20228,-8000,3000,27000,369565,
-11832,-11124,12960,-8868,11023,-19719,-8000,3000,27000,369567,
-11432,-10800,12840,-8490,10647,-19155,-8000,3000,27000,369570,
-10360,-9264,12092,-6325,9918,-16583,-9000,4000,25000,369582,
-10152,-9036,11960,-5800,9974,-16058,-9000,4000,24000,369585,
-10220,-7616,11272,-3239,10069,-13820,-10000,5000,23000,369597,
-10408,-7440,11256,-2828,9966,-13458,-10000,5000,23000,369599,
-10680,-7100,11136,-2374,9881,-13005,-10000,5000,22000,369602,
-12180,-6072,11124,-552,7815,-10781,-10000,6000,21000,369614,
-12572,-5856,11296,-306,7268,-10307,-10000,6000,21000,369617,
-12780,-5864,11348,-177,6608,-9929,-10000,7000,21000,369619,
-12996,-4996,12064,498,2808,-7563,-11000,7000,20000,369632,
-12732,-4856,12264,520,2098,-7198,-11000,7000,20000,369634,
-12684,-4812,12488,611,1453,-6831,-11000,7000,20000,369636,
-11328,-4308,13312,818,-1279,-5195,-11000,7000,19000,369649,
-11200,-4176,13532,864,-1557,-4888,-11000,7000,19000,369651,
-10740,-4012,13340,824,-1899,-4645,-11000,7000,19000,369654,
-9044,-3568,13040,922,-2596,-3661,-11000,7000,19000,369666,
-8832,-3540,12820,836,-2632,-3540,-11000,7000,19000,369669,
-8420,-3376,12752,908,-2454,-3408,-11000,7000,19000,369671,
-7512,-2820,12140,980,-985,-2705,-10000,7000,18000,369683,
-7500,-2796,12040,1058,-512,-2575,-10000,7000,18000,369686,
-7440,-2664,12224,991,-109,-2460,-10000,7000,18000,369688,
-7840,-2412,12428,905,1753,-2045,-10000,7000,18000,369701,
-7884,-2612,12508,795,1937,-1968,-10000,7000,18000,369703,
-8160,-2488,12640,736,2191,-1907,-10000,7000,18000,369705,
-8868,-2568,12968,112,2504,-1670,-10000,7000,18000,369718,
-9104,-2692,13080,49,2533,-1625,-10000,8000,18000,369720,
-9248,-2764,12992,-140,2399,-1586,-10000,8000,18000,369722,
-9848,-2904,12908,-663,2125,-1185,-11000,8000,18000,369735,
-9856,-2984,12892,-764,1950,-1122,-11000,8000,18000,369738,
-9856,-3028,12820,-863,1933,-1035,-11000,8000,18000,369740,
-9968,-3112,12804,-1276,1237,-528,-11000,8000,18000,369752,
-9952,-2980,12712,-1392,1102,-420,-11000,8000,18000,369755,
-9920,-3052,12676,-1425,1037,-302,-11000,8000,18000,369757,
-9820,-2856,12536,-1790,374,255,-11000,9000,18000,369770,
-9756,-2812,12404,-1799,290,356,-11000,9000,18000,369772,
-9800,-2804,12572,-1906,153,490,-11000,9000,18000,369774,
-9784,-2844,12916,-2111,-473,1242,-11000,9000,18000,369787,
-9856,-2848,12960,-2196,-664,1384,-11000,9000,18000,369789,
-9716,-2888,13028,-2176,-768,1556,-11000,9000,18000,369791,
-9336,-3112,13704,-2377,-1251,2357,-11000,9000,18000,369804,
-9160,-3088,13680,-2343,-1268,2469,-11000,9000,18000,369806,
-8956,-3156,13704,-2380,-1279,2617,-12000,9000,18000,369808,
-8492,-3448,13820,-2213,-1006,3264,-12000,9000,18000,369821,
-8352,-3372,13968,-2222,-910,3372,-12000,9000,18000,369823,
-8280,-3424,13852,-2158,-828,3473,-12000,9000,19000,369825,
-8328,-3696,13328,-1970,-330,4075,-12000,9000,19000,369838,
-8440,-3604,13264,-1945,-337,4199,-12000,9000,19000,369840,
-8336,-3812,12908,-1929,-312,4303,-12000,9000,19000,369842,
-9096,-4024,12792,-2004,-760,5111,-12000,10000,20000,369855,
-9128,-4076,12772,-2060,-923,5271,-12000,10000,20000,369857,
-9288,-4132,12756,-2043,-1136,5490,-12000,10000,20000,369860,
-9564,-4392,13500,-2493,-3016,6496,-12000,10000,20000,369872,
-9588,-4448,13536,-2526,-3434,6650,-12000,10000,21000,369875,
-9484,-4312,13872,-2713,-3961,6853,-12000,10000,21000,369877,
-7956,-4364,14952,-3135,-5924,7399,-13000,9000,22000,369890,
-7468,-4428,14968,-3210,-6139,7497,-13000,9000,22000,369892,
-6996,-4308,15132,-3158,-6091,7530,-13000,9000,22000,369894,
-5252,-4000,14872,-2662,-4842,7628,-13000,9000,23000,369907,
-4956,-3896,14760,-2584,-4501,7624,-13000,9000,23000,369909,
-5000,-3784,14772,-2399,-4043,7621,-13000,9000,23000,369912,
-5104,-3184,14312,-1801,-2209,7640,-13000,9000,24000,369924,
-5164,-3064,14140,-1665,-1995,7651,-13000,9000,24000,369927,
-5304,-3084,14272,-1633,-1754,7729,-13000,9000,24000,369929,
-5976,-2956,14168,-1391,-818,8007,-13000,9000,25000,369942,
-6056,-2916,14116,-1427,-712,8099,-13000,9000,25000,369944,
-6216,-2940,14180,-1334,-553,8172,-13000,9000,25000,369946,
-7088,-3008,14256,-1308,-162,8763,-13000,10000,26000,369959,
-7144,-2896,14184,-1264,-141,8841,-13000,10000,26000,369961,
-7312,-2948,14088,-1310,-173,8960,-13000,10000,26000,369964,
-7924,-3032,14008,-1375,-577,9639,-13000,10000,27000,369976,
-8072,-3024,13836,-1336,-659,9779,-13000,10000,27000,369979,
-8036,-3064,13764,-1384,-703,9918,-13000,10000,28000,369981,
-8092,-3208,13980,-1387,-1191,10644,-13000,10000,29000,369993,
-8224,-3368,13928,-1409,-1156,10751,-13000,10000,29000,369996,
-8192,-3776,14200,-1393,-1309,11584,-13000,11000,30000,370008,
-8232,-3976,14380,-1348,-1238,11662,-13000,11000,30000,370011,
-8304,-3960,14372,-1374,-1296,11896,-13000,11000,30000,370013,
-8344,-4648,14620,-1187,-921,12715,-12000,11000,32000,370026,
-8484,-4748,14492,-1170,-961,12803,-12000,11000,32000,370028,
-8380,-4792,14648,-1078,-756,13056,-12000,11000,32000,370030,
-8076,-5112,14784,-768,44,13812,-12000,11000,33000,370043,
-7916,-5012,14872,-644,381,13910,-12000,12000,34000,370045,
-7832,-5088,14808,-576,570,14107,-12000,12000,34000,370048,
-7524,-5200,15072,-19,2454,14724,-12000,12000,35000,370060,
-7540,-5220,15000,75,2823,14922,-12000,12000,36000,370063,
-7584,-5180,15148,228,3241,14985,-12000,12000,36000,370065,
-7776,-5116,14840,815,5661,15707,-11000,13000,37000,370078,
-7780,-5040,14544,864,6193,15875,-11000,14000,37000,370080,
-7632,-5056,14640,982,6737,16038,-11000,14000,38000,370082,
-8320,-5000,14420,1199,9277,16975,-11000,15000,39000,370095,
-8412,-4972,14348,1257,9759,17161,-11000,15000,39000,370097,
-8584,-4948,14540,1205,10163,17341,-11000,16000,40000,370100,
-9692,-4780,14704,1102,11945,18430,-10000,17000,41000,370112,
-10000,-4824,14956,1034,12186,18617,-10000,17000,42000,370115,
-10324,-4820,14880,992,12446,18887,-10000,18000,42000,370117,
-11276,-5040,15484,620,13007,20225,-9000,19000,44000,370129,
-11448,-5136,15388,604,13209,20412,-9000,20000,44000,370132,
-11640,-5164,15532,522,13190,20743,-9000,20000,44000,370134,
-12340,-5724,15552,487,13212,21915,-8000,22000,46000,370147,
-12572,-5644,15552,574,13217,22164,-8000,22000,47000,370149,
-12700,-5728,15644,550,13209,22397,-8000,22000,47000,370151,
-14244,-6444,15300,763,12574,23792,-7000,24000,49000,370164,
-14400,-6696,15360,773,12365,24188,-7000,24000,50000,370166,
-14712,-6872,15256,815,12198,24382,-7000,25000,50000,370169,
-16352,-8000,14736,978,10568,26198,-6000,26000,53000,370181,
-16632,-8168,15016,1059,10237,26493,-5000,26000,53000,370184,
-19400,-9600,14660,916,7643,28850,-4000,27000,56000,370196,
-19656,-9628,14756,789,7018,29223,-4000,28000,57000,370198,
-20156,-9992,14484,692,6275,29727,-3000,28000,58000,370201,
-22228,-11760,14428,-85,1959,32672,-2000,28000,61000,370213,
-22660,-12476,14760,-181,1099,32767,-2000,28000,62000,370216,
-23008,-12716,14620,-401,50,32767,-1000,28000,62000,370218,
-25668,-15528,15452,-1583,-5025,32767,0,28000,66000,370231,
-25404,-16600,15836,-1901,-5906,32767,0,28000,67000,370233,
-25396,-17436,16696,-1958,-6507,32767,0,28000,67000,370235,
-23368,-20264,19960,-3065,-9005,32767,1000,27000,71000,370248,
-22752,-20604,20508,-3177,-8794,32767,1000,27000,71000,370250,
-22056,-20944,20960,-3447,-8598,32767,1000,27000,72000,370253,
-15996,-20224,21272,-3831,-5670,32767,2000,26000,75000,370265,
-15088,-19764,21124,-3872,-4847,32767,2000,26000,76000,370268,
-14164,-19180,20752,-3837,-4128,32767,2000,26000,77000,370270,
-8680,-14940,17500,-3752,813,32767,3000,26000,80000,370282,
-7872,-14236,16672,-3809,1723,32767,4000,26000,81000,370285,
-6700,-13088,15456,-3817,2671,32767,4000,26000,81000,370287,
-3016,-8884,10412,-3222,8652,32767,5000,27000,85000,370300,
-2032,-7892,9540,-3017,9894,32767,5000,27000,85000,370302,
-1636,-7020,8820,-2942,10953,32767,5000,27000,86000,370304,
728,-3636,6444,-4333,15485,32767,6000,28000,90000,370317,
636,-2976,5996,-5122,15502,32767,6000,28000,90000,370319,
996,-3208,6752,-5304,15793,32767,7000,28000,91000,370322,
368,-2960,8052,-7292,14385,32767,8000,29000,95000,370334,
116,-3212,8196,-7849,13829,32767,8000,29000,95000,370337,
152,-3388,8960,-8308,13451,32767,8000,29000,96000,370339,
208,-3940,10516,-10182,10888,32767,9000,30000,100000,370351,
152,-4220,10620,-10610,10404,32767,9000,30000,100000,370354,
112,-4384,10640,-10849,9957,32767,9000,30000,101000,370356,
616,-4460,10920,-11983,7021,32767,9000,30000,105000,370369,
988,-4464,10880,-12199,6428,32767,9000,30000,105000,370371,
1036,-4208,10780,-12483,5791,32767,10000,30000,106000,370374,
2564,-4244,9444,-13434,2810,32767,10000,29000,110000,370386,
2896,-4292,9236,-13621,2357,32767,10000,29000,110000,370389,
3052,-4368,8968,-13679,1965,32767,10000,29000,111000,370391,
4776,-4720,8448,-13729,129,32767,10000,28000,114000,370404,
4904,-4568,8388,-13755,-213,32767,10000,28000,115000,370406,
5092,-4588,8516,-13652,-513,32767,10000,28000,116000,370408,
5328,-4348,9976,-13677,-3456,32767,10000,26000,119000,370421,
5324,-4184,10272,-13700,-3795,32767,10000,26000,120000,370423,
5544,-4272,10572,-13820,-4286,32767,10000,26000,120000,370425,
6668,-4768,11988,-13321,-6098,32767,10000,25000,123000,370438,
7032,-4704,12556,-13188,-6146,32461,10000,24000,124000,370440,
7452,-4788,12632,-12907,-6166,31894,10000,24000,125000,370443,
9048,-4548,14084,-11847,-5502,28919,10000,23000,127000,370455,
9148,-4348,14396,-11585,-5251,28301,10000,23000,128000,370458,
9760,-3816,15508,-10516,-3468,25167,10000,21000,130000,370470,
9856,-3496,15844,-10252,-3081,24514,10000,21000,131000,370473,
9900,-3332,16004,-10141,-2771,23990,10000,21000,131000,370475,
10336,-2620,16404,-9201,-639,20929,9000,20000,133000,370487,
10328,-2472,16436,-9122,-337,20459,9000,20000,134000,370490,
10420,-2412,16592,-8834,192,19854,9000,20000,134000,370492,
10828,-1632,16504,-7942,3151,17179,9000,20000,136000,370505,
10844,-1480,16460,-7671,3868,16600,9000,20000,136000,370507,
10924,-1408,16540,-7479,4482,16121,9000,20000,136000,370509,
10256,-1128,16340,-6490,7873,13300,9000,20000,138000,370522,
9824,-968,16236,-6376,8404,12761,9000,20000,138000,370524,
9500,-920,16352,-6264,8916,12220,9000,20000,138000,370527,
7428,-828,17108,-5944,10323,9666,9000,21000,140000,370539,
6852,-768,17336,-5936,10434,9112,9000,21000,140000,370542,
6512,-852,17584,-6004,10401,8628,9000,21000,140000,370544,
4356,-1100,18936,-5864,9755,6439,8000,22000,141000,370556,
3772,-1212,19228,-5855,9559,6116,8000,22000,141000,370559,
3600,-1352,19572,-5684,9383,5758,8000,22000,141000,370561,
1888,-1464,20056,-5222,8118,3828,8000,22000,141000,370574,
1664,-1496,20140,-5100,7877,3525,8000,23000,142000,370576,
1472,-1380,20304,-4999,7578,3252,7000,23000,142000,370578,
356,-1200,20220,-4553,5805,1881,7000,23000,142000,370591,
312,-1140,20008,-4425,5509,1656,7000,23000,142000,370593,
384,-1040,20000,-4461,5183,1454,7000,23000,142000,370595,
372,-688,19916,-4275,3559,324,7000,23000,142000,370608,
340,-656,19768,-4292,3204,74,6000,23000,142000,370610,
288,-668,19712,-4232,3003,-146,6000,23000,142000,370613,
216,-556,19464,-4195,1956,-1180,6000,23000,142000,370625,
232,-572,19576,-4144,1898,-1347,6000,23000,142000,370628,
224,-564,19644,-4114,1790,-1481,6000,23000,142000,370630,
232,-344,19668,-3933,1616,-2303,5000,24000,142000,370643,
72,-320,19916,-3878,1639,-2429,5000,24000,142000,370645,
104,-280,20020,-3900,1537,-2589,5000,24000,142000,370647,
-456,-164,20288,-3700,1359,-3171,4000,24000,141000,370660,
-456,-92,20316,-3707,1259,-3268,4000,24000,141000,370662,
-572,-80,20468,-3600,1273,-3277,4000,24000,141000,370664,
-840,172,20524,-3411,1210,-3678,4000,24000,141000,370677,
-796,144,20304,-3317,1299,-3691,4000,24000,141000,370679,
-768,204,20312,-3317,1313,-3742,4000,24000,141000,370681,
-784,444,19828,-2940,1734,-3955,3000,24000,140000,370694,
-664,572,19824,-2962,1755,-3984,3000,24000,140000,370696,
-868,548,19620,-2855,1784,-4049,3000,24000,140000,370699,
-1284,752,19008,-2750,1960,-4253,2000,24000,140000,370711,
-1208,700,18896,-2624,2006,-4232,2000,24000,139000,370713,
-1300,768,18836,-2610,1990,-4241,2000,24000,139000,370716,
-1756,1072,18248,-2308,2115,-4424,2000,24000,139000,370728,
-1744,1020,18068,-2272,2105,-4419,2000,24000,139000,370731,
-1984,1064,17936,-2205,2057,-4445,2000,24000,139000,370733,
-2068,1152,17612,-1997,1976,-4559,1000,24000,138000,370745,
-2164,1228,17500,-1950,1930,-4581,1000,24000,138000,370748,
-2144,1364,17332,-1927,1915,-4594,1000,24000,138000,370750,
-2232,1476,17072,-1672,1650,-4695,1000,24000,138000,370763,
-2280,1396,17004,-1681,1534,-4757,1000,24000,138000,370765,
-2416,1480,16916,-1578,1509,-4802,1000,24000,137000,370767,
-2432,1628,16680,-1351,1053,-5056,0,24000,137000,370780,
-2668,1572,16616,-1261,1030,-5057,0,24000,137000,370782,
-2608,1592,16504,-1209,906,-5092,0,24000,137000,370785,
-2744,1688,16216,-1054,393,-5304,0,24000,136000,370797,
-2964,1708,16224,-1054,265,-5337,0,24000,136000,370799,
-2936,1816,16128,-994,225,-5311,0,24000,136000,370802,
-2620,2024,15856,-825,-329,-5399,0,24000,135000,370814,
-2644,1920,15836,-723,-307,-5403,0,24000,135000,370817,
-2708,1940,15824,-747,-427,-5476,0,24000,135000,370819,
-2580,2084,15552,-552,-615,-5561,0,24000,135000,370831,
-2628,2144,15376,-545,-679,-5612,0,24000,135000,370834,
-2632,2164,15472,-472,-690,-5577,0,24000,134000,370836,
-2560,2276,15328,-416,-933,-5761,0,23000,134000,370849,
-2660,2408,15448,-365,-901,-5755,0,23000,134000,370851,
-2624,2500,15380,-426,-969,-5771,0,23000,134000,370853,
-2760,2684,15316,-333,-909,-5770,0,23000,133000,370866,
-2748,2684,15416,-366,-987,-5772,0,23000,133000,370868,
-2760,2624,15324,-323,-907,-5777,0,23000,133000,370870,
-2972,2872,15272,-386,-982,-5767,-1000,23000,132000,370883,
-2820,2860,15236,-318,-940,-5743,-1000,23000,132000,370885,
-2924,2784,15284,-359,-937,-5697,-1000,23000,132000,370888,
-3140,2932,15364,-371,-948,-5723,-1000,23000,132000,370900,
-3152,2888,15164,-443,-996,-5713,-1000,23000,131000,370903,
-3296,2856,15144,-407,-997,-5683,-1000,23000,131000,370905,
-3124,2912,15268,-432,-1116,-5501,-1000,22000,131000,370917,
-3096,2944,15272,-400,-1117,-5451,-1000,22000,131000,370920,
-3008,2916,15252,-399,-1122,-5495,-1000,22000,131000,370922,
-3024,3092,15504,-407,-1104,-5497,-1000,22000,130000,370935,
-2984,2948,15540,-345,-1043,-5469,-1000,22000,130000,370937,
-2968,2948,15816,-324,-1093,-5463,-1000,22000,130000,370939,
-2508,2728,16072,-85,-816,-5514,-2000,22000,129000,370952,
-2380,2820,16108,-37,-808,-5555,-2000,22000,129000,370954,
-2312,2832,16116,41,-683,-5602,-2000,22000,129000,370957,
-1912,2800,16108,550,-15,-5901,-2000,22000,129000,370969,
-2012,2848,16040,624,169,-5966,-2000,22000,128000,370972,
-1972,2876,16164,697,232,-6055,-2000,22000,128000,370974,
-2456,2984,16072,1131,626,-6440,-2000,22000,128000,370986,
-2500,3044,16080,1229,590,-6514,-2000,22000,128000,370989,
-2580,3064,15844,1321,677,-6537,-2000,22000,127000,370991,
-2964,3100,15852,1712,525,-6809,-2000,22000,127000,371004,
-3016,3100,15684,1832,579,-6838,-2000,22000,127000,371006,
-3120,3248,15696,1847,471,-6902,-2000,22000,126000,371008,
-3424,3384,15564,2241,223,-7050,-2000,22000,126000,371021,
-3340,3296,15468,2258,116,-7106,-2000,22000,126000,371023,
-3488,3364,15580,2368,67,-7116,-2000,22000,126000,371025,
-3904,3376,15376,2529,-308,-7072,-2000,21000,125000,371038,
-3912,3356,15360,2606,-431,-7060,-2000,21000,125000,371040,
-3872,3412,15476,2598,-374,-7067,-2000,21000,125000,371042,
-4112,3304,14940,2709,-641,-6832,-2000,21000,124000,371055,
-4044,3404,14796,2672,-622,-6780,-2000,21000,124000,371057,
-4128,3364,14908,2709,-690,-6690,-2000,21000,124000,371060,
-4144,3268,14552,2641,-509,-6291,-1000,21000,123000,371072,
-4248,3268,14456,2591,-596,-6228,-1000,21000,123000,371074,
-4408,3196,14496,2610,-536,-6183,-1000,21000,123000,371077,
-4956,3072,14508,2588,-613,-5773,-1000,21000,122000,371089,
-5144,2884,14704,2518,-589,-5614,-1000,21000,122000,371092,
-5208,2964,14684,2540,-611,-5503,-1000,21000,122000,371094,
-5320,2868,14888,2440,-690,-4707,-1000,21000,122000,371107,
-5392,2912,14900,2474,-718,-4562,-1000,21000,122000,371109,
-5228,2956,15060,2444,-722,-4390,-1000,21000,121000,371111,
-4972,2624,15268,2330,-509,-3719,-1000,21000,121000,371124,
-4972,2680,15280,2283,-332,-3560,-1000,21000,121000,371126,
-4748,2612,15112,2313,-263,-3372,-1000,21000,121000,371128,
-3712,2564,14548,2224,1005,-2616,-1000,21000,121000,371141,
-3544,2688,14508,2192,1240,-2461,-1000,21000,121000,371143,
-3436,2576,14368,2151,1617,-2360,-1000,21000,121000,371146,
-3424,2560,13656,1914,3428,-1747,0,21000,121000,371158,
-3500,2492,13788,1847,3774,-1612,0,21000,120000,371161,
-3640,2444,13736,1760,3983,-1474,0,21000,120000,371163,
-4708,2276,14432,1402,4704,-862,0,22000,120000,371175,
-5044,2300,14864,1329,4562,-719,0,22000,120000,371178,
-5368,2304,14956,1303,4478,-607,0,22000,120000,371180,
-5584,2236,15084,1186,4209,-445,0,22000,120000,371182,
-6260,2428,15928,872,2918,530,0,22000,120000,371195,
-6272,2468,16104,785,2636,716,0,22000,120000,371197,
-6084,2564,15984,756,2504,868,0,22000,120000,371199,
-5608,3040,15972,442,2935,1776,0,23000,121000,371212,
-5660,3136,15836,521,3331,1949,0,23000,121000,371214,
-5704,3256,15872,469,3624,2133,0,23000,121000,371217,
-5580,3212,15960,531,4038,2347,0,23000,121000,371219,
-5792,3616,15524,359,5233,3148,0,23000,121000,371232,
-5788,3636,15528,359,5239,3263,0,23000,121000,371234,
-5788,3520,15444,229,5082,3334,0,23000,121000,371236,
