Ax,Ay,Az,Gx,Gy,Gz,Roll,Pitch,Yaw,Timestamp,Target
64,2976,15788,-880,1453,-146,5000,7000,51000,1239396,
-8,2776,16132,-891,2324,-336,5000,7000,51000,1239408,
-84,2704,16184,-830,2602,-276,5000,7000,51000,1239410,
-320,2688,16072,-862,2788,-327,5000,7000,51000,1239413,
-552,2892,15752,-660,3430,-220,5000,7000,51000,1239425,
-648,2976,15884,-747,3467,-284,5000,7000,51000,1239427,
-664,3048,15868,-663,3533,-194,5000,7000,51000,1239429,
-1212,3196,15804,-715,3358,-298,5000,8000,51000,1239442,
-1556,3096,15768,-625,3258,-296,5000,8000,51000,1239444,
-1612,3092,15836,-702,3078,-341,5000,8000,51000,1239446,
-2084,3012,16024,-688,1890,-400,5000,8000,51000,1239459,
-1964,3208,15980,-867,1542,-432,5000,8000,51000,1239461,
-2064,3120,16028,-786,1387,-423,5000,8000,51000,1239463,
-1712,3332,16012,-1046,-143,-476,5000,8000,51000,1239476,
-1800,3404,16244,-983,-336,-534,5000,8000,51000,1239478,
-1632,3444,16276,-1100,-553,-505,5000,8000,51000,1239480,
-1220,3424,16416,-1130,-1209,-653,5000,8000,51000,1239493,
-1228,3568,16288,-1116,-1186,-606,5000,8000,51000,1239495,
-1200,3420,16588,-1097,-1235,-644,5000,8000,51000,1239497,
-908,3484,16772,-985,-1089,-601,4000,8000,51000,1239510,
-912,3576,16540,-1082,-1169,-591,4000,8000,51000,1239512,
-924,3500,16644,-994,-1084,-517,4000,7000,51000,1239514,
-976,3428,16596,-997,-1138,-486,4000,7000,51000,1239527,
-1096,3400,16608,-855,-1059,-439,4000,7000,51000,1239529,
-1052,3264,16772,-963,-1180,-500,4000,7000,51000,1239531,
-1164,3348,16948,-762,-1348,-468,4000,7000,51000,1239544,
-972,3296,16820,-854,-1425,-450,4000,7000,51000,1239546,
-1116,3288,16920,-744,-1440,-480,4000,7000,51000,1239548,
-1020,3300,17136,-674,-1527,-486,4000,7000,51000,1239561,
-1132,3168,17048,-648,-1548,-557,4000,7000,51000,1239563,
-1096,3208,17040,-665,-1532,-510,4000,7000,51000,1239565,
-724,3164,17116,-548,-1452,-541,4000,7000,51000,1239578,
-604,3400,17060,-426,-1340,-497,4000,7000,51000,1239580,
-736,3336,16992,-492,-1325,-519,4000,7000,51000,1239582,
-504,3568,16872,-232,-790,-433,4000,7000,51000,1239595,
-604,3568,16828,-351,-773,-423,4000,7000,50000,1239597,
-532,3692,16960,-199,-646,-411,4000,7000,50000,1239599,
-672,3792,16864,-243,-368,-419,4000,6000,50000,1239612,
-724,3812,16772,-139,-306,-470,4000,6000,50000,1239614,
-712,3848,16700,-232,-285,-473,4000,6000,50000,1239616,
-580,3784,16648,-160,-32,-525,4000,6000,50000,1239629,
-592,3804,16692,-147,35,-522,4000,6000,50000,1239631,
-600,3824,16608,-140,47,-565,4000,6000,50000,1239633,
-640,3760,16744,-140,72,-522,4000,6000,50000,1239636,
-1044,3744,16508,-36,336,-610,4000,6000,50000,1239648,
-1044,3600,16708,44,360,-581,4000,6000,50000,1239650,
-916,3764,16604,45,309,-604,4000,6000,50000,1239652,
-1160,3876,16256,229,7,-716,4000,6000,50000,1239665,
-1332,3848,16216,121,-150,-790,4000,6000,50000,1239667,
-1408,3872,16036,229,-201,-767,4000,6000,50000,1239669,
-1508,3832,15768,86,-951,-1002,5000,6000,50000,1239682,
-1376,3824,15768,179,-1000,-1028,5000,6000,50000,1239684,
-1368,3772,15788,58,-1204,-1079,5000,6000,50000,1239686,
-1348,3580,15736,166,-1339,-1168,5000,6000,50000,1239699,
-1316,3532,15584,45,-1350,-1208,5000,6000,50000,1239701,
-1388,3588,15452,174,-1256,-1174,5000,6000,50000,1239703,
-1296,3556,15400,80,-833,-1094,5000,6000,50000,1239716,
-1192,3544,15300,224,-622,-1047,5000,6000,50000,1239718,
-1324,3496,15292,107,-518,-1028,5000,6000,50000,1239720,
-1616,3524,15164,192,140,-846,5000,6000,50000,1239733,
-1644,3488,15196,178,232,-766,5000,6000,50000,1239735,
-1644,3484,15112,258,322,-780,5000,6000,50000,1239737,
-1672,3544,15100,190,377,-639,5000,6000,50000,1239750,
-1684,3520,15244,175,273,-647,5000,6000,50000,1239752,
-1752,3464,15036,181,260,-581,5000,6000,50000,1239754,
-1964,3516,14976,-10,-275,-434,5000,6000,50000,1239767,
-2064,3500,14980,86,-305,-343,5000,6000,50000,1239769,
-1996,3508,14864,-4,-452,-375,5000,6000,50000,1239771,
-2036,3428,14920,-27,-926,-177,5000,6000,50000,1239784,
-1860,3564,14684,-204,-1054,-212,5000,6000,50000,1239786,
-1916,3376,14764,-124,-1087,-177,5000,6000,50000,1239788,
-1664,3380,14868,-364,-1281,-103,5000,6000,50000,1239801,
-1340,3444,14864,-236,-1229,-99,5000,6000,50000,1239803,
-1336,3388,14748,-408,-1257,-54,5000,6000,50000,1239805,
-1140,3144,14704,-350,-842,-69,5000,6000,49000,1239818,
-1140,3076,14676,-421,-761,-25,5000,6000,49000,1239820,
-1232,3120,14740,-305,-632,-53,5000,6000,49000,1239822,
-944,3104,14848,-289,-97,78,5000,6000,50000,1239835,
-976,3104,14748,-308,-64,92,5000,6000,50000,1239837,
-932,3136,14744,-291,-33,155,5000,6000,50000,1239839,
-1056,3060,14764,-235,12,167,5000,6000,50000,1239842,
-1224,3096,14408,-251,-53,343,5000,6000,50000,1239854,
-1356,3068,14404,-360,-151,315,5000,6000,50000,1239856,
-1220,3180,14436,-269,-151,340,5000,6000,50000,1239859,
-980,3288,14532,-484,-522,208,5000,6000,50000,1239871,
-1136,3264,14568,-355,-530,170,5000,5000,50000,1239873,
-1120,3304,14640,-509,-669,156,5000,5000,50000,1239876,
-944,3444,14756,-551,-752,110,5000,5000,50000,1239888,
-872,3488,14924,-665,-807,137,5000,5000,50000,1239890,
-796,3440,14884,-558,-763,104,5000,5000,50000,1239893,
-580,3396,14840,-684,-559,59,5000,5000,50000,1239905,
-708,3424,14828,-704,-525,0,5000,5000,50000,1239907,
-720,3416,15028,-722,-482,77,5000,5000,50000,1239909,
-604,3336,14996,-661,-415,65,5000,5000,50000,1239912,
-464,3428,15084,-702,35,189,5000,5000,50000,1239924,
-624,3384,14948,-799,87,134,5000,5000,50000,1239927,
-452,3480,15104,-755,165,210,5000,5000,50000,1239929,
-616,3612,15252,-902,628,184,5000,5000,50000,1239941,
-588,3684,15196,-817,748,232,5000,5000,50000,1239943,
-524,3772,15400,-931,798,161,5000,5000,50000,1239946,
-780,3780,15360,-896,918,253,5000,5000,50000,1239948,
-900,3876,15264,-1090,974,196,5000,5000,50000,1239960,
-1096,3904,15492,-996,979,188,5000,5000,50000,1239963,
-920,3900,15636,-1106,887,118,5000,5000,50000,1239965,
-1204,3888,15500,-1138,365,68,5000,5000,50000,1239977,
-1208,3788,15504,-1256,251,45,5000,5000,50000,1239980,
-1376,3768,15640,-1159,117,74,5000,5000,50000,1239982,
-1268,3732,15440,-1327,-538,80,5000,5000,50000,1239994,
-1212,3760,15824,-1334,-678,-49,5000,5000,50000,1239997,
-916,3716,15636,-1380,-768,-22,5000,5000,50000,1239999,
-504,3912,15608,-1444,-986,-204,5000,5000,50000,1240011,
-628,3896,15720,-1372,-978,-187,5000,5000,50000,1240014,
-588,3788,15952,-1454,-1047,-245,5000,5000,50000,1240016,
-508,3840,15992,-1362,-939,-188,4000,5000,50000,1240029,
-360,3796,16048,-1517,-936,-184,4000,5000,50000,1240031,
-524,3740,16228,-1422,-840,-158,4000,5000,50000,1240033,
-180,3716,16316,-1610,-802,-179,4000,5000,50000,1240045,
-416,3592,16484,-1417,-715,-185,4000,5000,50000,1240048,
-268,3684,16448,-1538,-700,-196,4000,5000,50000,1240050,
-440,3488,16540,-1310,-516,-109,4000,5000,50000,1240062,
-516,3564,16372,-1415,-525,-59,4000,5000,50000,1240065,
-592,3556,16508,-1292,-497,-35,4000,5000,50000,1240067,
-456,3668,16480,-1314,-542,7,4000,5000,50000,1240079,
-468,3712,16260,-1294,-557,-35,4000,5000,50000,1240082,
-492,3792,16288,-1362,-582,-21,4000,5000,50000,1240084,
-432,3848,16476,-1322,-759,-144,4000,5000,50000,1240096,
-320,3904,16236,-1295,-755,-112,4000,5000,50000,1240099,
-516,4012,16268,-1344,-866,-145,4000,5000,50000,1240101,
-632,3904,16444,-1304,-1252,-215,4000,4000,50000,1240113,
-644,3960,16412,-1441,-1467,-298,4000,4000,50000,1240116,
-672,3876,16600,-1289,-1455,-291,4000,4000,50000,1240118,
-344,3964,16652,-1430,-1945,-371,4000,4000,50000,1240130,
-460,3908,16404,-1335,-1899,-384,4000,4000,50000,1240132,
-512,3932,16560,-1474,-2060,-389,4000,4000,50000,1240135,
-236,3720,16492,-1346,-1976,-523,4000,4000,49000,1240147,
-100,3828,16480,-1437,-2007,-560,4000,4000,49000,1240149,
96,3680,16648,-1274,-1858,-620,4000,4000,49000,1240152,
-120,3476,16628,-1222,-1406,-597,4000,4000,49000,1240164,
-360,3496,16456,-1128,-1290,-620,4000,4000,49000,1240166,
-232,3372,16696,-1182,-1181,-579,4000,4000,49000,1240169,
-204,3360,16380,-961,-590,-607,4000,4000,49000,1240181,
-240,3380,16480,-958,-490,-548,4000,4000,49000,1240183,
-300,3424,16360,-889,-470,-598,4000,4000,49000,1240186,
-840,3328,16400,-710,-80,-490,3000,3000,49000,1240198,
-664,3416,16344,-813,-97,-528,3000,3000,49000,1240200,
-752,3296,16552,-739,-73,-487,3000,3000,49000,1240203,
-800,3124,16412,-645,44,-558,3000,3000,49000,1240215,
-736,2988,16448,-522,113,-503,3000,3000,49000,1240217,
-856,2888,16420,-605,64,-526,3000,3000,49000,1240220,
-908,3008,16372,-547,183,-461,3000,3000,49000,1240222,
-976,2764,16220,-437,313,-399,3000,4000,49000,1240234,
-864,2884,16244,-297,450,-364,3000,4000,49000,1240236,
-628,2792,16252,-354,432,-388,3000,4000,49000,1240239,
-860,2612,16008,-95,691,-272,3000,4000,49000,1240251,
-1004,2680,15912,-152,686,-242,3000,4000,49000,1240253,
-1076,2656,16028,-21,754,-187,3000,4000,49000,1240256,
-868,2600,15680,-123,802,-2,3000,4000,49000,1240268,
-720,2680,15556,31,841,9,3000,4000,49000,1240270,
-732,2692,15652,-131,795,-14,3000,4000,49000,1240273,
-752,2628,15616,15,868,42,3000,4000,49000,1240275,
-892,2628,15568,-150,897,196,4000,4000,49000,1240287,
-744,2600,15452,-203,918,245,4000,4000,49000,1240290,
-888,2632,15448,-210,945,296,4000,4000,49000,1240292,
-628,2684,15356,-392,953,483,4000,4000,49000,1240304,
-608,2684,15396,-310,1005,557,4000,4000,49000,1240307,
-516,2488,15280,-381,949,473,4000,4000,49000,1240309,
-676,2424,15108,-403,786,646,4000,4000,49000,1240321,
-564,2576,15256,-589,712,666,4000,4000,49000,1240324,
-664,2432,15076,-510,733,763,4000,4000,49000,1240326,
-560,2440,15144,-656,629,791,4000,4000,49000,1240328,
-308,2592,14996,-792,522,1045,3000,4000,49000,1240341,
36,2720,15196,-948,451,1098,3000,4000,49000,1240343,
-40,2688,15008,-876,523,1159,3000,4000,49000,1240345,
344,3044,15108,-1249,337,1155,3000,4000,50000,1240358,
368,3112,15280,-1280,253,1108,3000,4000,50000,1240360,
452,3148,15368,-1359,274,1124,3000,4000,50000,1240362,
360,3160,15600,-1638,-58,882,3000,4000,50000,1240374,
376,3088,15448,-1608,-50,867,3000,4000,50000,1240377,
332,3012,15488,-1722,-144,779,3000,4000,50000,1240379,
324,3020,15624,-1738,-193,764,3000,4000,50000,1240381,
400,3176,15584,-1896,-438,543,3000,4000,50000,1240394,
636,3304,15636,-1863,-445,561,3000,4000,50000,1240396,
756,3296,15672,-1903,-465,487,3000,4000,50000,1240398,
868,3464,15672,-1878,-386,209,3000,4000,50000,1240411,
824,3436,15744,-2027,-434,134,3000,4000,50000,1240413,
904,3300,15760,-1916,-321,80,3000,4000,50000,1240415,
844,3420,15888,-1967,-123,-334,3000,4000,50000,1240428,
1164,3300,15968,-1826,-18,-392,3000,4000,50000,1240430,
888,3356,15916,-1965,-33,-437,3000,4000,50000,1240432,
964,3396,15988,-1783,172,-773,3000,4000,50000,1240444,
944,3328,16180,-1842,189,-818,3000,4000,50000,1240447,
864,3376,16284,-1749,247,-880,3000,4000,50000,1240449,
540,3372,16388,-1636,513,-1144,2000,4000,50000,1240461,
472,3424,16220,-1680,513,-1242,2000,4000,50000,1240464,
492,3240,16432,-1608,638,-1220,2000,4000,50000,1240466,
360,3280,16488,-1499,777,-1547,2000,4000,49000,1240478,
284,3128,16456,-1353,880,-1550,2000,4000,49000,1240481,
168,3096,16544,-1398,873,-1627,2000,4000,49000,1240483,
-136,2904,16384,-1061,1174,-1686,2000,4000,49000,1240495,
-268,2752,16636,-1134,1123,-1727,2000,4000,49000,1240498,
-532,2760,16504,-975,1217,-1720,2000,4000,49000,1240500,
-876,2604,16384,-922,1186,-1726,2000,4000,49000,1240512,
-912,2584,16380,-723,1217,-1687,2000,4000,49000,1240515,
-896,2628,16280,-831,1177,-1648,2000,4000,49000,1240517,
-916,2812,16156,-631,1161,-1564,2000,4000,49000,1240529,
-1004,2832,16304,-678,1182,-1453,2000,4000,49000,1240531,
-1096,2880,16276,-570,1249,-1418,2000,4000,49000,1240534,
-1352,3080,15952,-824,1414,-1140,2000,4000,49000,1240546,
-1452,3184,16316,-823,1306,-1231,2000,4000,49000,1240548,
-1320,3132,16260,-826,1380,-1226,2000,4000,49000,1240551,
-1928,2828,16188,-721,1235,-1420,2000,4000,49000,1240563,
-2052,2796,16080,-604,1154,-1365,2000,5000,48000,1240565,
-2168,2904,16224,-709,925,-1361,2000,5000,48000,1240568,
-2680,3008,16272,-569,502,-1030,2000,5000,48000,1240580,
-2408,2872,16336,-700,396,-1024,2000,5000,48000,1240582,
-2440,2916,16148,-575,464,-967,2000,5000,48000,1240585,
-1476,2996,16192,-564,565,-945,2000,5000,48000,1240597,
-1476,2848,16140,-399,697,-931,2000,5000,48000,1240599,
-1152,3032,16280,-507,725,-960,2000,5000,48000,1240602,
-924,2996,16164,-274,1473,-745,2000,5000,48000,1240614,
-884,3016,16204,-278,1591,-671,2000,5000,48000,1240616,
-1052,2868,16220,-97,1801,-643,2000,5000,48000,1240619,
-1608,2864,16092,90,2471,-273,2000,5000,48000,1240631,
-1824,2924,15936,118,2551,-295,2000,5000,48000,1240633,
-1796,3056,15916,87,2581,-165,2000,5000,48000,1240636,
-2496,3196,15860,109,2409,4,2000,5000,48000,1240648,
-2468,3204,15724,175,2360,118,2000,6000,48000,1240650,
-2680,3272,15876,80,2184,90,2000,6000,48000,1240653,
-2744,3204,15824,99,2121,160,2000,6000,48000,1240655,
-3020,3208,15924,-62,1285,361,2000,6000,48000,1240667,
-3024,3180,15944,-11,1209,415,2000,6000,48000,1240669,
-2952,3116,16092,-107,980,363,2000,6000,48000,1240672,
-2404,2936,15952,-103,500,487,2000,6000,48000,1240684,
-2448,3012,16044,-245,350,424,2000,6000,48000,1240686,
-2168,2932,15976,-153,379,503,2000,6000,48000,1240689,
-1980,2848,16100,-291,454,746,2000,6000,48000,1240701,
-1956,2936,16216,-152,607,819,2000,6000,48000,1240704,
-2128,2872,16376,-288,585,885,2000,6000,48000,1240706,
-2312,2840,16500,-257,763,1279,2000,6000,49000,1240718,
-2368,2876,16552,-316,728,1358,2000,6000,49000,1240720,
-2488,2788,16492,-274,727,1409,2000,6000,49000,1240723,
-2504,2804,16696,-474,468,1753,2000,6000,49000,1240735,
-2460,2752,16660,-483,382,1776,2000,6000,49000,1240738,
-2408,2804,16800,-553,308,1844,2000,6000,49000,1240740,
-1964,2616,16952,-669,52,2036,2000,6000,49000,1240752,
-1904,2576,16912,-651,103,2105,2000,6000,49000,1240755,
-1696,2584,16912,-632,51,2065,2000,6000,49000,1240757,
-1080,2720,16784,-486,312,2285,2000,6000,49000,1240769,
-1388,2660,16752,-565,309,2250,2000,6000,49000,1240771,
-1012,2704,16892,-473,430,2307,2000,6000,49000,1240774,
-900,2792,16772,-500,564,2280,2000,6000,50000,1240786,
-1004,2912,16664,-348,668,2244,2000,6000,50000,1240789,
-1020,2848,16876,-492,578,2223,2000,6000,50000,1240791,
-972,2792,16908,-268,536,2014,2000,6000,50000,1240803,
-864,2816,16916,-407,413,1992,2000,6000,50000,1240806,
-984,2812,16884,-240,396,1959,2000,6000,50000,1240808,
-824,2896,17080,-249,18,1813,2000,6000,50000,1240820,
-964,2764,16976,-251,-91,1758,2000,6000,50000,1240823,
-904,2904,16956,-259,-124,1720,3000,6000,50000,1240825,
-788,2912,17176,-128,-306,1509,3000,6000,50000,1240837,
-748,2992,16992,-39,-306,1506,3000,6000,50000,1240840,
-812,2868,17160,-97,-361,1409,3000,6000,50000,1240842,
-772,2884,17032,184,-529,1222,3000,6000,51000,1240854,
-804,2900,17144,36,-671,1174,3000,6000,51000,1240856,
-864,2896,17124,163,-631,1140,3000,6000,51000,1240859,
-764,2964,17012,51,-732,1076,3000,6000,51000,1240861,
-532,2864,17072,301,-938,884,3000,6000,51000,1240874,
-544,2824,16904,177,-1013,832,3000,6000,51000,1240876,
-488,2752,16948,311,-1001,788,3000,6000,51000,1240878,
-296,2688,16800,369,-1196,589,3000,6000,51000,1240890,
-124,2660,16824,511,-1177,560,3000,6000,51000,1240893,
-188,2644,16908,442,-1202,543,3000,6000,51000,1240895,
-96,2584,16768,700,-1184,427,3000,5000,51000,1240907,
-420,2612,16928,691,-1160,442,3000,5000,51000,1240910,
-120,2644,17036,757,-1175,378,3000,5000,51000,1240912,
-20,2724,16888,758,-1114,350,3000,5000,51000,1240914,
108,2892,17104,926,-951,153,3000,5000,51000,1240927,
104,2792,16764,1017,-839,202,3000,5000,51000,1240929,
40,2864,16908,1030,-805,106,3000,5000,51000,1240931,
220,2960,17100,1249,-328,-36,3000,5000,51000,1240944,
272,3036,17220,1146,-387,-77,3000,5000,51000,1240946,
400,3060,17048,1287,-232,-83,3000,5000,51000,1240948,
192,2976,17140,1191,-243,-149,3000,5000,51000,1240951,
248,3092,17000,1438,183,-342,4000,5000,51000,1240963,
212,3028,17272,1332,284,-414,4000,5000,51000,1240965,
464,3132,17244,1443,440,-462,4000,5000,51000,1240967,
840,2924,17284,1630,1242,-744,4000,5000,51000,1240980,
872,3040,17352,1768,1474,-813,4000,5000,51000,1240982,
860,2860,17600,1763,1713,-787,4000,5000,51000,1240984,
828,2876,17372,2184,3175,-912,4000,5000,51000,1240997,
1024,3064,17332,2285,3578,-863,4000,5000,51000,1240999,
1096,3088,17404,2261,3873,-926,4000,5000,51000,1241002,
1412,3152,17376,2867,5800,-1101,5000,6000,51000,1241014,
1344,3252,17028,2766,6106,-1176,5000,6000,51000,1241016,
1436,3320,17068,2965,6475,-1158,5000,6000,51000,1241019,
940,3220,16952,3296,8268,-1389,5000,7000,51000,1241031,
1056,3272,16712,3483,8634,-1404,5000,7000,51000,1241033,
900,3368,16716,3410,8832,-1409,5000,7000,51000,1241035,
124,3372,16824,3801,10403,-1454,6000,8000,50000,1241048,
252,3404,16464,3820,10735,-1421,6000,8000,50000,1241050,
132,3600,16568,3857,10979,-1493,6000,8000,50000,1241053,
240,3844,16524,3982,12671,-1671,6000,10000,50000,1241065,
236,3736,16744,3950,12924,-1800,6000,10000,50000,1241067,
232,3656,16632,4006,13359,-1833,6000,10000,50000,1241070,
344,3728,16704,4231,16093,-2239,7000,12000,50000,1241082,
208,3656,16840,4415,16716,-2269,7000,12000,50000,1241084,
356,3684,16688,4401,17381,-2351,7000,12000,50000,1241087,
380,3792,16528,5015,21620,-2412,7000,14000,50000,1241099,
228,3792,16472,4937,22322,-2415,7000,14000,51000,1241101,
216,3796,16248,5184,23201,-2427,8000,15000,51000,1241104,
-288,3536,15484,5650,27503,-2527,8000,17000,51000,1241116,
-420,3504,15700,5895,28468,-2508,8000,18000,51000,1241118,
-668,3484,15292,5886,29134,-2530,8000,18000,51000,1241121,
-1412,3488,14364,6491,32767,-2209,9000,21000,51000,1241133,
-1600,3496,14264,6582,32767,-2080,9000,22000,51000,1241135,
-1868,3612,14216,6741,32767,-2073,9000,22000,51000,1241137,
-2712,3608,13116,7329,32767,-1545,10000,26000,52000,1241150,
-2920,3664,12896,7286,32767,-1486,11000,26000,52000,1241152,
-3256,3640,12444,7519,32767,-1365,11000,27000,52000,1241155,
-4664,3872,11412,7667,32767,-999,12000,30000,53000,1241167,
-4808,4068,11180,7839,32767,-982,12000,30000,53000,1241170,
-5044,4024,10884,7696,32767,-913,12000,31000,53000,1241172,
-5996,4124,10028,7829,32767,-809,14000,34000,54000,1241184,
-6276,4264,10088,7757,32767,-687,14000,34000,54000,1241187,
-6712,4076,10024,7820,32767,-756,14000,35000,54000,1241189,
-7632,4044,9036,7764,32767,-704,15000,38000,55000,1241202,
-7936,3960,8584,7580,32767,-772,16000,39000,55000,1241204,
-8028,3940,8284,7610,32767,-826,16000,39000,55000,1241206,
-9104,3988,8032,7122,32767,-865,17000,42000,57000,1241219,
-7996,4276,7504,7188,32767,-1000,18000,43000,57000,1241221,
-8216,4100,7156,7004,32767,-1022,18000,43000,57000,1241224,
-8604,4040,6588,6769,32767,-1213,20000,47000,58000,1241236,
-8512,3952,6452,6716,32767,-1166,20000,47000,59000,1241239,
-8796,4108,6292,6751,32767,-1199,20000,48000,59000,1241241,
-9616,4048,4820,6537,32767,-693,22000,51000,61000,1241254,
-9736,4104,4768,6403,32767,-627,23000,51000,61000,1241256,
-9916,4200,4808,6453,32767,-472,23000,52000,62000,1241258,
-9784,4360,4208,6185,32767,27,26000,55000,64000,1241271,
-9748,4440,4052,6323,32767,99,26000,55000,64000,1241273,
-9692,4396,4016,6196,32767,111,27000,56000,65000,1241275,
-10056,4316,2952,6339,32767,142,30000,58000,68000,1241288,
-10020,4384,2996,6293,32767,146,31000,59000,68000,1241290,
-10028,4276,2872,6469,32767,101,31000,59000,69000,1241292,
-10268,4248,1232,6601,32767,-166,35000,62000,73000,1241305,
-10240,4176,1084,6505,32767,-310,36000,63000,74000,1241307,
-10220,4212,844,6581,32767,-366,37000,63000,74000,1241310,
-10344,4332,488,7040,32767,-729,42000,66000,79000,1241322,
-10376,4216,128,7352,32767,-774,43000,66000,80000,1241325,
-10144,4336,-156,7345,32767,-838,44000,67000,81000,1241327,
-9948,4716,-1396,7978,32767,-1176,51000,69000,88000,1241340,
-9860,4712,-1440,7977,32767,-1182,53000,69000,89000,1241342,
-9928,4692,-1896,8184,32767,-1278,54000,70000,91000,1241344,
-10352,4984,-4012,8523,32767,-1338,63000,71000,99000,1241357,
-10300,5180,-4604,8441,32767,-1371,65000,72000,101000,1241360,
-10728,5268,-4908,8612,32767,-1310,67000,72000,103000,1241362,
-12024,5348,-7256,8454,32767,-1012,79000,73000,114000,1241375,
-12036,5488,-7668,8547,32767,-975,81000,73000,116000,1241377,
-12296,5300,-8128,8360,32767,-886,83000,73000,119000,1241380,
-12684,5292,-9536,8238,32767,-496,96000,73000,131000,1241392,
-12604,5340,-10280,8102,32767,-419,98000,73000,133000,1241395,
-12720,5244,-10672,7951,32767,-480,100000,73000,135000,1241397,
-12552,5432,-11900,7598,32767,-724,112000,72000,146000,1241410,
-12348,5476,-12064,7369,32767,-846,114000,72000,148000,1241412,
-12212,5536,-12216,7340,32767,-877,116000,72000,150000,1241414,
-11328,5988,-14284,6274,32767,-1377,125000,70000,159000,1241427,
-11228,6140,-14536,6179,32767,-1466,126000,70000,161000,1241429,
-11116,6240,-15524,4855,32767,-1709,134000,67000,168000,1241442,
-11184,6148,-15556,4641,32767,-1748,135000,67000,169000,1241444,
-11052,6112,-15892,4398,32767,-1702,136000,67000,171000,1241447,
-11388,6044,-15764,3233,32767,-1540,142000,64000,176000,1241459,
-11768,5900,-15880,3188,32767,-1454,143000,64000,177000,1241462,
-11728,5840,-16032,2916,32767,-1450,143000,63000,178000,1241464,
-12600,5384,-16668,2532,28325,-1425,147000,61000,182000,1241477,
-12800,5432,-16748,2389,27184,-1379,148000,60000,182000,1241479,
-13276,5480,-17168,2220,21079,-1259,150000,58000,185000,1241492,
-13200,5468,-17216,2230,19833,-1183,150000,58000,185000,1241494,
-13076,5496,-17288,2097,18563,-1236,151000,58000,185000,1241496,
-11916,5880,-17448,1936,12073,-1149,152000,57000,187000,1241509,
-11844,5896,-17720,1690,10779,-1189,152000,56000,187000,1241512,
-11420,6068,-17760,1725,9740,-1174,152000,56000,187000,1241514,
-10504,6180,-17740,992,4563,-1423,153000,56000,188000,1241527,
-10516,6136,-17624,884,3711,-1502,153000,56000,188000,1241529,
-10048,5992,-16960,281,106,-1657,154000,56000,188000,1241542,
-10012,5852,-16992,51,-649,-1691,154000,56000,188000,1241544,
-9932,5892,-16944,43,-1263,-1679,154000,56000,188000,1241546,
-10436,5696,-16680,-691,-4476,-1631,154000,56000,188000,1241559,
-10716,5652,-16640,-727,-5023,-1604,154000,56000,188000,1241561,
-10432,5764,-16600,-948,-5623,-1560,153000,56000,188000,1241564,
-10828,5804,-16344,-1511,-8655,-1489,153000,57000,188000,1241576,
-11044,5916,-16300,-1569,-9186,-1430,153000,57000,188000,1241579,
-11164,6060,-16316,-2169,-12249,-1400,152000,58000,187000,1241591,
-11080,6200,-16096,-2142,-12817,-1379,152000,58000,187000,1241594,
-11096,5916,-15908,-2407,-13438,-1351,152000,58000,187000,1241596,
-11024,5836,-15420,-2929,-16311,-1419,151000,60000,186000,1241609,
-11024,5816,-15516,-3012,-16748,-1347,150000,60000,185000,1241611,
-10992,5712,-14840,-3707,-19524,-1530,148000,61000,184000,1241624,
-10876,5732,-14884,-3660,-19858,-1517,148000,62000,183000,1241626,
-11056,5516,-14572,-3899,-20463,-1560,148000,62000,183000,1241629,
-11732,5588,-13980,-4304,-22796,-1505,145000,64000,181000,1241641,
-11668,5700,-13660,-4478,-23244,-1486,145000,64000,180000,1241644,
-12628,5416,-12576,-4833,-25621,-1403,141000,66000,177000,1241656,
-12680,5512,-12396,-4828,-25941,-1354,141000,66000,176000,1241659,
-12720,5516,-12220,-4916,-26563,-1337,140000,67000,176000,1241661,
-13396,5416,-11300,-4824,-28914,-1165,135000,69000,171000,1241674,
-13560,5348,-11072,-4974,-29387,-1159,134000,69000,170000,1241676,
-13988,5204,-10176,-4978,-32307,-1141,128000,71000,163000,1241689,
-13748,5288,-10364,-4994,-32675,-1102,126000,72000,162000,1241691,
-13908,5192,-10056,-5002,-32768,-1133,125000,72000,160000,1241694,
-13452,5320,-9688,-5162,-32768,-1105,116000,74000,152000,1241706,
-13632,5376,-9516,-5316,-32768,-1129,114000,74000,150000,1241709,
-13684,5336,-8816,-5464,-32768,-1125,103000,75000,139000,1241721,
-13848,5372,-8560,-5642,-32768,-1111,101000,75000,137000,1241724,
-13940,5304,-8428,-5583,-32768,-1110,98000,75000,134000,1241726,
-14352,5040,-7316,-5975,-32768,-1051,86000,75000,122000,1241739,
-14348,4972,-7036,-6019,-32768,-1055,84000,75000,120000,1241741,
-14828,4928,-6672,-6051,-32768,-967,81000,75000,118000,1241744,
-15276,4428,-5484,-6156,-32768,-651,69000,74000,106000,1241756,
-15168,4508,-5220,-6067,-32768,-543,67000,74000,104000,1241759,
-14856,4396,-4340,-6468,-32768,-328,57000,73000,94000,1241771,
-14732,4444,-4100,-6384,-32768,-314,55000,73000,92000,1241774,
-14604,4476,-3864,-6524,-32768,-336,54000,72000,91000,1241776,
-13096,4660,-2192,-6783,-32768,-492,46000,70000,83000,1241789,
-12920,4676,-1748,-6653,-32768,-492,45000,70000,82000,1241791,
-12992,4464,-1448,-6696,-32768,-495,43000,70000,81000,1241793,
-12900,4228,68,-6467,-32768,30,38000,67000,75000,1241806,
-12532,4196,804,-6542,-32768,167,37000,67000,74000,1241808,
-12556,3988,1176,-6246,-32768,392,36000,66000,73000,1241811,
-11936,3524,2112,-5546,-32768,1478,32000,64000,70000,1241823,
-11848,3520,2396,-5489,-32768,1592,31000,63000,69000,1241826,
-11576,3540,2540,-5420,-32768,1733,30000,63000,68000,1241828,
-11036,3328,4008,-4382,-32768,1448,27000,60000,65000,1241841,
-11164,3432,3980,-4007,-32768,1348,27000,59000,65000,1241843,
-11252,3400,3912,-3972,-32768,1232,26000,59000,64000,1241846,
-11652,4072,3644,-4366,-32768,943,24000,56000,62000,1241858,
-11628,4152,3800,-4579,-32768,964,24000,55000,62000,1241861,
-11520,4368,3964,-4727,-32768,930,23000,55000,61000,1241863,
-10640,4632,5312,-5193,-32768,1232,21000,52000,59000,1241876,
-10280,4392,5360,-5419,-32768,1252,21000,51000,59000,1241878,
-10300,4372,5260,-5397,-32768,1304,21000,51000,59000,1241880,
-9440,3920,6648,-6257,-32768,1105,19000,48000,57000,1241893,
-9120,3748,6892,-6194,-32768,1079,19000,47000,57000,1241895,
-8864,3640,6840,-6390,-32768,1002,18000,47000,57000,1241898,
-8024,3460,7420,-6756,-32768,438,17000,43000,55000,1241910,
-7824,3620,6876,-6848,-32768,427,17000,43000,55000,1241913,
-7760,3620,6608,-7262,-32768,315,16000,42000,55000,1241915,
-7276,3584,8200,-8029,-32768,204,15000,39000,54000,1241928,
-7220,3400,7928,-8219,-32768,327,14000,39000,54000,1241930,
-7264,3348,7468,-8333,-32768,410,14000,38000,54000,1241933,
-6896,2612,8952,-9606,-32768,1082,13000,35000,53000,1241945,
-6752,2416,9132,-9585,-32768,1223,13000,34000,53000,1241948,
-6432,2312,8968,-9570,-32768,1367,12000,34000,52000,1241950,
-5248,1932,10152,-10201,-32768,1279,11000,31000,52000,1241963,
-4764,1932,10248,-10132,-32768,1307,11000,30000,52000,1241965,
-4472,1932,10732,-10310,-32768,1222,10000,29000,52000,1241967,
-2164,1696,11520,-10369,-32768,1248,9000,26000,51000,1241980,
-1384,2136,12032,-10471,-32768,1123,9000,26000,51000,1241982,
-836,3340,6012,-10839,-32768,743,8000,22000,51000,1241995,
2444,920,18444,-10621,-32768,1196,8000,22000,50000,1241997,
5236,4248,8728,-10406,-32768,1370,7000,21000,50000,1241999,
3868,2184,14784,-9456,-27822,2399,7000,18000,50000,1242012,
3608,1928,15124,-9504,-26471,2581,6000,18000,50000,1242014,
3848,2184,15044,-9284,-24990,2818,6000,17000,50000,1242017,
4488,1996,16744,-8520,-17719,3336,5000,15000,50000,1242029,
4500,2036,16972,-8258,-16491,3338,5000,15000,50000,1242031,
4576,2036,17096,-8248,-15490,3326,5000,15000,50000,1242034,
3884,2188,17836,-7427,-10572,3335,5000,14000,51000,1242046,
3776,2188,17672,-7411,-9760,3322,4000,13000,51000,1242049,
3476,2196,17924,-7191,-9105,3299,4000,13000,51000,1242051,
2684,2184,17772,-6615,-6550,3036,4000,12000,51000,1242063,
2564,2232,17652,-6608,-6359,2932,4000,12000,51000,1242066,
2380,2224,17620,-6535,-6165,2858,4000,12000,51000,1242068,
2284,2612,17704,-6634,-5995,2196,3000,11000,51000,1242080,
2176,2672,17836,-6531,-6029,2022,3000,11000,51000,1242082,
2460,2708,18052,-6651,-6138,1850,3000,11000,51000,1242085,
3016,2100,18772,-6194,-6235,970,2000,10000,51000,1242097,
2992,1864,18980,-6239,-6298,808,2000,10000,51000,1242100,
2932,1828,18980,-5988,-6159,727,2000,10000,51000,1242102,
2784,1540,19320,-5442,-5587,444,1000,10000,51000,1242114,
3016,1580,19548,-5323,-5431,382,1000,9000,51000,1242117,
2944,1560,19520,-5250,-5261,369,1000,9000,51000,1242119,
2984,1364,19872,-4592,-4271,-85,1000,9000,51000,1242131,
3128,1288,19580,-4390,-4013,-173,1000,9000,51000,1242134,
3016,1288,19840,-4333,-3870,-254,1000,9000,51000,1242136,
2804,928,19960,-3410,-2691,-466,0,8000,51000,1242148,
2796,832,20184,-3393,-2557,-546,0,8000,51000,1242151,
2928,732,20116,-3120,-2291,-536,0,8000,51000,1242153,
2728,652,19984,-3025,-2198,-591,0,8000,51000,1242155,
2380,520,19784,-2088,-1326,-642,0,8000,51000,1242168,
2400,752,19532,-2073,-1263,-724,0,8000,51000,1242170,
2420,660,19632,-1800,-1066,-750,0,8000,51000,1242172,
2984,1104,19584,-1182,-225,-1008,0,8000,51000,1242185,
2744,1040,19480,-1052,-40,-1127,0,8000,51000,1242187,
2668,1012,19444,-955,100,-1087,0,8000,51000,1242189,
1756,840,19224,-336,734,-1293,0,8000,51000,1242202,
1616,736,19232,-154,924,-1285,0,8000,51000,1242204,
1548,876,19144,-149,909,-1350,0,8000,51000,1242206,
1260,788,18900,16,1002,-1273,0,8000,51000,1242208,
828,776,19064,349,811,-1329,0,8000,51000,1242221,
796,792,18880,547,820,-1283,0,8000,51000,1242223,
956,788,18728,471,694,-1314,0,8000,51000,1242225,
904,748,18712,632,673,-1291,0,8000,51000,1242227,
960,1008,18388,808,481,-1220,0,8000,51000,1242240,
908,1020,18232,995,536,-1205,0,8000,51000,1242242,
1004,1044,18092,868,491,-1157,0,8000,51000,1242245,
844,996,17816,1186,538,-1049,0,8000,51000,1242257,
904,1052,17572,1137,501,-1006,0,8000,51000,1242259,
788,1180,17560,1277,532,-977,0,8000,51000,1242262,
700,1184,17380,1189,470,-916,0,8000,50000,1242264,
880,1416,17496,1344,220,-833,0,7000,50000,1242276,
856,1516,17424,1285,241,-779,0,7000,50000,1242279,
856,1464,17480,1388,154,-805,0,7000,50000,1242281,
500,1568,17340,1290,170,-687,0,7000,50000,1242283,
704,1620,17596,1468,-80,-755,1000,7000,50000,1242296,
564,1680,17324,1468,-119,-698,1000,7000,50000,1242298,
716,1456,17568,1547,-158,-759,1000,7000,50000,1242300,
960,1264,17488,1781,-208,-817,1000,7000,50000,1242313,
684,1272,17440,1817,-189,-895,1000,7000,50000,1242315,
924,1372,17476,1916,-143,-843,1000,7000,50000,1242317,
1000,1312,17272,1926,-151,-874,1000,7000,50000,1242320,
1100,1804,17200,2374,590,-807,1000,7000,50000,1242332,
1376,1620,16996,2294,715,-856,1000,7000,50000,1242334,
1480,1396,17020,2471,927,-893,1000,7000,50000,1242337,
1016,1432,16884,2775,1849,-1114,1000,7000,50000,1242349,
1084,1444,16704,2938,2041,-1138,2000,7000,50000,1242351,
1004,1436,16492,2873,2079,-1112,2000,7000,50000,1242354,
632,1776,16228,3203,2417,-1005,2000,8000,50000,1242366,
516,1876,16080,3131,2363,-950,2000,8000,50000,1242368,
540,2028,15916,3225,2360,-962,2000,8000,50000,1242371,
208,2108,15996,3231,2074,-974,2000,8000,50000,1242383,
180,2072,15772,3203,1947,-1004,2000,8000,50000,1242385,
88,2056,15692,3212,1895,-953,2000,8000,50000,1242388,
68,2316,15772,3003,1334,-891,3000,8000,50000,1242400,
80,2196,15724,3104,1338,-817,3000,8000,50000,1242402,
196,2360,15588,2982,1196,-877,3000,8000,50000,1242404,
152,2336,15564,3004,1157,-807,3000,8000,50000,1242407,
-28,2336,15524,2734,697,-720,3000,8000,50000,1242419,
-308,2316,15332,2870,684,-674,3000,8000,50000,1242421,
-248,2408,15492,2676,494,-592,3000,8000,50000,1242424,
-76,2660,14976,2539,-28,-261,4000,8000,49000,1242436,
-72,2680,14968,2369,-155,-206,4000,8000,49000,1242438,
-180,2652,14908,2440,-176,-164,4000,8000,49000,1242441,
-96,2888,14544,1986,-731,128,4000,8000,49000,1242453,
-176,2944,14744,2024,-834,108,4000,8000,49000,1242455,
-64,2988,14616,1857,-940,206,4000,8000,50000,1242458,
116,2992,14688,1899,-1015,256,4000,8000,50000,1242460,
488,2832,14828,1452,-1528,479,4000,7000,50000,1242473,
524,2792,14832,1383,-1640,451,4000,7000,50000,1242475,
692,2800,14872,1322,-1656,476,4000,7000,50000,1242477,
1504,2644,15296,1269,-1571,366,4000,7000,50000,1242489,
1664,2704,15128,1372,-1416,382,4000,7000,50000,1242492,
1744,2636,15268,1284,-1377,287,4000,7000,50000,1242494,
2108,3004,15156,1596,-429,146,5000,7000,50000,1242506,
2252,3140,15144,1488,-301,108,5000,7000,50000,1242509,
2376,3204,15112,1664,-61,60,5000,7000,50000,1242511,
2456,3352,15172,1547,69,-27,5000,7000,50000,1242513,
2520,3564,14860,1689,952,-479,5000,7000,50000,1242526,
2344,3548,14816,1563,1009,-524,5000,7000,50000,1242528,
2192,3588,14916,1677,1149,-656,5000,7000,50000,1242530,
1728,3680,14964,1398,1595,-1059,5000,7000,49000,1242543,
1824,3820,14884,1473,1620,-1104,5000,7000,49000,1242545,
1776,3840,14912,1339,1575,-1157,5000,7000,49000,1242547,
1480,4136,14712,1014,1680,-1467,5000,7000,49000,1242560,
1344,4156,14804,987,1701,-1521,5000,7000,49000,1242562,
1400,4084,14904,850,1667,-1601,5000,7000,49000,1242564,
1896,4080,15028,598,1803,-2063,6000,7000,49000,1242576,
1940,4016,14968,421,1816,-2189,6000,7000,49000,1242579,
2012,4076,15136,509,1975,-2250,6000,7000,49000,1242581,
1240,3636,15240,271,2744,-2564,6000,7000,49000,1242594,
1192,3684,15116,367,2941,-2625,6000,8000,49000,1242596,
1104,3756,15132,218,3009,-2713,6000,8000,49000,1242598,
656,3596,14904,210,3376,-3086,6000,8000,49000,1242611,
616,3648,15064,35,3356,-3124,6000,8000,48000,1242613,
424,3568,15052,117,3436,-3191,6000,8000,48000,1242615,
44,3428,15384,-171,3433,-3540,6000,8000,48000,1242627,
40,3436,15428,-177,3422,-3668,6000,8000,48000,1242630,
92,3480,15456,-205,3446,-3685,6000,8000,48000,1242632,
-196,3280,15684,-171,3463,-3802,6000,8000,48000,1242634,
-604,2980,16316,-69,3746,-3819,6000,9000,48000,1242647,
-736,2924,16392,-80,3759,-3862,6000,9000,48000,1242649,
-432,2848,16512,-31,3835,-3757,6000,9000,48000,1242651,
-808,2732,16860,206,4139,-3639,6000,9000,47000,1242664,
-752,2812,16756,379,4290,-3601,6000,9000,47000,1242666,
-952,2672,16788,342,4302,-3586,6000,9000,47000,1242668,
-1744,2820,16436,705,4626,-3113,6000,10000,47000,1242681,
-1700,2928,16540,586,4582,-3019,6000,10000,47000,1242683,
-1724,3004,16492,767,4677,-2938,6000,10000,47000,1242685,
-1812,3184,16624,698,4443,-2520,6000,10000,47000,1242698,
-1876,3308,16664,765,4429,-2487,6000,11000,47000,1242700,
-1876,3356,16684,659,4326,-2344,6000,11000,47000,1242702,
-2004,3388,16580,736,3749,-1983,6000,11000,46000,1242715,
-1948,3408,16528,748,3615,-1886,6000,11000,46000,1242717,
-2064,3316,16452,772,3472,-1857,6000,11000,46000,1242719,
-2096,3468,16188,869,2782,-1364,6000,11000,46000,1242732,
-2060,3484,16176,771,2572,-1293,6000,11000,46000,1242734,
-1928,3508,16084,855,2532,-1152,6000,11000,46000,1242736,
-1856,3536,15868,723,1863,-710,6000,12000,46000,1242749,
-2108,3512,16048,831,1812,-581,6000,12000,46000,1242751,
-1824,3640,15884,713,1663,-554,6000,12000,46000,1242753,
-1692,3744,15984,832,1434,-380,6000,12000,46000,1242766,
-1456,3600,15968,719,1389,-315,6000,12000,46000,1242768,
-1576,3540,15956,885,1412,-264,6000,12000,46000,1242770,
-1568,3584,15684,881,1308,-18,6000,12000,46000,1242783,
-1588,3480,15848,948,1289,-40,6000,12000,46000,1242785,
-1760,3456,15708,857,1282,0,6000,12000,46000,1242787,
-1708,3428,15532,957,1216,95,7000,12000,46000,1242800,
-1752,3428,15484,920,1236,137,7000,12000,46000,1242802,
-1672,3484,15472,972,1185,93,7000,12000,46000,1242804,
-1060,3296,15256,952,1235,16,7000,12000,46000,1242817,
-1248,3332,15192,915,1265,-49,7000,12000,46000,1242819,
-956,3364,15260,957,1330,-52,7000,12000,46000,1242821,
-892,3676,14888,914,1965,-33,7000,12000,46000,1242834,
-768,3696,14940,1047,2088,-14,7000,12000,46000,1242836,
-960,3696,14688,897,2204,-35,7000,12000,46000,1242838,
-1080,3836,14388,875,2702,-75,7000,12000,46000,1242851,
-1128,3852,14396,744,2698,-97,7000,12000,46000,1242853,
-1088,3888,14320,825,2789,-92,7000,13000,46000,1242855,
-1356,3956,14220,384,2486,-39,7000,13000,46000,1242868,
-1324,3920,14260,406,2415,-71,7000,13000,46000,1242870,
