Ax,Ay,Az,Gx,Gy,Gz,Roll,Pitch,Yaw,Timestamp,Target
-5172,9980,11140,-400,-20,-572,34000,22000,194000,594938,
-5384,9828,11084,-411,192,-496,34000,22000,194000,594951,
-5432,9816,11188,-445,202,-556,34000,22000,194000,594953,
-5512,9952,11200,-405,274,-511,34000,22000,194000,594955,
-5440,10188,11140,-445,313,-505,34000,22000,194000,594967,
-5344,10032,11192,-350,408,-490,34000,22000,194000,594970,
-5428,10064,11248,-481,355,-520,34000,22000,194000,594972,
-5788,10028,11152,-383,333,-545,34000,22000,194000,594985,
-5692,9972,11372,-494,276,-514,34000,22000,194000,594987,
-5644,9992,11264,-338,313,-530,34000,22000,194000,594989,
-5684,10088,11252,-515,150,-461,34000,22000,194000,595001,
-5508,10004,11268,-462,107,-503,34000,22000,194000,595004,
-5656,10068,11220,-501,103,-458,34000,22000,194000,595006,
-5600,9956,11316,-550,-6,-471,34000,22000,194000,595018,
-5736,9972,11428,-422,55,-449,34000,22000,194000,595021,
-5612,10040,11328,-557,-6,-469,34000,22000,194000,595023,
-5496,10088,11420,-425,31,-429,34000,22000,194000,595036,
-5504,10072,11172,-558,4,-396,34000,22000,194000,595038,
-5588,9932,11344,-448,42,-414,34000,22000,194000,595040,
-5496,9968,11360,-517,79,-358,33000,22000,194000,595053,
-5500,9988,11248,-521,44,-411,33000,22000,194000,595055,
-5396,9976,11256,-554,62,-388,33000,22000,194000,595057,
-5344,10068,11224,-620,23,-389,33000,22000,194000,595070,
-5420,9924,11100,-532,55,-358,33000,22000,194000,595072,
-5404,9900,11328,-647,9,-372,33000,22000,194000,595074,
-5372,9904,11200,-535,63,-334,33000,22000,194000,595087,
-5364,9920,11180,-721,-5,-312,33000,22000,194000,595089,
-5260,10000,11172,-577,49,-329,33000,22000,194000,595091,
-5248,9888,11248,-726,-18,-334,33000,22000,194000,595104,
-5448,9952,11208,-717,-59,-396,33000,22000,194000,595106,
-5284,9800,11288,-768,-78,-368,33000,22000,194000,595108,
-5232,9880,11204,-863,-112,-427,33000,22000,194000,595121,
-5292,9992,11272,-803,-105,-352,33000,22000,194000,595123,
-5368,9912,11060,-873,-132,-403,33000,22000,194000,595125,
-5232,9860,11108,-843,-170,-329,33000,22000,194000,595138,
-5304,9952,11156,-989,-254,-371,33000,22000,194000,595140,
-5284,9820,11072,-862,-175,-337,33000,22000,194000,595142,
-5184,10040,11296,-995,-317,-396,33000,22000,194000,595155,
-5120,9948,11316,-940,-281,-411,33000,22000,194000,595157,
-5320,9900,11344,-1036,-293,-392,33000,22000,194000,595159,
-5352,9876,11624,-1063,-342,-363,33000,22000,194000,595172,
-5376,9804,11484,-964,-287,-328,33000,22000,194000,595174,
-5344,9804,11580,-1037,-309,-396,33000,22000,194000,595176,
-5344,9852,11528,-836,-365,-392,33000,22000,194000,595189,
-5360,9892,11504,-958,-426,-388,33000,22000,194000,595191,
-5336,9816,11496,-827,-423,-405,33000,22000,194000,595193,
-5404,9848,11436,-836,-547,-436,33000,22000,194000,595206,
-5248,9804,11460,-889,-592,-492,33000,22000,194000,595208,
-5300,9896,11364,-836,-523,-485,33000,22000,194000,595211,
-5112,9812,11488,-838,-486,-535,33000,22000,194000,595223,
-5208,9860,11616,-673,-424,-529,33000,22000,194000,595225,
-5188,9832,11576,-761,-474,-538,33000,22000,194000,595228,
-5448,9764,11852,-577,-347,-550,33000,22000,194000,595240,
-5236,9812,11808,-572,-276,-496,33000,22000,194000,595242,
-5468,9860,11896,-475,-231,-509,33000,22000,194000,595245,
-5316,9928,11908,-400,-156,-449,33000,22000,194000,595257,
-5348,10048,11928,-436,-221,-490,33000,22000,194000,595260,
-5468,10020,11952,-369,-214,-452,33000,22000,194000,595262,
-5504,9844,11948,-319,-381,-493,33000,22000,194000,595274,
-5700,9792,11756,-195,-276,-461,33000,22000,194000,595277,
-5620,9832,11740,-331,-437,-479,33000,22000,194000,595279,
-5428,10084,11644,-121,-514,-470,33000,22000,194000,595292,
-5328,9984,11788,-204,-534,-421,33000,22000,194000,595294,
-5336,9916,11816,-137,-535,-448,33000,22000,194000,595296,
-5400,10160,11912,-55,-592,-338,33000,22000,194000,595309,
-5376,10236,11860,-165,-705,-361,33000,22000,194000,595311,
-5348,10276,12064,-26,-650,-319,33000,22000,194000,595313,
-5156,10500,12044,-174,-755,-257,33000,22000,194000,595326,
-5080,10556,11988,-108,-770,-299,33000,22000,194000,595328,
-5368,10524,12108,-150,-785,-246,33000,22000,194000,595331,
-5320,10556,12644,-164,-1288,-255,33000,22000,193000,595343,
-5144,10676,12700,-61,-1364,-194,33000,22000,193000,595345,
-5304,10760,12776,-165,-1580,-215,33000,22000,193000,595348,
-5244,11028,13160,11,-2406,-177,33000,21000,193000,595360,
-5188,11144,13240,-106,-2604,-182,33000,21000,193000,595363,
-5072,11132,13332,44,-2703,-197,33000,21000,193000,595365,
-4736,11308,13476,21,-3400,-182,33000,21000,193000,595377,
-4808,11372,13672,90,-3571,-284,33000,21000,193000,595380,
-4760,11348,13608,83,-3668,-214,33000,21000,193000,595382,
-4556,11688,14092,171,-4230,-227,33000,21000,193000,595395,
-4476,11904,14176,321,-4236,-181,33000,21000,193000,595397,
-4528,11788,14208,226,-4369,-253,33000,20000,193000,595399,
-4028,12088,14736,491,-4584,-322,33000,20000,192000,595412,
-4068,12088,14712,426,-4553,-309,33000,20000,192000,595414,
-3828,12228,14884,525,-4534,-383,33000,20000,192000,595417,
-3680,12332,14988,715,-4311,-349,33000,19000,192000,595429,
-4180,12756,12428,526,-5172,-582,33000,19000,192000,595431,
-4064,11952,17392,702,-4356,-437,33000,19000,192000,595434,
-3136,12016,14736,850,-4278,-623,33000,19000,192000,595446,
-2864,12128,14484,993,-4205,-733,33000,19000,192000,595449,
-3104,12072,14420,927,-4244,-744,33000,19000,192000,595451,
-2968,11876,14464,1212,-4228,-1224,33000,18000,191000,595463,
-3072,11748,14540,1355,-4154,-1292,33000,18000,191000,595466,
-3020,11704,14456,1302,-4203,-1411,33000,18000,191000,595468,
-3152,11284,14136,1763,-4063,-1853,33000,18000,191000,595481,
-3192,11088,14140,1734,-4080,-1886,33000,18000,191000,595483,
-3140,11036,14100,1905,-4075,-1985,33000,18000,191000,595485,
-3360,10552,13592,2127,-4282,-2326,33000,18000,190000,595498,
-3232,10516,13736,2188,-4357,-2482,33000,18000,190000,595500,
-3200,10520,13660,2227,-4367,-2518,33000,18000,190000,595502,
-2984,10364,13144,2410,-4435,-2958,33000,17000,189000,595515,
-2804,10396,12884,2601,-4356,-3023,33000,17000,189000,595517,
-3072,10244,12856,2679,-4153,-3254,33000,17000,189000,595530,
-3128,10304,12836,2795,-4119,-3321,33000,17000,189000,595532,
-2956,10216,12736,2706,-4033,-3332,33000,17000,189000,595534,
-2976,9928,12232,2864,-3933,-3609,33000,17000,188000,595547,
-2944,9864,12340,3062,-3875,-3633,34000,17000,188000,595549,
-3100,9740,12100,2948,-4002,-3710,34000,17000,188000,595551,
-3328,9508,12108,3149,-4288,-3939,34000,17000,187000,595564,
-3316,9520,12132,3103,-4301,-3915,34000,17000,187000,595566,
-3428,9588,11992,3199,-4355,-3992,34000,17000,187000,595569,
-3652,10052,11752,3215,-4488,-3846,34000,16000,187000,595581,
-3596,10272,11720,3029,-4658,-3863,34000,16000,187000,595584,
-3596,10280,11676,3152,-4691,-3815,34000,16000,186000,595586,
-3728,10776,11832,2896,-5306,-3733,34000,16000,186000,595598,
-3792,10900,11976,2912,-5605,-3790,34000,16000,186000,595601,
-3764,11000,12148,2831,-5822,-3790,34000,16000,186000,595603,
-3700,11076,12788,2686,-7671,-4165,34000,16000,185000,595616,
-3560,11252,13056,2847,-7957,-4242,34000,16000,185000,595618,
-3144,11324,13292,2880,-9537,-4696,34000,15000,184000,595631,
-3344,11300,13360,2919,-9727,-4839,34000,15000,184000,595633,
-3124,11452,13196,2930,-9796,-4843,34000,15000,183000,595635,
-2448,11504,12356,2895,-10083,-5457,34000,14000,182000,595648,
-2392,11676,12188,3030,-10023,-5561,34000,14000,182000,595650,
-2200,11808,12084,2869,-10103,-5703,34000,14000,182000,595653,
-1572,12192,11320,2705,-10201,-6297,35000,14000,181000,595665,
-1440,12416,11128,2568,-10177,-6323,35000,13000,181000,595667,
-1396,12416,11048,2567,-10216,-6463,35000,13000,181000,595670,
-1860,11988,10696,2297,-9865,-6794,35000,13000,180000,595682,
-2048,11856,10744,2138,-9967,-6895,35000,13000,179000,595685,
-2912,11312,11480,2273,-9697,-7132,35000,12000,178000,595697,
-3024,11312,11424,2133,-9643,-7109,35000,12000,178000,595700,
-3104,11180,11660,2280,-9574,-7177,35000,12000,178000,595702,
-3780,11004,11496,2172,-9240,-7327,35000,12000,177000,595714,
-3900,11124,11536,2112,-9232,-7444,35000,12000,176000,595717,
-4012,11092,11396,2142,-9036,-7418,35000,12000,176000,595719,
-4172,11252,11312,2032,-8595,-7694,35000,12000,175000,595732,
-4096,11324,11192,2121,-8568,-7790,35000,12000,175000,595734,
-4180,11396,11052,1892,-8553,-7818,35000,12000,175000,595736,
-4280,11228,10484,1673,-8075,-8212,35000,11000,174000,595749,
-4360,11144,10456,1590,-7910,-8203,35000,11000,173000,595751,
-4360,10904,10224,1601,-7910,-8335,35000,11000,173000,595753,
-4328,10200,10792,1629,-7917,-8585,35000,11000,172000,595766,
-4664,10124,10800,1465,-8043,-8673,35000,11000,172000,595768,
-4740,9372,11144,1516,-8190,-8865,35000,11000,171000,595781,
-4300,9372,10808,1453,-8225,-8763,35000,11000,171000,595783,
-4320,9268,10716,1455,-8314,-8887,35000,11000,170000,595785,
-3916,9460,9648,1139,-7713,-8936,35000,11000,169000,595798,
-4244,9424,9308,944,-7558,-8954,34000,11000,169000,595800,
-4380,9588,9220,992,-7217,-8838,34000,11000,169000,595802,
-6352,8624,9156,911,-5584,-8264,34000,11000,168000,595815,
-6828,8172,9280,1070,-5473,-8236,34000,11000,168000,595817,
-7036,8032,9504,1028,-5392,-8165,34000,11000,167000,595820,
-6364,7284,10876,1028,-6917,-9053,34000,11000,166000,595832,
-6320,6988,11500,1265,-7537,-9378,34000,11000,166000,595834,
-6008,7200,11192,1135,-8333,-9855,34000,11000,166000,595837,
-4876,8196,13508,1075,-8510,-10363,34000,11000,165000,595849,
-4948,7828,13336,1049,-8401,-10131,34000,11000,164000,595852,
-4884,7828,13180,1182,-7999,-9697,34000,11000,164000,595854,
-6092,7912,11992,1513,-3315,-7626,34000,11000,163000,595866,
-5548,7592,12856,1965,-2935,-7075,34000,11000,163000,595869,
-5092,7944,10956,1719,-2438,-6822,34000,11000,163000,595871,
-6792,8052,9820,1821,-327,-5640,34000,12000,163000,595883,
-6720,7980,9132,1748,-433,-5500,34000,12000,163000,595886,
-7036,8064,9136,1652,-637,-5505,34000,12000,162000,595888,
-7040,8148,8460,1420,-1177,-5083,34000,12000,162000,595900,
-7176,8240,8228,1002,-1751,-5062,34000,12000,162000,595903,
-6684,8348,8884,938,-1904,-4980,34000,12000,162000,595905,
-6552,7908,9512,538,-1862,-3915,34000,12000,161000,595917,
-6620,7908,9784,686,-1736,-3662,34000,12000,161000,595920,
-6408,7976,9856,548,-1749,-3460,34000,13000,161000,595922,
-6212,8164,9384,464,-1812,-2493,34000,13000,161000,595934,
-6268,8252,9448,341,-1833,-2280,34000,13000,161000,595937,
-6316,8288,9376,396,-1889,-2099,34000,13000,161000,595939,
-6668,8980,9288,109,-2336,-1164,34000,13000,161000,595951,
-6624,9128,9220,-121,-2556,-1043,34000,13000,161000,595954,
-6492,9132,9412,-52,-2613,-902,34000,13000,161000,595956,
-5792,9452,10036,-536,-3005,-465,34000,12000,160000,595969,
-5796,9416,10096,-451,-2988,-357,34000,12000,160000,595971,
-5708,9352,10120,-632,-3007,-208,34000,12000,160000,595973,
-5820,8984,10364,-719,-2780,505,34000,12000,160000,595986,
-5872,8976,10464,-679,-2703,644,34000,12000,160000,595988,
-5852,9120,10264,-757,-2778,745,34000,12000,160000,595990,
-5496,9060,10092,-749,-2927,1110,34000,12000,160000,596003,
-5524,9024,10148,-920,-3054,1145,34000,12000,160000,596005,
-5512,9184,9944,-801,-3005,1182,34000,12000,160000,596007,
-5116,9268,9884,-1005,-3264,1231,34000,11000,160000,596020,
-4984,9308,10028,-902,-3243,1265,34000,11000,160000,596022,
-4808,9440,10168,-1033,-3292,1269,34000,11000,160000,596024,
-4004,9744,10560,-1050,-3022,1306,34000,11000,160000,596037,
-4028,9796,10840,-1049,-2872,1348,34000,11000,160000,596039,
-3796,9928,10732,-986,-2729,1337,34000,11000,160000,596041,
-3640,10176,11140,-824,-2154,1647,34000,11000,160000,596054,
-3408,10220,11108,-943,-2133,1635,34000,11000,160000,596056,
-3528,10172,11228,-787,-2063,1683,34000,11000,160000,596059,
-3084,10256,11280,-807,-1783,1645,34000,10000,160000,596071,
-3092,10288,11312,-739,-1766,1609,34000,10000,160000,596073,
-3060,10212,11332,-761,-1705,1602,34000,10000,160000,596076,
-3124,10100,11036,-771,-1579,1467,34000,10000,160000,596088,
-3192,10024,10936,-658,-1497,1477,34000,10000,160000,596091,
-2796,10124,11068,-731,-1274,1264,34000,10000,160000,596103,
-2680,10084,11124,-664,-1237,1202,34000,10000,160000,596106,
-2584,10120,11048,-627,-1107,1191,34000,10000,160000,596108,
-2624,10168,11172,-625,-725,1169,34000,10000,160000,596120,
-2728,10044,11184,-534,-681,1145,34000,10000,160000,596123,
-2736,10148,11452,-623,-676,1135,34000,10000,160000,596125,
-2628,10044,11352,-602,-820,864,34000,10000,160000,596138,
-2632,10100,11360,-536,-805,879,34000,10000,160000,596140,
-2796,9980,11440,-577,-840,851,34000,10000,160000,596142,
-2808,9924,11212,-443,-789,742,34000,9000,160000,596155,
-2924,10032,11224,-582,-829,768,34000,9000,160000,596157,
-2664,10200,11268,-426,-721,735,34000,9000,160000,596159,
-2208,10392,11320,-494,-688,601,34000,9000,160000,596172,
-2324,10228,11476,-459,-646,476,34000,9000,160000,596174,
-2204,10124,11392,-482,-643,448,34000,9000,160000,596176,
-2208,10012,11204,-457,-387,176,34000,9000,160000,596189,
-2080,10120,11196,-301,-248,221,34000,9000,160000,596191,
-2200,10080,11192,-404,-237,175,34000,9000,160000,596194,
-2352,10092,11344,-261,195,160,34000,9000,160000,596206,
-2424,10128,11316,-403,228,92,34000,9000,160000,596208,
-2252,10216,11244,-262,316,74,34000,9000,160000,596211,
-2492,10280,11284,-355,514,-29,34000,9000,160000,596223,
-2584,10224,11388,-351,493,-75,34000,9000,160000,596226,
-2592,10280,11392,-332,537,-51,34000,9000,160000,596228,
-2628,10324,11560,-360,466,-359,34000,9000,160000,596240,
-2560,10376,11528,-200,476,-366,34000,9000,160000,596243,
-2624,10392,11420,-343,403,-385,34000,9000,160000,596245,
-2716,10188,11548,-245,326,-497,34000,9000,160000,596257,
-2704,10088,11560,-345,324,-485,34000,9000,160000,596260,
-2616,10252,11616,-267,329,-528,34000,9000,160000,596262,
-2724,10180,11564,-234,488,-536,34000,10000,160000,596275,
-2768,10136,11356,-324,486,-552,34000,10000,160000,596277,
-2864,10156,11540,-281,541,-520,34000,10000,160000,596279,
-2848,10252,11540,-325,649,-569,34000,10000,160000,596292,
-2608,10416,11440,-197,679,-523,34000,10000,160000,596294,
-2640,10284,11456,-349,685,-591,34000,10000,160000,596296,
-2796,10448,11668,-310,802,-562,34000,10000,160000,596309,
-3100,10356,11812,-345,781,-530,34000,10000,160000,596311,
-2860,10412,11652,-287,770,-544,34000,10000,160000,596314,
-3188,10344,11808,-295,748,-481,34000,10000,160000,596326,
-3120,10308,11860,-371,651,-529,34000,10000,160000,596328,
-3008,10280,11644,-260,664,-506,34000,10000,160000,596331,
-3228,10432,11760,-376,441,-518,34000,10000,160000,596343,
-3192,10428,11716,-225,508,-508,34000,10000,160000,596346,
-3296,10444,11720,-366,392,-513,34000,10000,160000,596348,
-3000,10604,11676,-301,384,-499,34000,10000,160000,596360,
-2988,10656,11804,-296,448,-420,34000,10000,160000,596363,
-3036,10544,11832,-284,469,-485,34000,10000,160000,596365,
-3236,10588,11824,-193,621,-321,34000,10000,160000,596377,
-3084,10600,11856,-309,600,-366,34000,10000,160000,596380,
-3204,10564,11676,-164,676,-328,34000,10000,160000,596382,
-3340,10784,11608,-246,703,-304,34000,10000,160000,596394,
-3392,10664,11868,-169,714,-301,34000,10000,160000,596397,
-3424,10768,11716,-230,669,-281,34000,10000,160000,596399,
-3468,10780,11524,-257,494,-344,34000,10000,160000,596412,
-3476,10892,11636,-173,504,-346,34000,10000,160000,596414,
-3512,10856,11688,-255,477,-313,34000,10000,160000,596416,
-3344,10804,11604,-308,383,-290,34000,10000,160000,596429,
-3360,10832,11752,-170,429,-257,34000,10000,160000,596431,
-3364,10852,11740,-299,359,-245,34000,10000,160000,596433,
-3660,10724,11736,-167,464,-162,34000,11000,161000,596446,
-3600,10712,11608,-243,472,-167,34000,11000,161000,596448,
-3728,10812,11704,-164,523,-183,34000,11000,161000,596451,
-3616,10880,11320,-104,599,-163,34000,11000,161000,596463,
-3520,10852,11440,-204,515,-218,34000,11000,161000,596466,
-3584,10928,11440,-137,578,-185,34000,11000,161000,596468,
-3780,10756,11488,-263,498,-262,34000,11000,161000,596480,
-3748,10676,11504,-138,567,-224,34000,11000,161000,596483,
-3612,10820,11508,-295,466,-255,34000,11000,161000,596485,
-3676,10796,11416,-296,324,-142,34000,11000,161000,596498,
-3744,10716,11548,-339,321,-59,34000,11000,161000,596500,
-3788,10716,11472,-357,268,-69,34000,11000,161000,596502,
-3788,10664,11528,-303,246,93,34000,11000,161000,596515,
-3564,10660,11476,-430,197,72,34000,11000,161000,596517,
-3616,10600,11588,-292,273,158,34000,11000,161000,596519,
-3488,10588,11428,-395,339,218,34000,11000,161000,596532,
-3592,10676,11416,-284,370,220,34000,11000,161000,596534,
-3528,10592,11448,-379,403,241,34000,11000,161000,596537,
-3388,10676,11500,-356,556,224,34000,11000,161000,596549,
-3460,10668,11660,-223,645,252,34000,11000,161000,596551,
-3600,10516,11636,-348,568,216,34000,11000,161000,596554,
-3868,10532,11756,-162,529,244,34000,11000,161000,596566,
-3792,10520,11656,-272,419,316,34000,11000,161000,596569,
-3820,10428,11584,-149,402,268,34000,11000,161000,596571,
-3456,10464,11584,-199,68,235,34000,11000,161000,596583,
-3524,10628,11716,-202,-3,177,34000,11000,161000,596586,
-3388,10632,11720,-189,40,187,34000,11000,161000,596588,
-3168,10580,11760,-173,222,190,35000,11000,161000,596601,
-3220,10676,11796,-4,404,244,35000,11000,161000,596603,
-2968,10608,11820,-117,426,215,35000,11000,161000,596605,
-2932,10696,11692,124,1130,224,35000,11000,161000,596618,
-2948,10552,11744,59,1265,267,35000,11000,161000,596620,
-2916,10684,11816,158,1397,235,35000,11000,161000,596622,
-3284,10680,11528,281,1764,366,35000,11000,161000,596635,
-3300,10728,11508,164,1692,316,35000,11000,161000,596637,
-3280,10708,11648,292,1778,346,35000,11000,161000,596640,
-3356,10812,11344,195,1521,251,35000,11000,161000,596652,
-3296,10876,11300,280,1409,206,35000,11000,161000,596654,
-3268,10832,11444,198,1384,225,35000,11000,161000,596657,
-3200,11056,11328,106,862,45,35000,11000,161000,596669,
-3308,10968,11572,196,878,70,35000,11000,162000,596672,
-3140,11020,11488,115,810,-16,35000,11000,162000,596674,
-2948,11144,11516,239,799,-94,35000,12000,162000,596686,
-2940,11036,11404,81,710,-161,35000,12000,162000,596689,
-2900,11156,11444,204,743,-165,35000,12000,162000,596691,
-3088,11224,11572,46,664,-292,35000,12000,162000,596704,
-2900,11236,11724,99,680,-344,35000,12000,162000,596706,
-2868,11372,11564,36,672,-320,35000,12000,162000,596708,
-3116,11400,11620,15,705,-458,35000,12000,162000,596721,
-2900,11412,11576,108,755,-419,35000,12000,162000,596723,
-2840,11432,11660,18,658,-485,35000,12000,162000,596725,
-2972,11572,11580,39,605,-754,35000,12000,162000,596738,
-3016,11464,11632,-64,596,-748,35000,12000,162000,596740,
-3196,11484,11676,8,627,-845,35000,12000,162000,596743,
-3088,11644,11800,68,660,-959,35000,12000,162000,596755,
-3116,11648,11840,-48,604,-1004,35000,12000,162000,596757,
-3016,11616,11792,79,661,-1009,35000,12000,162000,596760,
-2876,11988,11772,-21,627,-1262,35000,12000,162000,596772,
-3040,11948,11924,5,613,-1305,35000,12000,162000,596775,
-2812,12016,11916,32,625,-1331,35000,12000,162000,596777,
-3004,12184,11972,13,700,-1474,36000,12000,161000,596789,
-3088,12312,11952,143,788,-1473,36000,12000,161000,596792,
-3360,12244,11956,7,760,-1492,36000,12000,161000,596794,
-3728,12404,12172,195,955,-1559,36000,12000,161000,596807,
-3684,12476,12080,120,932,-1540,36000,12000,161000,596809,
-3800,12488,12284,209,927,-1597,36000,13000,161000,596811,
-3860,12604,12200,262,903,-1733,36000,13000,161000,596824,
-4128,12588,12284,218,846,-1778,36000,13000,161000,596826,
-4028,12556,12144,310,893,-1777,36000,13000,161000,596828,
-4264,12616,12020,371,962,-1735,36000,13000,161000,596841,
-4316,12704,12048,557,1064,-1660,36000,13000,161000,596843,
-4432,12708,12064,443,1037,-1608,36000,13000,161000,596845,
-4916,12880,11928,613,999,-1510,36000,13000,161000,596858,
-5112,12868,11888,691,1055,-1470,36000,13000,161000,596860,
-4960,13156,11812,650,990,-1514,36000,13000,161000,596862,
-5244,13932,11716,761,950,-1246,36000,13000,161000,596875,
-5300,13788,11856,628,845,-1241,36000,13000,161000,596877,
-5412,13876,11720,753,890,-1183,36000,13000,161000,596879,
-5844,13924,11952,610,636,-1033,36000,14000,161000,596892,
-5772,13980,11848,642,567,-1039,36000,14000,161000,596894,
-6000,14064,11676,596,534,-958,36000,14000,161000,596897,
-6528,13584,11560,524,189,-681,36000,14000,161000,596909,
-6588,13508,11488,678,199,-643,37000,14000,161000,596912,
-6588,13644,11400,557,68,-631,37000,14000,161000,596914,
-7452,13432,11164,655,-57,-156,37000,14000,161000,596926,
-7616,13204,11264,590,-123,-5,37000,14000,161000,596929,
-7412,13332,11128,620,-209,38,37000,14000,161000,596931,
-7368,13080,10568,711,-578,360,37000,14000,161000,596944,
-7236,13260,10392,571,-659,411,37000,14000,161000,596946,
-7284,13244,10264,649,-571,554,37000,14000,161000,596948,
-7608,12840,9884,501,-478,1277,37000,14000,161000,596961,
-7900,12700,9708,571,-431,1350,37000,14000,161000,596963,
-7928,12616,9612,479,-517,1490,37000,14000,161000,596965,
-8296,12116,9500,301,-889,1993,37000,14000,161000,596978,
-8428,11924,9464,396,-925,2149,37000,14000,161000,596980,
-8568,11940,9248,224,-1104,2174,37000,14000,161000,596983,
-8576,11548,9164,135,-1383,2834,37000,13000,161000,596995,
-8356,11488,8928,-67,-1497,2959,37000,13000,162000,596997,
-8308,11364,9136,42,-1454,3063,37000,13000,162000,597000,
-7864,10756,9060,-251,-1504,3697,38000,13000,162000,597012,
-8084,10496,8708,-306,-1491,3854,38000,13000,162000,597015,
-7832,10328,8612,-367,-1381,3981,38000,13000,162000,597017,
-7860,9988,8508,-651,-1139,4858,38000,13000,162000,597030,
-7616,9896,8524,-591,-1032,5034,38000,13000,162000,597032,
-7700,9812,8384,-763,-1044,5165,38000,13000,162000,597034,
-7408,9180,8428,-858,-841,5877,38000,12000,163000,597047,
-7392,9032,8568,-1050,-907,5976,38000,12000,163000,597049,
-7316,9084,8504,-951,-893,6127,38000,12000,163000,597051,
-7408,8496,8516,-1221,-1052,7005,38000,12000,163000,597064,
-7116,8320,8468,-1320,-1121,7141,38000,12000,163000,597066,
-7152,8372,8468,-1335,-1133,7306,38000,12000,164000,597068,
-6268,8160,8536,-1625,-1398,7962,38000,11000,164000,597081,
-6028,8116,8496,-1538,-1351,8086,38000,11000,164000,597083,
-5964,7984,8424,-1741,-1415,8178,38000,11000,164000,597085,
-5520,7596,8504,-1879,-1335,8800,38000,11000,165000,597098,
-5500,7612,8568,-2011,-1370,8971,38000,10000,165000,597100,
-5348,7560,8372,-1940,-1322,9114,38000,10000,165000,597102,
-4536,7320,8772,-2220,-1371,9794,38000,10000,166000,597115,
-4444,7212,8564,-2342,-1486,9815,38000,10000,166000,597117,
-4404,7136,8820,-2341,-1464,9903,38000,10000,166000,597120,
-3820,6908,8620,-2680,-1908,10315,37000,9000,167000,597132,
-3640,6980,8628,-2630,-1928,10425,37000,9000,167000,597134,
-3456,7052,8740,-2818,-2020,10465,37000,9000,167000,597137,
-2320,7084,8792,-3090,-2030,10870,37000,8000,168000,597149,
-2252,7172,8884,-3120,-1953,10949,37000,8000,168000,597151,
-2096,7072,8848,-3192,-1966,11004,37000,8000,168000,597154,
-1560,6944,9148,-3309,-1504,11341,37000,7000,169000,597166,
-1532,6912,9204,-3489,-1527,11375,37000,7000,169000,597168,
-1300,7020,9368,-3359,-1392,11483,37000,6000,169000,597171,
-748,6844,9496,-3733,-1566,11607,37000,6000,170000,597183,
-720,6820,9420,-3753,-1642,11637,37000,5000,170000,597185,
-736,6668,9352,-3833,-1718,11594,36000,5000,170000,597188,
-360,6252,9668,-4105,-2261,11581,36000,4000,171000,597200,
-340,6232,9396,-4098,-2378,11598,36000,4000,171000,597202,
-140,6272,9508,-4202,-2584,11573,36000,4000,171000,597205,
588,6044,9528,-4409,-3447,11419,36000,3000,172000,597217,
520,5984,9556,-4630,-3632,11338,36000,3000,172000,597220,
884,6080,9776,-4539,-3722,11323,35000,3000,172000,597222,
1692,5988,10480,-4920,-4266,11316,35000,2000,173000,597235,
2024,5944,10504,-4958,-4294,11349,35000,2000,173000,597237,
2080,5916,10332,-4985,-4339,11314,35000,1000,173000,597239,
3036,5900,10176,-5182,-4002,11474,34000,0,174000,597252,
3244,6120,10556,-5071,-4049,11523,34000,0,174000,597254,
3324,6096,10732,-5224,-4096,11518,34000,0,174000,597256,
4080,6116,11012,-5265,-3542,11490,34000,0,175000,597269,
4456,6204,11200,-5408,-3622,11392,33000,0,175000,597271,
4580,6128,11116,-5302,-3625,11335,33000,0,175000,597273,
5312,6244,11456,-5439,-3787,10913,33000,-1000,175000,597286,
5672,6236,11740,-5361,-3756,10854,33000,-2000,176000,597288,
5808,6316,11652,-5388,-3726,10795,33000,-2000,176000,597290,
6260,5848,11916,-5252,-3810,10250,32000,-3000,176000,597303,
6248,5792,11888,-5148,-3788,10169,32000,-3000,176000,597305,
6460,5900,11960,-5235,-3872,10000,32000,-3000,177000,597307,
6916,5872,12164,-5061,-4070,9400,31000,-4000,177000,597320,
7080,5892,12200,-5115,-4113,9322,31000,-4000,177000,597322,
7148,5944,12172,-5037,-4165,9187,31000,-4000,177000,597324,
7480,5792,12752,-4930,-4152,8442,30000,-5000,178000,597337,
7812,5852,12828,-5045,-4192,8246,30000,-5000,178000,597339,
7804,5668,12904,-4893,-4054,8132,30000,-6000,178000,597342,
8060,5868,13100,-4729,-3411,7499,30000,-6000,178000,597354,
8024,5740,13104,-4597,-3174,7400,30000,-7000,179000,597356,
8068,5712,13056,-4613,-3021,7316,30000,-7000,179000,597359,
8220,5920,13008,-4351,-1986,6479,29000,-7000,179000,597371,
8280,5844,13088,-4223,-1737,6290,29000,-7000,179000,597373,
8452,6012,12972,-4302,-1588,6067,29000,-7000,179000,597376,
8784,6040,12760,-4055,-557,4981,28000,-8000,180000,597388,
8716,6012,12876,-4153,-438,4765,28000,-8000,180000,597391,
8760,6040,12824,-4001,-225,4607,28000,-8000,180000,597393,
8432,6104,12844,-3908,623,3811,28000,-8000,180000,597405,
8468,6276,13024,-3925,731,3701,28000,-8000,180000,597408,
8336,6276,13172,-3860,913,3587,28000,-8000,180000,597410,
8360,6560,13028,-3890,1494,2916,27000,-9000,181000,597422,
8204,6752,13168,-3680,1744,2838,27000,-9000,181000,597425,
8152,6960,13148,-3761,1872,2701,27000,-9000,181000,597427,
7788,6972,13000,-3678,2096,1866,27000,-9000,181000,597439,
7616,6908,13032,-3733,2137,1709,27000,-9000,181000,597442,
7468,6912,13044,-3696,2133,1478,26000,-9000,181000,597444,
7456,7148,13044,-3659,2154,353,26000,-9000,181000,597457,
7576,7248,13128,-3825,2052,103,26000,-8000,181000,597459,
7432,7332,13116,-3717,2115,-6,26000,-8000,181000,597461,
7272,7312,13432,-3853,2156,-911,26000,-8000,181000,597474,
7404,7396,13428,-3747,2168,-1144,26000,-8000,181000,597476,
7424,7472,13356,-3853,2138,-1375,26000,-8000,181000,597478,
7212,7660,13316,-3860,2048,-2209,25000,-8000,181000,597491,
7252,7588,13428,-3859,2079,-2360,25000,-8000,181000,597493,
7252,7572,13452,-3871,2054,-2596,25000,-8000,181000,597495,
7108,7588,13160,-3804,2297,-3721,25000,-8000,181000,597508,
6976,7608,13132,-3938,2293,-3929,25000,-8000,181000,597510,
7196,7632,13408,-3797,2423,-4066,25000,-8000,181000,597512,
6788,7452,13152,-3846,2778,-5146,24000,-7000,180000,597525,
6652,7636,13212,-3753,2876,-5339,24000,-7000,180000,597527,
6504,7608,13280,-3848,2972,-5467,24000,-7000,180000,597529,
6152,7980,13416,-3871,3627,-6190,24000,-7000,180000,597542,
6312,7848,13252,-3838,3818,-6311,24000,-7000,180000,597544,
6200,7812,13500,-3856,3935,-6532,24000,-7000,180000,597547,
5696,7384,13416,-3726,4734,-7458,24000,-6000,179000,597559,
5472,7308,13240,-3879,4755,-7594,24000,-6000,179000,597562,
5316,7352,13204,-3733,4904,-7692,23000,-6000,179000,597564,
4256,7164,12892,-3837,5103,-8245,23000,-5000,179000,597576,
4284,7196,12960,-3856,5111,-8427,23000,-5000,178000,597579,
3864,7044,12772,-3881,5117,-8489,23000,-5000,178000,597581,
3120,7540,12816,-4035,5076,-9048,23000,-4000,178000,597593,
3176,7724,12908,-3913,5146,-9074,23000,-4000,178000,597596,
3164,7632,12756,-4077,5052,-9189,23000,-4000,177000,597598,
2652,7436,12800,-4109,5152,-9853,22000,-3000,177000,597611,
2328,7280,12668,-4247,5104,-9941,22000,-3000,177000,597613,
2124,7140,12680,-4177,5165,-10083,22000,-3000,177000,597615,
1128,6988,12284,-4398,5118,-10296,22000,-2000,176000,597628,
952,6924,12376,-4486,5088,-10386,22000,-2000,176000,597630,
864,6912,12040,-4501,5022,-10330,22000,-2000,176000,597632,
204,6784,11684,-4965,4614,-10572,21000,-1000,175000,597645,
-248,6708,11408,-4873,4628,-10558,21000,-1000,175000,597647,
-176,6740,11416,-5139,4500,-10597,21000,0,175000,597649,
-992,6936,10720,-5568,4369,-10537,21000,0,174000,597662,
-928,7056,10784,-5767,4364,-10413,21000,0,174000,597664,
-1056,7100,10616,-5788,4427,-10420,21000,0,173000,597666,
-1380,7404,10820,-6509,4630,-10172,20000,0,173000,597679,
-1652,7512,10852,-6625,4659,-10239,20000,1000,173000,597681,
-1660,7588,10812,-6735,4733,-10155,20000,1000,172000,597683,
-2572,7848,11696,-7431,5112,-9945,19000,2000,172000,597696,
-2756,7788,11752,-7386,5269,-9799,19000,2000,172000,597698,
-3024,7736,11616,-7612,5305,-9752,19000,2000,171000,597700,
-3828,7884,11872,-8021,5371,-9280,18000,3000,171000,597713,
-4196,7736,11912,-8222,5251,-9186,18000,3000,171000,597715,
-4260,7976,11968,-8178,5265,-9071,18000,3000,171000,597717,
-4468,7816,11416,-8845,4594,-8798,17000,4000,170000,597730,
-5252,7424,12128,-8988,4215,-8831,17000,4000,170000,597732,
-4984,7616,11884,-9047,4155,-8761,17000,4000,170000,597734,
-5760,7328,12776,-9497,3678,-8533,16000,5000,169000,597747,
-5676,7340,12952,-9427,3678,-8389,16000,5000,169000,597749,
-5720,7508,12960,-9629,3597,-8327,16000,5000,169000,597751,
-5904,7280,13504,-9742,3921,-7670,15000,6000,168000,597764,
-6072,7272,13408,-9918,3973,-7579,15000,6000,168000,597766,
-6172,7180,13532,-9810,4116,-7461,14000,6000,168000,597768,
-6884,7276,14044,-10109,4442,-6540,13000,7000,167000,597781,
-6932,7216,14148,-10049,4502,-6406,13000,7000,167000,597783,
-6800,7220,14008,-10158,4541,-6197,13000,7000,167000,597785,
-7696,6920,14440,-10226,4388,-5406,12000,7000,167000,597798,
-7880,6848,14404,-10248,4278,-5187,12000,8000,167000,597800,
-7880,6960,14684,-10322,4228,-5091,12000,8000,167000,597803,
-8068,7068,15064,-10339,3843,-4045,11000,8000,166000,597815,
-8104,7016,15256,-10505,3710,-3931,11000,8000,166000,597817,
-8356,6992,15952,-10449,3256,-2861,10000,9000,166000,597830,
-8396,7012,16012,-10532,3130,-2664,10000,9000,166000,597832,
-8476,7064,16176,-10430,3060,-2492,9000,9000,166000,597834,
-8384,6716,16920,-10380,2614,-1572,8000,9000,166000,597847,
-8332,6696,16868,-10451,2556,-1482,8000,9000,166000,597849,
-8488,6680,17024,-10347,2543,-1265,8000,9000,166000,597852,
-8424,6272,17376,-10247,2263,-348,7000,10000,166000,597864,
-8444,6148,17544,-10063,2337,-151,7000,10000,166000,597866,
-8124,6168,17504,-10129,2252,-10,7000,10000,166000,597869,
-7836,5956,17956,-9773,2325,842,6000,10000,166000,597881,
-7908,6000,18012,-9790,2314,1053,6000,10000,166000,597883,
-7900,6088,18124,-9602,2390,1209,6000,10000,166000,597886,
-7612,5696,18452,-9247,2573,2080,5000,11000,166000,597898,
-7784,5752,18688,-9152,2638,2218,5000,11000,166000,597900,
-7516,5636,18600,-9101,2682,2368,5000,11000,166000,597903,
-7700,5388,18884,-8689,2743,3211,4000,11000,167000,597915,
-7696,5276,18984,-8493,2773,3421,4000,11000,167000,597917,
-7812,5368,19052,-8527,2673,3516,4000,11000,167000,597920,
-7988,5384,19740,-8028,2408,4324,3000,11000,167000,597932,
-7892,5464,19860,-8090,2286,4444,3000,11000,167000,597934,
-7884,5344,19888,-7889,2299,4522,3000,11000,168000,597936,
-7952,5048,20336,-7430,1840,5075,2000,12000,168000,597949,
-8032,4992,20304,-7286,1765,5157,2000,12000,168000,597951,
-7920,5028,20448,-7226,1676,5282,2000,12000,168000,597954,
-7592,4592,20896,-6600,1421,5765,2000,12000,169000,597966,
-7564,4548,20812,-6396,1481,5864,2000,12000,169000,597968,
-7420,4456,20992,-6335,1420,5938,1000,12000,169000,597971,
-6832,4360,21160,-5472,1634,6693,1000,12000,170000,597983,
-6812,4432,21228,-5453,1627,6855,1000,12000,170000,597985,
-6580,4476,21372,-5162,1754,7060,1000,12000,170000,597988,
-5996,4592,21352,-4419,2021,7891,1000,12000,171000,598000,
-5868,4728,21352,-4233,2077,8038,1000,12000,171000,598002,
-5952,4668,21584,-4162,2096,8120,1000,12000,171000,598005,
-5568,4376,21476,-3355,1973,8743,1000,13000,172000,598017,
-5684,4280,21424,-3217,1938,8842,1000,13000,172000,598019,
-5384,4252,21552,-3066,1836,8913,1000,13000,172000,598022,
-5224,3964,21660,-2276,1057,9416,1000,13000,173000,598034,
-5016,3804,22020,-2214,873,9451,1000,13000,173000,598036,
-5060,3768,21888,-1963,824,9550,1000,13000,174000,598039,
-4044,3640,22044,-1173,34,9791,1000,13000,175000,598051,
-3972,3504,22084,-853,28,9828,1000,13000,175000,598053,
-3580,3580,22000,-856,-102,9851,1000,13000,175000,598056,
-2900,3464,22108,192,-14,10015,1000,13000,176000,598068,
-2716,3388,22020,274,9,10025,1000,13000,176000,598070,
-2556,3392,21880,527,57,10068,1000,13000,176000,598073,
-2084,3284,21708,1344,456,10071,2000,13000,177000,598085,
-2124,3132,21704,1463,470,10033,2000,13000,177000,598087,
-1984,3208,21508,1637,560,10021,2000,13000,178000,598090,
-1716,2848,21548,2462,603,9773,2000,12000,179000,598102,
-1708,2856,21464,2756,673,9737,3000,12000,179000,598104,
-1676,2868,21396,2752,587,9652,3000,12000,179000,598107,
-1020,2644,21160,3643,448,9206,3000,12000,180000,598119,
-884,2524,20976,3677,396,9160,3000,12000,180000,598122,
-896,2416,21032,3943,478,9113,3000,12000,180000,598124,
-516,2248,20636,4670,892,8971,4000,12000,181000,598136,
-476,2172,20484,4817,906,8969,4000,12000,181000,598139,
-336,2080,20284,4923,968,8943,4000,12000,181000,598141,
-388,2220,19792,5589,1086,8774,5000,12000,182000,598153,
-304,2072,19752,5770,1152,8713,5000,12000,182000,598155,
-440,2220,19744,5827,1070,8638,5000,12000,183000,598158,
-260,2200,19308,6508,1040,8262,6000,12000,183000,598170,
-248,2096,19224,6434,983,8171,6000,12000,183000,598173,
-160,2164,19004,6654,1023,8131,6000,12000,184000,598175,
-196,2120,18420,6986,1020,7693,7000,12000,184000,598187,
-232,2096,18248,7132,1049,7602,7000,12000,185000,598190,
-212,2304,18384,7138,1040,7519,8000,12000,185000,598192,
204,2560,17832,7473,996,7029,8000,12000,185000,598204,
268,2536,17856,7575,1015,6965,9000,12000,185000,598207,
316,2680,17788,7572,969,6822,9000,12000,186000,598209,
476,2668,17272,7870,1113,6366,10000,12000,186000,598221,
248,2724,17100,7785,1103,6240,10000,12000,186000,598224,
292,2832,16992,7961,1235,6191,10000,12000,186000,598226,
140,2908,16580,7947,1428,5952,11000,12000,187000,598238,
308,2992,16424,8079,1524,5935,11000,12000,187000,598241,
304,3064,16252,7968,1565,5860,11000,12000,187000,598243,
180,3744,15844,8024,1823,5472,12000,12000,188000,598255,
40,3904,15656,7994,1873,5399,12000,12000,188000,598257,
176,4032,15496,8001,1860,5256,12000,12000,188000,598260,
-240,4200,15284,8039,1934,4559,13000,12000,188000,598272,
-240,4344,15160,7916,1800,4396,13000,12000,189000,598275,
-392,4216,15184,8028,1813,4298,14000,12000,189000,598277,
-540,4172,14724,7722,1468,3650,14000,12000,189000,598289,
-464,4276,14744,7827,1488,3587,15000,12000,189000,598292,
-472,4176,14748,7675,1489,3498,15000,12000,189000,598294,
-572,4120,14352,7636,1745,3314,16000,12000,190000,598307,
-624,4156,14396,7602,1816,3325,16000,12000,190000,598309,
-736,4184,14220,7556,1787,3278,16000,12000,190000,598311,
-932,4316,13760,7385,1972,3203,17000,12000,190000,598324,
-912,4380,13644,7188,1944,3135,17000,12000,190000,598326,
-908,4384,13608,7270,2023,3183,17000,12000,190000,598328,
-1208,4428,13432,6890,2125,3057,18000,12000,191000,598341,
-1360,4508,13360,6955,2150,3007,18000,12000,191000,598343,
-1320,4492,13340,6766,2096,2988,18000,12000,191000,598345,
-1232,4468,13092,6469,1833,2773,19000,12000,191000,598358,
-1260,4572,13152,6492,1794,2804,19000,12000,191000,598360,
-1236,4424,13072,6387,1652,2739,19000,12000,191000,598362,
-1180,4492,12988,6247,1334,2638,19000,12000,191000,598375,
-1180,4536,13032,6050,1248,2600,20000,12000,191000,598377,
-1196,4564,13028,6136,1305,2599,20000,12000,191000,598379,
-1028,4808,12864,5728,1358,2492,20000,12000,192000,598392,
-756,4916,12796,5782,1423,2476,20000,12000,192000,598394,
-936,4848,12680,5647,1397,2495,21000,12000,192000,598396,
-836,4928,12676,5365,1350,2348,21000,12000,192000,598409,
-932,5168,12672,5366,1374,2355,21000,12000,192000,598411,
-788,5072,12712,5268,1296,2276,21000,12000,192000,598413,
-736,5040,12916,5141,1195,2046,22000,12000,192000,598426,
-892,4968,12764,4991,1081,1999,22000,12000,192000,598428,
-788,4868,12752,5081,1153,1995,22000,12000,192000,598431,
-588,5016,12664,4864,1121,1765,23000,12000,193000,598443,
-636,5120,12740,4960,1187,1682,23000,12000,193000,598445,
-424,5072,12712,4846,1170,1624,23000,12000,193000,598448,
-336,5068,12372,4837,1357,1270,23000,12000,193000,598460,
-488,5116,12500,4897,1412,1266,23000,12000,193000,598462,
-440,5356,12436,4845,1375,1170,23000,12000,193000,598465,
-496,5648,12384,4862,1383,868,24000,12000,193000,598477,
-400,5696,12464,4717,1250,799,24000,12000,193000,598479,
-320,5764,12400,4847,1323,730,24000,12000,193000,598482,
-96,5840,12540,4729,1348,338,25000,12000,193000,598494,
-328,5824,12676,4817,1445,235,25000,12000,193000,598496,
-320,5840,12588,4733,1451,189,25000,12000,193000,598499,
-424,6116,12432,4818,1892,-60,25000,12000,193000,598511,
-424,6256,12284,4839,2037,-64,25000,12000,193000,598513,
-480,6420,12272,4815,2112,-115,25000,12000,193000,598516,
-268,6888,12128,4844,2474,-343,26000,12000,193000,598528,
-260,7128,12108,4693,2461,-447,26000,12000,193000,598530,
-464,7152,12020,4788,2562,-474,26000,12000,193000,598533,
-796,7608,11944,4562,2704,-696,27000,12000,194000,598545,
-800,7812,11900,4646,2788,-786,27000,12000,194000,598547,
-868,7892,11964,4464,2751,-778,27000,12000,194000,598550,
-812,8624,11740,4310,2752,-1080,27000,13000,194000,598562,
-652,8840,11828,4316,2800,-1104,27000,13000,194000,598565,
-820,8792,11868,4217,2767,-1134,27000,13000,194000,598567,
-1092,9788,12000,4131,3034,-1202,28000,13000,194000,598579,
-1348,9880,11876,3945,3010,-1260,28000,13000,194000,598582,
-1396,10016,11908,4031,3104,-1230,28000,13000,194000,598584,
-1860,10680,11728,3577,2929,-1308,28000,13000,194000,598596,
-1840,10920,11640,3531,2821,-1356,29000,13000,194000,598599,
-1944,10900,11856,3431,2697,-1347,29000,13000,194000,598601,
-2508,11032,11740,2878,1504,-1585,29000,14000,194000,598613,
-2628,11092,11664,2925,1325,-1568,29000,14000,194000,598616,
-2604,11128,11612,2726,1087,-1666,29000,14000,194000,598618,
-2612,11240,11780,2417,301,-1701,29000,14000,194000,598630,
-2720,11292,11572,2200,200,-1709,29000,14000,194000,598633,
-2648,11128,11720,2290,164,-1690,29000,14000,194000,598635,
-2808,11308,12108,1886,-50,-1624,30000,14000,193000,598647,
-2840,11384,12108,1870,38,-1690,30000,14000,193000,598650,
-2952,11412,11856,1808,94,-1609,30000,14000,193000,598652,
-3296,11336,11652,1506,-30,-1471,30000,14000,193000,598665,
-3440,11284,11672,1359,-149,-1552,30000,14000,193000,598667,
-3332,11372,11756,1369,-105,-1492,30000,14000,193000,598669,
-3796,11208,11688,930,-331,-1448,30000,14000,193000,598682,
-3880,11040,11620,1010,-347,-1399,30000,14000,193000,598684,
-3916,11140,11700,813,-450,-1339,30000,14000,193000,598687,
-4152,10916,11632,511,-900,-1203,30000,14000,193000,598699,
-4096,10920,11544,497,-942,-1109,30000,14000,193000,598702,
-4196,10860,11544,391,-1102,-1090,30000,14000,193000,598704,
-4288,10440,11516,171,-1551,-811,30000,14000,193000,598716,
-4276,10528,11692,17,-1682,-728,30000,14000,193000,598719,
-4288,10416,11244,41,-1775,-765,30000,14000,193000,598721,
-4096,10384,11520,-250,-1911,-500,30000,14000,193000,598734,
-3884,10268,11812,-240,-1917,-510,30000,14000,193000,598736,
-4128,10080,11624,-345,-1889,-396,30000,14000,193000,598738,
-4100,9792,11760,-548,-1863,-141,30000,14000,192000,598751,
-4116,9864,11612,-470,-1795,-61,30000,14000,192000,598753,
-4104,9844,11636,-578,-1857,-45,30000,14000,192000,598756,
-3752,9680,11592,-611,-1804,215,30000,13000,192000,598768,
-3968,9696,11600,-773,-1840,226,30000,13000,192000,598770,
-3772,9736,11708,-635,-1763,296,30000,13000,192000,598773,
-3700,9588,11744,-874,-1771,453,30000,13000,192000,598785,
-3452,9492,11732,-816,-1770,457,30000,13000,192000,598787,
-3464,9520,11552,-884,-1762,489,30000,13000,192000,598790,
-3124,9568,11692,-963,-1601,628,30000,13000,192000,598802,
-3184,9560,11780,-897,-1497,658,30000,13000,192000,598804,
-3048,9512,11720,-973,-1522,639,30000,13000,192000,598807,
-3040,9456,11748,-809,-1368,727,30000,13000,192000,598819,
-2916,9532,11732,-952,-1433,709,30000,13000,192000,598821,
-3020,9420,11792,-805,-1386,749,30000,13000,192000,598824,
-2568,9464,11892,-920,-1456,728,30000,12000,192000,598836,
-2520,9432,11864,-810,-1427,681,30000,12000,192000,598838,
-2492,9460,12084,-909,-1452,679,30000,12000,192000,598841,
-2124,9528,12020,-794,-1386,552,30000,12000,192000,598853,
-2064,9524,12020,-756,-1316,557,30000,12000,192000,598855,
-2148,9448,12228,-719,-1266,485,30000,12000,192000,598858,
-1900,9512,12152,-500,-876,400,30000,12000,192000,598870,
-1824,9736,12232,-586,-903,342,30000,12000,192000,598872,
-1720,9676,12128,-431,-792,332,30000,12000,192000,598875,
-1812,9656,12056,-425,-620,127,30000,12000,192000,598887,
-1780,9672,12080,-282,-570,79,30000,12000,192000,598889,
-1760,9568,12104,-401,-541,37,30000,12000,192000,598892,
-1560,9620,12172,-274,-358,-198,30000,12000,192000,598904,
-1568,9628,12280,-188,-238,-191,30000,12000,192000,598907,
-1616,9608,12204,-238,-220,-224,30000,12000,192000,598909,
-1976,9632,11944,-9,112,-338,30000,12000,192000,598921,
-1836,9704,11980,-139,46,-395,30000,12000,192000,598924,
-1976,9688,12056,9,131,-403,30000,12000,192000,598926,
-1640,9864,12228,-45,19,-749,30000,12000,192000,598938,
-1704,9932,12440,112,60,-798,30000,12000,192000,598941,
-1732,9776,12268,17,26,-845,30000,12000,192000,598943,
-1816,9668,12164,135,297,-1001,30000,12000,192000,598955,
-1932,9608,12284,179,377,-957,30000,12000,192000,598958,
-1712,9676,12180,167,455,-1042,30000,12000,192000,598960,
-1680,9836,12164,348,916,-1009,30000,12000,192000,598972,
-1864,9840,12056,210,899,-1064,30000,12000,192000,598975,
-1984,9832,12200,361,1052,-1067,30000,12000,192000,598977,
-2320,9748,12144,230,1130,-1110,30000,12000,192000,598989,
-2340,9836,11932,387,1179,-1090,31000,12000,192000,598992,
-2280,9768,11952,223,1144,-1099,31000,12000,192000,598994,
-2552,9824,12108,281,1012,-1131,31000,12000,192000,599006,
-2536,9752,12100,185,985,-1104,31000,12000,192000,599009,
