Ax,Ay,Az,Gx,Gy,Gz,Roll,Pitch,Yaw,Timestamp,Target
2464,2352,20192,2792,-2299,-778,3000,-1000,0,453960,
2876,2080,20096,3474,-1876,-783,3000,-1000,0,453973,
2832,2116,19944,3619,-1807,-786,3000,-1000,0,453975,
2888,2212,19752,3732,-1638,-749,3000,-1000,0,453977,
3004,2272,19272,4488,-1243,-599,4000,-1000,0,453990,
3000,2184,19144,4752,-1136,-579,4000,-2000,0,453992,
2988,2224,18908,4721,-1111,-561,4000,-2000,0,453994,
2956,2236,18940,4942,-955,-511,4000,-2000,0,453996,
3040,2428,18596,5429,-747,-421,4000,-2000,0,454009,
2844,2436,18580,5498,-715,-447,5000,-2000,0,454011,
2908,2492,18588,5584,-663,-359,5000,-2000,0,454013,
2604,2636,18248,5918,-487,-215,5000,-2000,0,454026,
2656,2692,18360,6077,-460,-205,5000,-2000,0,454028,
2664,2604,18356,5994,-501,-244,5000,-2000,0,454030,
2436,2664,18276,6174,-434,-228,6000,-2000,0,454032,
2516,2824,18152,6245,-472,-362,6000,-2000,0,454045,
2516,2924,18292,6239,-507,-467,6000,-2000,0,454047,
2564,2968,18116,6277,-48596,-808,168,-32,32000,7000,
2208,3296,17612,6437,-582,-906,7000,-2000,359000,454068,
1996,3672,17244,6304,-756,-1119,8000,-2000,359000,454081,
2024,3680,17336,6312,-830,-1199,8000,-2000,359000,454083,
1832,3660,17288,6289,-896,-1197,8000,-2000,359000,454085,
1672,4096,17408,6175,-1213,-1443,9000,-2000,359000,454098,
1564,4192,17380,6307,-1178,-1493,9000,-2000,359000,454100,
1640,4324,17492,6164,-1306,-1507,9000,-2000,359000,454102,
1516,4720,17356,6135,-1457,-1713,10000,-2000,359000,454115,
1848,4796,17288,6156,-1431,-1689,10000,-2000,359000,454117,
1556,4816,17244,6114,-1515,-1806,10000,-2000,359000,454119,
1424,4800,16976,6165,-1858,-2042,11000,-3000,359000,454132,
1364,4724,17044,6022,-2036,-2128,11000,-3000,359000,454134,
1364,4684,17044,6195,-2080,-2148,11000,-3000,359000,454136,
1256,4796,16768,6162,-2691,-2514,11000,-3000,358000,454149,
1308,4908,16836,6188,-2822,-2645,12000,-3000,358000,454151,
1340,5052,16624,6154,-2856,-2615,12000,-3000,358000,454153,
1468,5416,16508,6210,-3154,-2835,12000,-3000,358000,454166,
1144,5576,16604,6362,-3048,-2835,12000,-3000,358000,454168,
1440,5476,16388,6219,-3105,-2896,13000,-3000,358000,454170,
1072,5496,16292,6365,-3049,-3033,13000,-4000,357000,454183,
1372,5528,16024,6329,-3002,-3011,13000,-4000,357000,454185,
1244,5452,16112,6359,-2996,-3073,13000,-4000,357000,454187,
980,5348,16008,6495,-2659,-3053,14000,-4000,357000,454200,
976,5448,15880,6403,-2676,-3048,14000,-4000,357000,454202,
1048,5484,15964,6572,-2565,-2991,14000,-4000,357000,454205,
968,5696,15972,6653,-2520,-2690,15000,-4000,356000,454217,
968,5688,15912,6749,-2506,-2656,15000,-4000,356000,454219,
864,5748,15736,6738,-2491,-2553,15000,-4000,356000,454222,
524,5372,15220,6889,-2450,-2316,16000,-4000,356000,454234,
468,5276,15232,7076,-2401,-2275,16000,-4000,356000,454236,
504,5296,15152,6953,-2451,-2281,16000,-4000,356000,454239,
716,5500,14960,7443,-2419,-2125,17000,-4000,356000,454251,
708,5472,14876,7402,-2471,-2056,17000,-4000,356000,454253,
660,5612,14952,7578,-2457,-2027,17000,-4000,356000,454256,
684,6224,14524,7744,-2162,-1601,18000,-5000,355000,454268,
740,6196,14332,7636,-2155,-1602,18000,-5000,355000,454270,
828,6200,14176,7816,-2043,-1550,18000,-5000,355000,454273,
1192,6324,13532,7875,-1378,-1405,19000,-5000,355000,454285,
1344,6420,13700,7967,-1205,-1440,19000,-5000,355000,454287,
1284,6536,13612,7923,-1068,-1420,19000,-5000,355000,454290,
1212,7096,12868,8124,-144,-1416,20000,-5000,355000,454302,
1156,7124,12716,8203,98,-1346,20000,-5000,355000,454304,
1216,7284,12704,8121,163,-1342,21000,-5000,355000,454307,
1240,7720,11848,7987,1329,-1339,21000,-4000,355000,454319,
1244,7636,11908,7767,1487,-1379,22000,-4000,355000,454321,
1088,7752,11796,7868,1735,-1391,22000,-4000,355000,454323,
564,8116,11812,7454,2500,-1168,23000,-4000,355000,454336,
532,8128,11704,7368,2548,-1134,23000,-4000,355000,454338,
476,8252,11808,7308,2693,-1077,23000,-4000,355000,454341,
656,8788,11784,6703,3060,-1018,24000,-4000,355000,454353,
460,8760,11908,6759,3127,-999,24000,-4000,355000,454355,
536,8784,12008,6572,3064,-1086,24000,-4000,355000,454358,
-172,9152,12076,6381,2672,-1218,24000,-3000,355000,454370,
-340,9208,11992,6196,2601,-1151,25000,-3000,355000,454372,
-96,9408,11980,6148,2538,-1205,25000,-3000,355000,454375,
-12,9072,12064,5812,2575,-1307,25000,-3000,355000,454387,
220,9408,12216,5600,3081,-1224,25000,-3000,355000,454389,
160,8756,10892,5388,2519,-1744,26000,-3000,355000,454392,
-284,8864,11052,5245,1365,-1510,26000,-3000,355000,454404,
-500,8748,11184,5340,1255,-1642,26000,-3000,355000,454406,
-376,8692,11528,5299,949,-1635,26000,-2000,355000,454408,
-152,9216,11240,5188,558,-1982,27000,-2000,354000,454421,
64,9392,10864,5268,528,-1963,27000,-2000,354000,454423,
-120,9492,10960,5151,456,-2025,27000,-2000,354000,454425,
192,10000,10352,4858,620,-2084,28000,-2000,354000,454438,
176,10000,10436,4691,607,-2098,28000,-2000,354000,454440,
232,9972,10388,4743,721,-2127,28000,-2000,354000,454442,
536,9272,10132,4307,1251,-2371,28000,-2000,354000,454455,
440,9148,10120,4241,1359,-2497,29000,-2000,354000,454457,
480,9132,10248,4236,1493,-2483,29000,-2000,354000,454460,
252,9308,10160,3886,2102,-2482,29000,-1000,354000,454472,
136,9308,10152,3909,2391,-2331,29000,-1000,354000,454474,
208,9440,10204,3774,2431,-2253,29000,-1000,354000,454476,
-128,9640,9876,3526,2982,-1914,30000,-1000,354000,454489,
-212,9608,9892,3476,3062,-1779,30000,-1000,354000,454491,
-220,9572,9748,3336,3028,-1796,30000,-1000,354000,454493,
-796,9052,9704,3280,3010,-1656,30000,-1000,354000,454506,
-772,8936,9648,3049,2952,-1639,30000,0,354000,454508,
-860,9084,9548,3145,2985,-1553,30000,0,354000,454510,
-724,8904,9408,2966,2407,-1157,31000,0,354000,454523,
-796,8988,9616,2917,2146,-1116,31000,0,354000,454525,
-860,8968,9452,2956,1995,-988,31000,0,354000,454527,
-944,8948,9352,2860,1790,-965,31000,0,354000,454530,
-624,9276,9004,2720,1023,-418,31000,0,354000,454542,
-436,9372,8916,2512,819,-376,31000,0,354000,454545,
-560,9372,9012,2574,739,-240,31000,0,354000,454547,
-340,9440,8984,2119,-80,96,32000,0,354000,454559,
-436,9356,9076,2111,-238,129,32000,0,354000,454562,
-432,9244,8888,1974,-337,229,32000,0,354000,454564,
-296,9244,9092,1959,-421,219,32000,0,354000,454566,
-180,9180,9488,1779,-1059,550,32000,0,354000,454578,
-136,9200,9632,1646,-1250,606,32000,0,354000,454581,
-152,9296,9616,1761,-1316,690,32000,0,354000,454583,
348,9688,9680,1477,-1600,1146,32000,0,354000,454595,
260,9704,9772,1571,-1591,1249,32000,0,354000,454598,
744,9980,9688,1424,-1610,1286,32000,0,354000,454600,
692,9984,9840,1516,-1592,1388,32000,0,354000,454602,
936,10340,9972,1328,-1575,1716,33000,-1000,354000,454615,
976,10448,10088,1181,-1597,1730,33000,-1000,354000,454617,
1204,10576,10052,1241,-1489,1769,33000,-1000,354000,454619,
1680,10800,10164,1039,-1160,1758,33000,-1000,354000,454632,
1720,10884,10056,1119,-1018,1752,33000,-1000,354000,454634,
1780,10816,10220,981,-970,1762,33000,-1000,354000,454636,
1660,10788,9884,841,-551,1632,33000,-1000,354000,454649,
1564,10836,9964,935,-447,1639,33000,-1000,354000,454651,
1652,10804,10168,774,-427,1587,33000,-1000,354000,454653,
1644,11256,10364,654,-399,1447,33000,-1000,354000,454666,
1776,11372,10580,579,-421,1468,33000,-1000,354000,454668,
1740,11380,10464,577,-411,1429,33000,-1000,354000,454670,
1708,11780,10852,385,-233,1352,34000,-1000,354000,454683,
1444,11672,10908,226,-254,1292,34000,-1000,354000,454685,
1484,11828,10896,337,-174,1298,34000,-1000,355000,454687,
1096,11648,10796,5,-274,1079,34000,-2000,355000,454700,
1252,11528,11108,31,-310,1002,34000,-2000,355000,454702,
1192,11484,11028,-69,-399,951,34000,-2000,355000,454704,
1208,11508,11152,-249,-910,746,34000,-2000,355000,454716,
1288,11388,11192,-199,-927,769,34000,-2000,355000,454719,
1184,11252,11148,-313,-1078,728,34000,-2000,355000,454721,
1108,11140,11316,-350,-1220,721,34000,-2000,355000,454733,
1056,11136,11288,-463,-1221,701,34000,-2000,355000,454736,
1340,11124,11348,-377,-1167,699,34000,-2000,355000,454738,
1492,10680,11316,-347,-912,564,34000,-2000,355000,454750,
1548,10616,11264,-399,-930,511,34000,-2000,355000,454753,
1504,10592,11296,-324,-741,504,34000,-2000,355000,454755,
1760,10720,11156,-290,222,323,34000,-2000,355000,454767,
1880,10828,11372,-127,422,332,34000,-2000,355000,454770,
2004,10936,11272,-211,552,322,34000,-2000,355000,454772,
2132,11192,11376,-207,1447,190,34000,-2000,355000,454785,
1836,11088,11252,-175,1633,242,34000,-2000,355000,454787,
1928,11248,11488,-245,1738,184,34000,-2000,355000,454789,
1464,10684,11580,-254,2719,-6,34000,-2000,355000,454801,
1708,10648,11588,-408,2809,-50,34000,-2000,355000,454804,
1528,10660,11432,-287,2999,-77,34000,-2000,355000,454806,
920,10124,11420,-374,3417,65,34000,-2000,355000,454818,
848,10104,11512,-334,3435,42,34000,-1000,355000,454821,
612,10128,11588,-368,3418,76,34000,-1000,355000,454823,
60,10232,11296,-519,2909,80,34000,-1000,355000,454835,
72,10192,11516,-408,2842,104,34000,-1000,355000,454838,
52,10264,11516,-542,2610,151,34000,-1000,355000,454840,
160,10708,11488,-544,1488,408,34000,-1000,356000,454852,
80,10672,11448,-721,1263,443,34000,-1000,356000,454855,
144,10544,11780,-641,1083,456,34000,-1000,356000,454857,
292,10304,11604,-738,19,537,34000,-1000,356000,454869,
352,10308,11652,-787,-118,503,34000,-1000,356000,454872,
544,10184,11748,-718,-203,524,34000,-1000,356000,454874,
948,10068,11244,-749,-427,465,34000,-1000,356000,454886,
1232,10004,11260,-622,-351,439,34000,-1000,356000,454889,
1216,9988,11296,-724,-392,422,34000,-1000,356000,454891,
1520,10172,11508,-490,-155,365,34000,-1000,356000,454903,
1568,10308,11512,-480,-19,416,34000,-1000,356000,454906,
1764,10376,11604,-479,44,415,34000,-1000,356000,454908,
2348,10888,11836,-262,677,614,34000,-1000,356000,454920,
2408,10968,11812,-378,738,625,34000,-1000,356000,454923,
2472,11016,11788,-259,839,668,34000,-1000,356000,454925,
2780,11136,11876,-346,2355,519,34000,-1000,356000,454937,
2672,11116,11840,-379,2376,499,34000,-1000,356000,454940,
2780,11056,11848,-251,2436,516,34000,-1000,356000,454942,
2712,10888,11544,-260,3294,286,34000,-1000,356000,454954,
2664,10792,11680,-168,3411,229,34000,-1000,356000,454957,
2472,10804,11668,-235,3422,190,34000,-1000,356000,454959,
2500,10840,11648,-322,3354,-96,34000,-1000,356000,454971,
2536,11016,11740,-250,3461,-112,34000,-1000,356000,454974,
2696,10980,11644,-387,3465,-202,34000,0,357000,454976,
3108,11140,11660,-368,3833,-422,34000,0,357000,454988,
3100,11292,11720,-435,3875,-515,34000,0,357000,454991,
2824,11164,11448,-295,4003,-632,34000,0,357000,454993,
2252,11052,11424,-566,4151,-1014,34000,0,357000,455005,
2080,11040,11412,-629,4111,-1080,34000,0,357000,455008,
2064,10952,11444,-654,4088,-1083,34000,0,357000,455010,
2240,11100,11672,-939,3595,-1446,34000,0,357000,455022,
2340,11064,11764,-864,3560,-1510,34000,0,357000,455025,
2284,11044,11768,-1026,3440,-1637,34000,0,357000,455027,
2276,10892,11992,-1024,3409,-2119,34000,0,357000,455039,
2356,10952,11980,-1142,3353,-2165,34000,0,357000,455041,
2460,10988,11908,-1021,3399,-2235,34000,0,357000,455044,
2384,10948,11976,-1192,3511,-2581,34000,1000,357000,455056,
2276,10904,11920,-1222,3474,-2689,34000,1000,357000,455058,
2020,10892,11920,-1238,3503,-2710,34000,1000,357000,455061,
1548,10728,11772,-1317,3464,-2990,34000,1000,357000,455073,
1372,10784,11884,-1179,3479,-3064,34000,1000,357000,455075,
1296,10664,11804,-1346,3373,-3119,34000,1000,357000,455078,
1120,10532,11784,-1444,2954,-3542,34000,2000,357000,455090,
1148,10392,11880,-1433,2895,-3483,34000,2000,357000,455092,
960,10548,11816,-1497,2778,-3529,34000,2000,357000,455095,
744,10232,11716,-1478,2670,-3772,33000,2000,357000,455107,
784,10232,11836,-1627,2594,-3822,33000,2000,357000,455109,
700,10148,11864,-1511,2636,-3897,33000,2000,357000,455112,
400,10048,11704,-1527,2728,-4028,33000,3000,356000,455124,
188,9940,11772,-1585,2685,-4048,33000,3000,356000,455126,
128,10012,11968,-1535,2699,-3960,33000,3000,356000,455129,
-424,9832,12292,-1567,2484,-3619,33000,3000,356000,455141,
-552,9796,12296,-1411,2495,-3583,33000,3000,356000,455143,
-624,9796,12428,-1528,2374,-3479,33000,3000,356000,455146,
-936,9844,12644,-1403,2010,-3186,33000,4000,356000,455158,
-972,9912,12756,-1343,1981,-3068,33000,4000,356000,455160,
-1048,9844,12672,-1332,1899,-3078,33000,4000,356000,455163,
-1524,9616,12384,-1129,1728,-2804,33000,4000,356000,455175,
-1516,9656,12544,-1221,1623,-2749,33000,4000,356000,455177,
-1532,9736,12348,-1076,1688,-2679,33000,4000,356000,455180,
-1704,10120,12088,-982,1432,-2448,33000,4000,356000,455192,
-1904,10112,12012,-945,1383,-2426,33000,4000,356000,455194,
-1868,10172,12012,-985,1298,-2386,33000,5000,356000,455197,
-2180,10592,11956,-1038,686,-2288,33000,5000,355000,455209,
-2060,10680,12124,-951,592,-2232,33000,5000,355000,455211,
-2164,10668,12328,-1114,404,-2272,33000,5000,355000,455214,
-2132,10612,12364,-1102,-112,-2283,33000,5000,355000,455226,
-2072,10580,12652,-1142,-188,-2286,33000,5000,355000,455228,
-1984,10572,12584,-1130,-177,-2316,33000,5000,355000,455231,
-2004,10660,12316,-924,-601,-2219,32000,5000,355000,455243,
-2032,10504,12540,-1110,-717,-2212,32000,5000,355000,455246,
-1868,10508,12740,-938,-434,-2149,32000,5000,355000,455248,
-2104,10632,12400,-1058,-563,-2011,32000,5000,355000,455260,
-2112,10708,12564,-991,-583,-1994,32000,5000,355000,455263,
-2144,10768,12564,-1061,-608,-1958,32000,5000,355000,455265,
-2344,10540,12628,-1113,-775,-1880,32000,5000,354000,455277,
-2508,10592,12708,-1036,-719,-1790,32000,5000,354000,455279,
-2252,10492,12712,-1107,-763,-1816,32000,5000,354000,455282,
-2244,10284,12808,-955,-711,-1622,32000,5000,354000,455294,
-2260,10212,12728,-1000,-729,-1546,32000,5000,354000,455296,
-2276,10204,12524,-858,-631,-1379,32000,5000,354000,455309,
-2312,10372,12624,-722,-529,-1331,32000,5000,354000,455311,
-2108,10364,12560,-843,-578,-1297,32000,5000,354000,455314,
-1852,10612,12536,-710,-321,-1106,32000,5000,354000,455326,
-1868,10612,12428,-730,-249,-1059,32000,5000,354000,455328,
-1964,10548,12576,-676,-215,-1038,32000,5000,354000,455331,
-2124,10300,12544,-519,58,-781,32000,5000,354000,455343,
-2148,10368,12820,-607,-3,-778,32000,5000,354000,455345,
-2068,10360,12740,-474,24,-699,32000,5000,354000,455348,
-2084,10408,12684,-482,-89,-635,32000,5000,354000,455360,
-1908,10376,12788,-396,-96,-661,32000,5000,354000,455362,
-2152,10332,12676,-434,-160,-646,32000,5000,354000,455365,
-1832,10436,12832,-400,-421,-669,32000,5000,354000,455377,
-1428,10416,12612,-274,-385,-643,32000,5000,354000,455380,
-1392,10536,12532,-378,-462,-675,32000,5000,354000,455382,
-1008,10688,12548,-173,-294,-657,32000,5000,354000,455394,
-1172,10648,12372,-238,-303,-651,32000,5000,354000,455397,
-1096,10676,12488,-168,-289,-637,32000,5000,354000,455399,
-1160,10632,12592,-144,-389,-655,32000,5000,353000,455411,
-1092,10652,12672,-209,-485,-703,32000,5000,353000,455414,
-956,10576,12680,-143,-489,-713,32000,5000,353000,455416,
-1004,10556,12552,-198,-891,-877,32000,5000,353000,455428,
-928,10484,12592,-106,-925,-902,32000,5000,353000,455431,
-960,10516,12532,-216,-1075,-920,32000,5000,353000,455433,
-608,10448,12312,-130,-1535,-1246,32000,5000,353000,455445,
-272,10520,12324,-69,-1509,-1240,32000,5000,353000,455448,
-476,10468,12280,-142,-1611,-1338,32000,5000,353000,455450,
-292,10776,12232,-79,-1603,-1536,32000,5000,353000,455462,
-424,10732,12188,-246,-1623,-1551,32000,5000,353000,455465,
-264,10708,12336,-97,-1647,-1641,32000,5000,353000,455467,
-508,10628,12272,-287,-1784,-1870,32000,5000,353000,455479,
-436,10668,12264,-369,-1842,-1948,32000,5000,352000,455482,
-552,10548,12176,-339,-1775,-1923,32000,5000,352000,455484,
-1512,10524,11792,-924,390,-133,32000,7000,348000,456313,
-1364,10532,11708,-805,482,-89,32000,7000,348000,456315,
-1440,10588,11876,-940,510,-154,32000,7000,348000,456317,
-1400,10584,12024,-882,832,-256,32000,8000,348000,456329,
-1644,10560,11968,-946,819,-259,32000,8000,348000,456332,
-1716,10512,11968,-869,841,-286,32000,8000,348000,456334,
-1804,10332,12212,-932,673,-403,31000,8000,348000,456346,
-1748,10408,12076,-1072,548,-518,31000,8000,348000,456349,
-1660,10304,11996,-988,575,-477,31000,8000,348000,456351,
-1692,10320,12288,-1064,491,-603,31000,8000,348000,456364,
-1868,10220,11960,-968,551,-592,31000,8000,348000,456366,
-1904,10260,12100,-1051,532,-587,31000,8000,348000,456368,
-1852,10460,12004,-1102,691,-572,31000,8000,348000,456380,
-1812,10524,11996,-978,787,-549,31000,8000,348000,456383,
-1764,10464,11996,-1121,743,-570,31000,8000,348000,456385,
-1952,10404,11896,-1153,851,-667,31000,8000,348000,456397,
-1932,10384,11916,-1166,843,-625,31000,8000,348000,456400,
-2084,10292,11972,-1166,822,-699,31000,8000,348000,456402,
-1964,10296,12172,-1094,932,-687,31000,8000,348000,456415,
-1824,10396,12060,-1225,916,-704,31000,8000,348000,456417,
-1792,10272,12236,-1099,1075,-670,31000,8000,348000,456419,
-1992,10436,12472,-1099,1482,-649,31000,8000,348000,456432,
-2288,10524,12608,-1113,1552,-652,31000,8000,348000,456434,
-2216,10536,12488,-1049,1660,-594,31000,8000,348000,456436,
-2788,10540,12652,-1121,1654,-630,31000,8000,348000,456449,
-2740,10608,12756,-1022,1695,-638,31000,9000,348000,456451,
-2972,10508,12588,-1210,1583,-697,31000,9000,348000,456454,
-2804,10472,12720,-1221,1228,-1006,31000,9000,348000,456466,
-2648,10560,12828,-1235,1239,-1023,31000,9000,348000,456468,
-2788,10612,12816,-1259,1211,-1097,31000,9000,348000,456471,
-2900,10240,12852,-1030,1473,-1019,31000,9000,348000,456483,
-2972,10300,13004,-1137,1479,-954,31000,9000,348000,456486,
-3008,10256,13000,-981,1605,-920,31000,9000,348000,456488,
-3020,10472,13584,-920,1747,-756,31000,9000,348000,456500,
-3004,10516,13640,-846,1802,-774,31000,9000,348000,456503,
-3000,10504,13592,-884,1891,-737,31000,9000,348000,456505,
-3196,10692,13932,-685,2500,-675,31000,9000,348000,456517,
-3316,10600,13972,-497,2732,-607,31000,10000,348000,456520,
-3296,10620,13908,-592,2809,-604,31000,10000,348000,456522,
-3612,10484,13768,-242,3628,-524,31000,10000,348000,456534,
-3748,10436,13728,-286,3744,-499,31000,10000,348000,456537,
-3888,10440,13720,-200,3926,-521,31000,10000,349000,456539,
-4476,10612,13788,48,4798,-676,31000,10000,349000,456551,
-5368,10592,13524,-195,4881,-686,31000,11000,349000,456554,
-5384,10428,14640,110,4734,-639,31000,11000,349000,456556,
-6136,10676,14032,128,3381,-545,31000,11000,349000,456568,
-6200,10728,14016,124,3292,-555,31000,11000,349000,456571,
-6232,10744,14112,102,3183,-481,31000,11000,349000,456573,
-6856,10592,14080,229,2535,-127,31000,11000,349000,456585,
-6984,10608,14232,390,2563,-35,31000,11000,349000,456588,
-7044,10540,14164,263,2466,101,31000,12000,349000,456590,
-7332,10220,13944,547,2278,803,31000,12000,349000,456603,
-7312,10084,13888,615,2291,971,31000,12000,349000,456605,
-7304,9988,13876,695,2271,1075,31000,12000,349000,456607,
-7520,9708,13160,1005,2512,1978,32000,12000,350000,456619,
-7652,9648,13108,933,2468,2105,32000,12000,350000,456622,
-7392,9652,13004,1073,2645,2313,32000,12000,350000,456624,
-7536,9540,12476,1304,3574,3388,32000,12000,350000,456637,
-7448,9656,12516,1440,3793,3561,32000,12000,350000,456639,
-7732,9588,12468,1439,3947,3766,32000,12000,350000,456641,
-7484,9460,11932,1698,4847,4865,32000,13000,351000,456654,
-7724,9312,11872,1848,5069,5142,32000,13000,351000,456656,
-7968,9468,11932,1766,5112,5397,32000,13000,351000,456658,
-7552,9316,11596,2077,5584,6842,33000,13000,352000,456671,
-7632,9360,11528,2054,5690,7054,33000,13000,352000,456673,
-7400,9416,11416,2196,5871,7288,33000,13000,353000,456675,
-7920,9488,10676,2190,6111,8365,33000,13000,354000,456687,
-7836,9448,10720,2105,6074,8610,34000,13000,354000,456690,
-7700,9508,10616,2152,6197,8788,34000,13000,354000,456692,
-7460,9660,10140,1890,6069,9749,34000,13000,355000,456704,
-7260,9728,10176,2005,6041,9935,34000,13000,355000,456707,
-7300,9600,10160,1815,5931,10033,34000,13000,356000,456709,
-6924,9496,9884,1668,5619,10835,35000,13000,357000,456721,
-6756,9584,9712,1613,5541,10992,35000,13000,357000,456724,
-6840,9492,9828,1620,5466,11119,35000,13000,357000,456726,
-6152,9228,9292,1556,5278,11966,36000,13000,358000,456738,
-6024,9096,9292,1365,5200,12064,36000,13000,359000,456741,
-6048,9288,9348,1484,5272,12337,36000,13000,359000,456743,
-5312,9172,9012,1238,5176,13079,36000,12000,0,456755,
-5296,9104,8956,1281,5224,13254,36000,12000,1000,456758,
-5216,9240,8972,1178,5221,13342,36000,12000,1000,456760,
-3988,8980,8780,686,5859,13951,37000,12000,2000,456772,
-3700,8812,8848,714,6072,14085,37000,12000,2000,456775,
-3792,8600,8908,583,6215,14205,37000,12000,3000,456777,
-3032,7900,8932,630,7591,15015,37000,12000,4000,456789,
-2872,7836,8916,483,7888,15102,37000,12000,5000,456792,
-2760,7832,8736,636,8292,15274,37000,11000,5000,456794,
-1680,7904,8400,469,10401,15912,38000,11000,7000,456806,
-1604,7848,8552,361,10758,16013,38000,11000,7000,456809,
-1352,7896,8168,372,11163,16119,38000,11000,7000,456811,
-1272,7504,7220,-188,13075,16639,39000,11000,10000,456823,
-1392,7400,6964,-187,13519,16737,39000,11000,10000,456826,
-1304,7300,7168,-412,13707,16795,39000,11000,10000,456828,
-1064,7056,7504,-847,14572,17347,39000,11000,13000,456840,
-1028,7072,7616,-871,14603,17478,39000,11000,13000,456843,
-1204,6936,7668,-992,14629,17635,39000,11000,13000,456845,
-1368,7268,7932,-1569,14368,18486,40000,11000,16000,456857,
-1092,7432,7992,-1784,14120,18485,40000,11000,16000,456860,
-1076,7488,8104,-1723,14046,18510,40000,11000,16000,456862,
-908,7556,7712,-2998,12782,18785,40000,11000,19000,456874,
-860,7548,7648,-3097,12555,18934,40000,11000,19000,456877,
-616,7656,7716,-3217,12350,18947,40000,11000,19000,456879,
-176,7588,7552,-4249,10794,18504,40000,10000,22000,456891,
-112,7548,7444,-4371,10458,18433,40000,10000,22000,456894,
12,7656,7520,-4677,10080,18348,40000,10000,22000,456896,
1168,7312,7544,-5708,7871,17685,40000,9000,24000,456908,
1392,7372,7468,-5972,7291,17556,40000,9000,24000,456911,
1508,7056,7764,-6108,6707,17483,40000,9000,25000,456913,
2876,6556,8324,-7372,5501,17203,39000,8000,26000,456925,
2520,6424,8932,-7373,4312,17133,39000,8000,27000,456928,
2880,6228,8292,-7296,3482,17080,39000,8000,27000,456930,
5236,6664,7824,-8496,2317,15903,38000,7000,28000,456942,
6140,5984,7696,-8498,2110,15625,38000,7000,28000,456945,
4944,6700,7908,-8872,1078,15257,38000,7000,29000,456947,
8096,7108,8972,-9465,679,13853,37000,6000,30000,456959,
8592,7272,9004,-9531,472,13644,37000,5000,30000,456962,
8828,7436,9108,-9703,384,13450,37000,5000,30000,456964,
9344,8348,9992,-10295,-158,12334,36000,4000,31000,456976,
9216,8524,10100,-10545,-404,12117,36000,4000,31000,456979,
9196,8492,10136,-10612,-516,11948,36000,4000,31000,456981,
7624,8284,11048,-11599,-1845,10663,35000,3000,32000,456993,
7480,8296,11184,-11817,-2314,10415,35000,3000,32000,456996,
7088,8152,11284,-11905,-2709,10235,34000,3000,32000,456998,
6848,8156,12460,-13219,-6137,9078,33000,2000,33000,457011,
7100,7900,12348,-13309,-6761,8834,33000,1000,33000,457013,
7272,7892,12760,-13553,-7469,8589,33000,1000,33000,457015,
7948,7512,13436,-14296,-10718,7212,31000,0,33000,457027,
8068,7336,13548,-14366,-11144,7077,31000,0,33000,457030,
8164,7328,13680,-14539,-11560,6927,31000,0,33000,457032,
9772,6760,14352,-15071,-13474,6007,29000,-1000,33000,457044,
9944,6648,14236,-15277,-14110,5766,29000,-2000,33000,457047,
10172,6536,14380,-15199,-14343,5564,29000,-2000,33000,457049,
11564,6640,15284,-15567,-16173,4294,27000,-4000,32000,457061,
11688,6688,15532,-15534,-16405,4117,27000,-4000,32000,457064,
11940,6648,15572,-15649,-16551,3888,27000,-4000,32000,457066,
12852,6380,16768,-15676,-16977,2698,25000,-6000,32000,457078,
13168,6372,16872,-15541,-16937,2514,25000,-6000,32000,457081,
13236,6256,16884,-15597,-17044,2266,25000,-7000,31000,457083,
13860,6040,17596,-15379,-16752,833,23000,-8000,31000,457095,
14064,5976,17768,-15390,-16657,545,23000,-9000,31000,457098,
14324,5948,17736,-15213,-16594,257,23000,-9000,31000,457100,
14824,5900,17744,-14884,-16301,-1448,21000,-11000,30000,457113,
14904,5792,17736,-14863,-16308,-1770,21000,-11000,30000,457115,
14292,5984,18372,-14272,-16069,-3446,20000,-12000,29000,457127,
14376,6100,18408,-14314,-16202,-3789,20000,-13000,29000,457130,
14216,6156,18400,-14126,-16209,-4094,20000,-13000,29000,457132,
13896,6308,19368,-13781,-17051,-5705,19000,-14000,27000,457144,
14072,6336,19616,-13653,-17297,-6026,18000,-15000,27000,457147,
14112,6268,19624,-13547,-17396,-6287,18000,-15000,27000,457149,
14104,5848,20536,-12892,-18427,-8211,17000,-16000,26000,457161,
14156,5828,20924,-12613,-18454,-8528,17000,-17000,25000,457164,
14668,5084,21312,-11596,-18306,-10482,17000,-18000,24000,457176,
14792,4964,21308,-11304,-18181,-10865,16000,-18000,24000,457178,
14892,4884,21348,-11084,-17903,-11189,16000,-19000,23000,457181,
16200,4216,20860,-9607,-16362,-13299,16000,-20000,22000,457193,
16292,4292,20620,-9164,-15870,-13641,16000,-20000,21000,457196,
16524,4308,20708,-9016,-15467,-13988,16000,-20000,21000,457198,
16848,4800,20288,-7320,-12822,-15884,16000,-21000,19000,457210,
16924,4976,20100,-7047,-12076,-16106,16000,-21000,19000,457213,
16404,4944,19920,-5765,-9035,-17660,16000,-22000,17000,457225,
16244,4896,19968,-5346,-8432,-17933,16000,-22000,16000,457227,
16076,4800,19848,-5252,-7932,-18205,16000,-22000,16000,457230,
15336,4044,19476,-3763,-4570,-20185,17000,-22000,14000,457242,
15264,4052,19184,-3539,-3876,-20495,17000,-22000,13000,457244,
15300,3912,19260,-3218,-3158,-21012,17000,-22000,13000,457247,
13556,3196,18548,-1809,932,-22745,17000,-21000,11000,457259,
13108,3016,18624,-1701,1642,-22977,17000,-21000,10000,457261,
12884,2832,18264,-1383,2477,-23110,18000,-21000,10000,457264,
10956,2044,17092,-175,6309,-23711,18000,-20000,8000,457276,
10740,2168,17028,48,6901,-23869,18000,-19000,8000,457279,
8848,1880,15436,1100,10329,-24054,19000,-18000,6000,457291,
8576,1892,15188,1159,10853,-24098,19000,-17000,5000,457293,
8352,1880,15120,1508,11427,-24203,19000,-17000,5000,457296,
6532,1740,13780,2262,14217,-24442,20000,-15000,3000,457308,
6228,1924,13576,2405,14770,-24588,20000,-15000,3000,457310,
5972,1784,13360,2474,15219,-24499,20000,-14000,3000,457313,
3960,1504,12188,3082,17306,-24252,21000,-12000,1000,457325,
3620,1376,12012,3314,17643,-24170,21000,-12000,1000,457328,
3096,1388,11880,3285,17821,-24099,21000,-11000,0,457330,
1344,1524,10860,3773,19022,-23363,21000,-9000,359000,457342,
1136,1708,10808,3697,19178,-23111,22000,-8000,359000,457345,
940,1804,10528,3847,19454,-23066,22000,-8000,358000,457347,
-352,2424,9876,3944,19789,-22004,22000,-5000,357000,457359,
-668,2612,9740,3852,19793,-21908,22000,-5000,357000,457362,
-780,2800,9796,3924,19817,-21701,22000,-4000,357000,457364,
-1760,3520,9128,3636,19409,-21199,23000,-2000,356000,457376,
-1740,3728,8924,3620,19360,-21236,23000,-1000,355000,457379,
-1760,3820,8784,3436,19269,-21080,23000,-1000,355000,457381,
-2792,4264,8656,2867,18016,-20671,23000,1000,354000,457393,
-2760,4520,8620,2914,18017,-20558,23000,1000,354000,457396,
-3020,4464,8428,2741,17936,-20497,23000,2000,354000,457398,
-4472,4556,7736,2232,15761,-19727,23000,4000,353000,457410,
-4560,4436,8380,2022,15500,-19471,23000,4000,352000,457413,
-4704,4440,8976,2126,14909,-19497,23000,5000,352000,457415,
-6316,4400,8484,1460,12018,-19001,23000,7000,351000,457428,
-5856,4532,8364,1165,11574,-19119,23000,7000,351000,457430,
-5836,4648,8524,1102,11350,-19062,23000,8000,351000,457432,
-5500,4924,8404,479,8926,-19387,23000,9000,349000,457445,
-5428,5036,8056,452,8623,-19590,23000,9000,349000,457447,
-5524,5128,8000,244,8321,-19530,23000,10000,349000,457449,
-5280,5428,7152,-185,7645,-19631,23000,11000,347000,457462,
-5284,5584,6640,-195,7813,-19531,23000,12000,347000,457464,
-5932,5568,6372,-400,7609,-19524,23000,12000,347000,457466,
-7328,5384,5500,-1133,5483,-18009,23000,13000,345000,457479,
-7956,5952,6340,-1301,5087,-17790,23000,13000,345000,457481,
-8588,6096,5992,-1206,4132,-17781,23000,14000,345000,457483,
-9664,6464,6004,-2638,1155,-16531,22000,15000,343000,457496,
-9712,6004,6588,-3039,753,-16461,22000,15000,343000,457498,
-10020,6188,7732,-3047,-230,-16393,22000,15000,343000,457500,
-10052,5672,8568,-4270,-2857,-16527,21000,15000,341000,457513,
-10000,5568,8728,-4364,-3387,-16598,21000,15000,341000,457515,
-9996,4924,8300,-4829,-5158,-16125,20000,16000,339000,457527,
-9988,4972,8184,-5098,-5561,-15998,20000,16000,339000,457530,
-10044,5068,8168,-5078,-5774,-15792,20000,16000,339000,457532,
-9512,5556,8132,-6029,-6862,-14581,19000,16000,337000,457545,
-9220,5680,8216,-6157,-6898,-14538,18000,16000,337000,457547,
-9080,5720,8244,-6355,-6854,-14289,18000,16000,336000,457549,
-9044,5532,8768,-6805,-6251,-13621,17000,16000,335000,457562,
-9200,5428,8744,-6747,-6060,-13418,17000,16000,335000,457564,
-9704,5456,8676,-6987,-6064,-13342,17000,16000,335000,457566,
-11032,4728,8800,-7457,-5553,-12169,16000,16000,333000,457579,
-10992,4640,8960,-7604,-5559,-11894,16000,16000,333000,457581,
-10508,3992,8516,-8161,-4554,-11081,15000,16000,332000,457593,
-10316,3732,8496,-8066,-4149,-10865,14000,16000,332000,457595,
-10444,3744,8408,-8084,-3804,-10786,14000,16000,331000,457598,
-12012,3872,7576,-7898,-2908,-9231,13000,16000,330000,457610,
-12180,3808,8036,-8087,-3634,-9057,13000,16000,330000,457613,
-11940,5028,6548,-8361,-3302,-8789,13000,16000,330000,457615,
-14080,5760,9064,-9504,-5774,-7291,12000,16000,329000,457627,
-14072,5612,9164,-9859,-6395,-7019,12000,16000,329000,457630,
-14412,5484,9620,-10085,-6981,-6653,11000,16000,329000,457632,
-12824,4768,11244,-11140,-9846,-5676,10000,15000,328000,457644,
-12596,4572,11400,-11181,-10030,-5626,10000,15000,328000,457647,
-10616,3428,12464,-11554,-8792,-5267,9000,15000,327000,457659,
-10328,3324,12244,-11483,-8167,-5065,8000,14000,327000,457662,
-10596,3112,12400,-11343,-7487,-4703,8000,14000,327000,457664,
-12600,3280,12788,-10964,-5151,-1799,7000,14000,327000,457676,
-12988,3356,13256,-10818,-4810,-1171,7000,14000,327000,457679,
-13244,3348,13312,-10867,-4701,-648,7000,14000,327000,457681,
-14056,3104,13792,-11113,-5858,632,6000,14000,327000,457694,
-14212,2796,13740,-11119,-6184,775,6000,13000,327000,457696,
-14328,2564,13788,-11160,-6673,793,5000,13000,327000,457698,
-12896,2148,14016,-11643,-8457,1260,4000,13000,327000,457711,
-11852,2116,14540,-11810,-8785,1345,4000,13000,327000,457713,
-9348,2368,15632,-11294,-7560,2100,3000,12000,327000,457725,
-9224,2340,15528,-11213,-7053,2429,3000,12000,327000,457728,
-9516,2368,15780,-11122,-6692,2708,3000,12000,327000,457730,
-11452,2704,17396,-10666,-4588,5005,2000,11000,328000,457743,
-11924,2528,17640,-10778,-4478,5276,2000,11000,328000,457745,
-11872,2424,18076,-10648,-4321,5535,1000,11000,328000,457747,
-11452,764,18016,-10648,-4237,5505,1000,11000,328000,457760,
-10928,484,18308,-10564,-4105,5387,0,11000,329000,457762,
-10564,372,18068,-10496,-3807,5348,0,11000,329000,457764,
-8968,0,18416,-10071,-1976,5647,0,11000,329000,457777,
-8644,192,18456,-9847,-1475,5851,0,11000,329000,457779,
-8464,312,18556,-9897,-1076,6108,0,11000,329000,457781,
-7600,484,19376,-9358,1239,7463,-1000,11000,330000,457794,
-7596,644,19852,-9197,1621,7701,-1000,11000,330000,457796,
-7788,528,19832,-9044,1867,7892,-1000,11000,330000,457798,
-8760,636,21060,-8502,2074,8780,-2000,11000,331000,457811,
-8880,432,21296,-8524,1972,8863,-2000,11000,331000,457813,
-8696,264,21496,-8307,1952,8931,-2000,11000,332000,457815,
-8960,-604,21124,-7804,660,8895,-2000,12000,332000,457827,
-9180,-796,20728,-7651,388,8942,-2000,12000,333000,457830,
-9312,-784,20376,-7673,75,8970,-3000,12000,333000,457832,
-9096,-772,20160,-7460,-1490,9636,-3000,12000,334000,457844,
-8972,-788,20108,-7390,-1730,9795,-3000,12000,334000,457847,
-8536,-680,20272,-7448,-2048,9934,-3000,12000,334000,457849,
-7144,-1276,20864,-6999,-2598,10315,-4000,12000,335000,457861,
-6884,-1460,21216,-6965,-2599,10309,-4000,12000,335000,457864,
-6700,-1624,21200,-6750,-2510,10363,-4000,11000,335000,457866,
-6016,-2428,20668,-5988,-1597,10816,-4000,11000,336000,457879,
-5720,-2552,20680,-5964,-1433,10884,-4000,11000,337000,457881,
-5624,-2684,20400,-5696,-1102,11012,-4000,11000,337000,457883,
-5344,-2224,19644,-4997,-412,11665,-5000,12000,338000,457896,
-5416,-2144,19704,-4852,-268,11834,-5000,12000,338000,457898,
-4128,-1532,20084,-4465,865,12206,-5000,12000,339000,457911,
-4132,-1572,20216,-4457,993,12240,-5000,12000,340000,457913,
-4028,-1604,20148,-4240,1213,12357,-5000,12000,340000,457915,
-4196,-2180,19440,-3974,1822,13027,-5000,12000,341000,457928,
-4432,-2252,19312,-3872,1889,13171,-5000,12000,341000,457930,
-4484,-2356,19240,-3888,1885,13244,-5000,12000,342000,457933,
-4012,-2672,19336,-3686,1491,13299,-5000,12000,343000,457945,
-4044,-2680,19292,-3475,1382,13283,-5000,13000,343000,457947,
-3844,-2708,19236,-3616,1190,13195,-5000,13000,343000,457950,
-3280,-2820,19420,-3237,735,12924,-5000,13000,345000,457962,
-3260,-2900,19412,-3166,664,12844,-5000,13000,345000,457964,
-2952,-2972,19356,-3066,655,12856,-5000,13000,345000,457967,
-1572,-2928,19116,-2399,1381,12688,-5000,13000,346000,457979,
-1076,-2880,18964,-2356,1494,12708,-5000,13000,347000,457982,
-516,-2180,18120,-1618,2631,13068,-5000,13000,348000,457994,
-656,-2036,18104,-1645,2694,13168,-5000,13000,348000,457996,
-876,-1884,18004,-1474,2793,13352,-5000,13000,348000,457999,
-1464,-1368,17864,-1444,2439,13817,-5000,14000,350000,458011,
-1252,-1216,17844,-1530,2220,13784,-5000,14000,350000,458013,
-1304,-1192,17936,-1440,2098,13725,-5000,14000,350000,458016,
-516,-1728,18168,-1442,822,13102,-4000,14000,351000,458028,
-544,-1860,17996,-1277,646,13044,-4000,14000,352000,458030,
-696,-1924,18072,-1393,394,12950,-4000,14000,352000,458032,
-64,-2268,17736,-1185,-561,12907,-4000,14000,353000,458045,
40,-2276,17648,-1084,-619,12913,-4000,14000,353000,458047,
404,-2108,17576,-1106,-778,12917,-4000,14000,354000,458049,
1404,-2188,17396,-700,-1304,12653,-4000,14000,355000,458062,
1432,-2200,17356,-789,-1404,12540,-4000,14000,355000,458064,
1356,-2160,17148,-596,-1409,12532,-4000,14000,355000,458066,
1764,-1476,16892,-465,-1712,11877,-4000,13000,356000,458079,
1792,-1404,16956,-444,-1812,11783,-4000,13000,357000,458081,
2580,-948,16832,-227,-2088,11269,-3000,13000,358000,458094,
2784,-1008,16756,-312,-2172,11130,-3000,13000,358000,458096,
2948,-912,16784,-153,-2145,11030,-3000,13000,358000,458098,
3252,-624,16896,-62,-2330,10495,-3000,13000,359000,458111,
3296,-568,16796,-35,-2356,10422,-3000,13000,359000,458113,
3460,-508,16928,-50,-2283,10328,-3000,13000,0,458115,
3800,-232,16856,16,-2143,9786,-3000,12000,1000,458128,
3932,-252,16696,139,-1999,9685,-3000,12000,1000,458130,
3856,-288,16744,28,-1999,9552,-3000,12000,1000,458132,
3700,-180,16268,106,-1618,8980,-2000,12000,2000,458145,
3804,-212,16248,-66,-1624,8810,-2000,12000,2000,458147,
3836,-164,16072,9,-1575,8666,-2000,12000,2000,458149,
4140,212,15976,-252,-1589,7774,-2000,12000,3000,458162,
4148,284,16272,-326,-1694,7663,-2000,12000,3000,458164,
4156,312,16280,-318,-1714,7530,-2000,12000,3000,458166,
4236,840,16568,-602,-2219,6766,-2000,11000,4000,458179,
4052,672,16484,-501,-2242,6633,-2000,11000,4000,458181,
4120,700,16668,-700,-2357,6491,-2000,11000,4000,458183,
4088,396,16496,-760,-2459,5688,-2000,11000,5000,458195,
4156,452,16440,-886,-2556,5551,-2000,11000,5000,458198,
3964,400,16468,-789,-2577,5374,-2000,11000,5000,458200,
4272,676,16404,-1019,-2986,4466,-2000,10000,5000,458212,
4140,696,16428,-1057,-3077,4258,-2000,10000,5000,458215,
4404,772,16404,-1100,-3031,4112,-2000,10000,5000,458217,
4396,1156,16320,-1342,-2840,3094,-2000,10000,6000,458229,
4376,1236,16344,-1270,-2678,2958,-2000,9000,6000,458232,
4168,1144,16208,-1406,-2643,2743,-2000,9000,6000,458234,
3792,992,16184,-1537,-2107,1915,-2000,9000,6000,458246,
3332,788,16240,-1571,-1994,1822,-2000,9000,6000,458249,
3396,820,16048,-1571,-1941,1633,-2000,9000,6000,458251,
3200,352,16008,-1541,-1352,906,-2000,9000,6000,458263,
3432,280,16040,-1644,-1319,724,-2000,9000,6000,458266,
3380,312,15924,-1538,-1139,626,-2000,9000,6000,458268,
2840,552,15708,-1620,-601,156,-2000,8000,6000,458280,
2760,632,15736,-1594,-496,85,-2000,8000,6000,458282,
2340,644,15776,-1670,-419,73,-2000,8000,6000,458285,
2416,808,15672,-1624,-328,-8,-2000,8000,6000,458287,
1464,584,15688,-1814,-219,-270,-2000,8000,6000,458299,
1352,496,15400,-1931,-298,-337,-2000,8000,6000,458302,
1164,380,15452,-1910,-289,-394,-3000,8000,6000,458304,
716,128,15336,-2168,-792,-803,-3000,8000,6000,458316,
400,204,15180,-2070,-829,-864,-3000,8000,6000,458319,
400,124,15180,-2224,-994,-909,-3000,8000,6000,458321,
-152,96,15076,-2371,-1714,-1182,-3000,8000,6000,458333,
-132,136,15140,-2364,-1822,-1175,-3000,8000,6000,458336,
-180,160,15088,-2407,-1960,-1261,-3000,8000,6000,458338,
100,352,15128,-2492,-2587,-1479,-3000,7000,6000,458350,
-128,300,15092,-2659,-2697,-1538,-3000,7000,6000,458352,
-124,356,15220,-2567,-2647,-1535,-3000,7000,6000,458355,
-356,364,15544,-2813,-2662,-1735,-4000,7000,6000,458367,
-404,444,15676,-2759,-2625,-1776,-4000,7000,6000,458369,
-400,392,15320,-2833,-2564,-1770,-4000,7000,6000,458372,
32,564,15812,-2899,-2121,-1803,-4000,7000,5000,458384,
140,544,15872,-2785,-1919,-1756,-4000,7000,5000,458386,
128,744,16000,-2865,-1826,-1764,-4000,7000,5000,458389,
84,804,16720,-2537,-1005,-1571,-4000,6000,5000,458401,
188,796,16780,-2576,-903,-1500,-4000,6000,5000,458403,
344,840,16752,-2448,-672,-1479,-4000,6000,5000,458405,
20,608,17044,-2209,199,-1265,-5000,6000,5000,458418,
-284,496,16988,-2250,305,-1281,-5000,6000,5000,458420,
-288,532,16804,-2106,514,-1203,-5000,6000,5000,458422,
-192,536,16592,-2162,595,-1208,-5000,6000,5000,458425,
-252,452,16460,-1884,1105,-1126,-5000,6000,5000,458437,
-240,616,16252,-1918,1171,-1083,-5000,6000,5000,458439,
-484,452,16304,-1776,1241,-1076,-5000,6000,5000,458442,
-876,588,16480,-1593,1121,-883,-5000,6000,5000,458454,
-1024,520,16556,-1656,1031,-962,-5000,6000,5000,458456,
-980,564,16692,-1534,987,-884,-5000,6000,5000,458459,
-1216,428,17004,-1483,373,-1024,-5000,6000,5000,458471,
-1096,384,16948,-1328,313,-1038,-5000,6000,5000,458473,
-1184,480,17044,-1434,143,-1049,-5000,6000,5000,458476,
-644,556,17324,-1259,-343,-940,-5000,6000,5000,458488,
-616,428,17364,-1161,-323,-890,-5000,6000,5000,458490,
-444,576,17264,-1181,-401,-871,-5000,6000,4000,458493,
-280,692,17364,-957,-257,-732,-5000,6000,4000,458505,
-196,636,17228,-1045,-268,-753,-5000,6000,4000,458507,
-476,788,17236,-906,-190,-735,-5000,6000,4000,458510,
-440,716,17300,-1062,-206,-725,-5000,6000,4000,458512,
-384,676,17092,-929,53,-816,-5000,6000,4000,458524,
-112,772,17124,-957,150,-797,-5000,6000,4000,458527,
-72,548,17000,-899,232,-860,-5000,6000,4000,458529,
28,620,16968,-835,755,-1031,-5000,6000,4000,458541,
28,784,16976,-909,785,-1075,-5000,6000,4000,458543,
-316,748,17040,-789,986,-1014,-5000,6000,4000,458546,
-388,836,16852,-889,968,-1051,-5000,6000,4000,458548,
-1256,596,17148,-814,878,-1149,-6000,6000,4000,458560,
-1076,612,17060,-915,744,-1159,-6000,6000,4000,458563,
-1176,516,17176,-791,697,-1259,-6000,6000,4000,458565,
-676,368,17084,-781,268,-1727,-6000,6000,4000,458577,
-736,272,17112,-818,209,-1864,-6000,6000,4000,458579,
-632,356,17080,-746,316,-1856,-6000,6000,4000,458582,
-772,448,16868,-789,855,-2001,-6000,6000,4000,458594,
-980,412,16920,-631,1046,-1993,-6000,6000,4000,458596,
-964,524,16892,-764,1148,-2027,-6000,6000,4000,458599,
-1136,332,16856,-732,1825,-2156,-6000,7000,3000,458611,
-1036,328,16888,-679,1968,-2167,-6000,7000,3000,458613,
-1172,396,17000,-725,2083,-2246,-6000,7000,3000,458616,
-1300,448,16604,-580,2917,-2269,-6000,7000,3000,458628,
-1336,532,16624,-669,2987,-2214,-6000,7000,3000,458630,
-1468,580,16556,-527,3232,-2218,-6000,7000,3000,458633,
-1920,620,16536,-543,3846,-1811,-6000,7000,3000,458645,
-2072,400,16464,-594,3851,-1829,-6000,7000,3000,458647,
-2212,468,16484,-527,3876,-1739,-6000,7000,3000,458649,
-2736,40,16228,-602,3734,-1730,-6000,8000,2000,458662,
-2816,-40,16200,-456,3726,-1689,-6000,8000,2000,458664,
-2740,-164,16140,-580,3549,-1700,-6000,8000,2000,458667,
-2952,-48,16068,-510,2693,-1513,-6000,8000,2000,458679,
-2936,-140,15916,-458,2542,-1367,-6000,8000,2000,458681,
-3104,28,15740,-460,2329,-1371,-6000,8000,2000,458684,
-3180,-112,15656,-324,1426,-993,-6000,8000,2000,458696,
-2980,-120,15628,-469,1235,-918,-6000,8000,2000,458698,
-3076,-212,15540,-319,1155,-830,-6000,8000,2000,458701,
-2796,-192,15608,-322,437,-508,-6000,8000,2000,458713,
-2804,-180,15628,-283,272,-548,-6000,8000,2000,458715,
-2816,-172,15536,-347,115,-501,-6000,8000,2000,458718,
-2464,-116,15944,-433,-518,-207,-6000,8000,2000,458730,
-2448,-20,16116,-349,-533,-126,-6000,8000,2000,458732,
-2236,40,15956,-450,-539,-98,-6000,8000,2000,458735,
-2248,-20,16108,-349,-484,-62,-6000,8000,2000,458737,
-2020,132,16192,-419,-505,128,-6000,8000,2000,458749,
-1932,112,16132,-284,-460,151,-6000,8000,2000,458752,
-1920,232,16176,-421,-534,163,-6000,8000,2000,458754,
-1612,252,16160,-395,-555,167,-6000,8000,2000,458766,
-1456,364,16080,-328,-491,163,-6000,8000,2000,458769,
-1492,372,16104,-421,-506,127,-6000,8000,2000,458771,
-1004,544,16308,-281,-178,10,-6000,8000,2000,458783,
-1184,572,16116,-410,-152,-6,-6000,8000,2000,458786,
-1196,648,16036,-267,-66,-41,-6000,8000,2000,458788,
-1088,680,16204,-382,-57,-63,-6000,8000,2000,458790,
-1336,528,16228,-396,136,-252,-6000,8000,2000,458803,
-1264,616,16120,-288,242,-233,-6000,8000,2000,458805,
-1232,680,16168,-397,197,-285,-6000,8000,2000,458807,
-1304,680,16096,-301,373,-346,-6000,8000,2000,458820,
-1252,596,16244,-429,364,-348,-6000,8000,2000,458822,
-1260,568,16244,-325,403,-371,-6000,8000,2000,458824,
-1416,580,16048,-421,376,-360,-6000,8000,2000,458826,
-1584,684,16388,-569,217,-454,-6000,8000,2000,458839,
-1632,652,16556,-470,286,-474,-6000,8000,2000,458841,
-1572,744,16496,-587,211,-534,-6000,8000,2000,458843,
-1468,772,16688,-615,267,-553,-6000,8000,2000,458856,
-1420,752,16736,-721,259,-501,-6000,8000,2000,458858,
-1488,676,16660,-627,304,-531,-6000,8000,2000,458860,
-1620,396,16532,-642,384,-532,-6000,8000,2000,458873,
-1524,468,16496,-715,301,-615,-6000,8000,2000,458875,
-1544,408,16624,-673,369,-594,-6000,8000,2000,458877,
-1416,428,16496,-696,319,-664,-6000,8000,2000,458879,
-1596,528,16156,-598,443,-722,-6000,8000,2000,458892,
-1820,456,16132,-729,406,-748,-6000,8000,2000,458894,
