Ax,Ay,Az,Gx,Gy,Gz,Roll,Pitch,Yaw,Timestamp,Target
-5388,540,15480,-464,-130,-94,-6000,20000,15000,600161,
-5400,600,15420,-595,-219,-115,-6000,20000,15000,600163,
-5540,656,15432,-457,-160,-104,-6000,20000,15000,600165,
-5180,684,15404,-570,-155,-80,-6000,20000,15000,600178,
-5224,640,15564,-499,-134,-94,-6000,20000,15000,600180,
-5272,548,15624,-545,-141,-86,-6000,20000,15000,600182,
-5396,636,15624,-515,-91,-72,-6000,20000,15000,600195,
-5384,648,15600,-485,-17,-29,-6000,20000,15000,600197,
-5412,624,15532,-486,-49,-37,-6000,20000,15000,600199,
-5184,656,15776,-460,-78,-48,-6000,20000,15000,600212,
-5296,680,15520,-461,-47,-33,-6000,20000,15000,600214,
-5372,676,15572,-454,-71,-84,-6000,20000,15000,600216,
-5272,616,15688,-433,-36,-107,-6000,20000,15000,600229,
-5268,688,15836,-383,2,-64,-6000,20000,15000,600231,
-5124,708,15836,-430,-35,-109,-6000,20000,15000,600233,
-5364,708,15792,-378,25,-50,-6000,20000,15000,600236,
-5208,644,15728,-449,32,-59,-6000,624,-916,815,
-5280,772,15740,-444,48,-73,-6000,20000,15000,600253,
-5396,688,15888,-303,24,-65,-6000,20000,15000,600265,
-5356,852,15836,-380,5,-65,-6000,20000,15000,600268,
-5464,668,15656,-334,-2,-71,-6000,20000,15000,600270,
-5584,464,16072,-264,-166,-37,-6000,20000,15000,600282,
-5552,648,15892,-382,-255,-77,-6000,20000,15000,600284,
-5484,492,15880,-280,-217,-47,-6000,20000,15000,600287,
-5384,492,15936,-328,-319,-13,-6000,20000,15000,600299,
-5308,492,15920,-192,-276,18,-6000,20000,15000,600301,
-5500,540,15872,-286,-337,14,-6000,20000,15000,600304,
-5556,464,15920,-179,-238,33,-5000,20000,16000,600316,
-5612,532,15960,-211,-225,72,-5000,20000,16000,600319,
-5400,428,16012,-167,-178,51,-5000,20000,16000,600321,
-5388,532,15940,-154,-211,133,-5000,20000,16000,600333,
-5572,536,16140,-232,-320,101,-5000,20000,16000,600336,
-5584,432,16084,-118,-277,170,-5000,20000,16000,600338,
-5740,300,16096,-138,-459,236,-5000,20000,16000,600350,
-5832,256,16064,-27,-465,276,-5000,20000,16000,600353,
-5696,172,16072,-133,-562,263,-5000,20000,16000,600355,
-5588,232,16072,21,-853,383,-5000,20000,16000,600367,
-5620,248,16096,-36,-898,414,-5000,20000,16000,600369,
-5624,216,16164,14,-934,414,-5000,20000,16000,600372,
-5660,216,16184,-4,-991,419,-5000,20000,16000,600374,
-5720,224,16408,113,-995,486,-5000,20000,16000,600387,
-5932,104,16624,196,-912,573,-5000,20000,16000,600389,
-5940,28,16520,183,-942,532,-5000,20000,16000,600391,
-6100,-148,16592,364,-811,839,-5000,20000,16000,600404,
-5920,-100,16592,278,-847,880,-5000,20000,16000,600406,
-5812,-116,16792,451,-774,964,-5000,20000,16000,600408,
-5896,-128,16992,545,-611,1267,-5000,20000,16000,600421,
-5800,-216,16988,690,-561,1270,-5000,20000,16000,600423,
-5828,-208,16980,629,-497,1372,-5000,20000,16000,600425,
-5996,-248,17228,957,-123,1700,-5000,20000,16000,600438,
-5744,-168,17464,1047,-8,1755,-5000,20000,16000,600440,
-5996,-340,17452,1087,-16,1772,-5000,20000,16000,600442,
-6104,-356,17704,1495,141,2151,-4000,20000,17000,600455,
-6024,-232,17840,1646,194,2213,-4000,20000,17000,600457,
-5964,-228,18004,1620,162,2274,-4000,20000,17000,600459,
-6060,-156,18048,2027,87,2591,-4000,20000,17000,600472,
-6128,-204,17880,2140,100,2696,-4000,20000,17000,600474,
-6356,-220,18016,2180,51,2723,-4000,20000,17000,600476,
-6400,-436,17816,2641,-168,3125,-3000,20000,17000,600489,
-6492,-368,17828,2561,-338,3145,-3000,20000,17000,600491,
-6364,-460,17892,2711,-402,3196,-3000,20000,18000,600493,
-6596,-208,18124,2826,-1352,3501,-3000,20000,18000,600506,
-6564,-112,17972,2953,-1527,3558,-3000,20000,18000,600508,
-6640,28,18020,2939,-1687,3619,-3000,20000,18000,600510,
-6024,496,18272,3066,-2550,3776,-2000,19000,18000,600523,
-5972,504,18372,3192,-2594,3835,-2000,19000,19000,600525,
-5728,604,18536,3139,-2724,3826,-2000,19000,19000,600527,
-5836,748,18756,3413,-2987,3988,-2000,19000,19000,600540,
-5764,704,18760,3310,-3110,3993,-2000,19000,19000,600542,
-5780,852,18748,3487,-3112,4070,-1000,19000,19000,600544,
-5440,992,18828,3643,-3472,4228,-1000,19000,20000,600557,
-5480,984,18996,3718,-3611,4181,-1000,18000,20000,600559,
-5524,1188,18932,3713,-3656,4236,-1000,18000,20000,600561,
-5004,1816,18648,4051,-3780,4124,0,18000,20000,600574,
-4916,1864,18532,4171,-3719,4158,0,18000,20000,600576,
-4828,1940,18520,4186,-3823,4079,0,18000,20000,600578,
-4056,2704,18372,4547,-3778,3872,0,17000,21000,600591,
-4000,2692,18532,4432,-3844,3840,0,17000,21000,600593,
-3900,2820,18620,4648,-3777,3829,0,17000,21000,600595,
-3780,3064,18788,4835,-3836,3635,0,17000,21000,600608,
-3628,3140,18860,4977,-3852,3566,1000,17000,21000,600610,
-3560,3152,18828,4969,-3857,3585,1000,17000,21000,600612,
-3212,3484,18944,5353,-3831,3360,1000,16000,22000,600625,
-3156,3420,18984,5536,-3741,3405,2000,16000,22000,600627,
-3120,3776,18740,5638,-3838,3240,2000,16000,22000,600635,
-3008,3824,18808,5793,-3839,3167,2000,16000,22000,600637,
-3136,4060,18680,5740,-3906,3124,2000,16000,22000,600640,
-2704,4552,18348,6029,-4110,2639,3000,15000,22000,600652,
-2612,4520,18368,6137,-4124,2561,3000,15000,22000,600654,
-2256,4824,18428,6161,-4203,2404,3000,15000,23000,600657,
-1836,5100,17744,6438,-4095,1644,4000,15000,23000,600669,
-1624,5172,17708,6322,-4103,1550,4000,15000,23000,600671,
-1648,5268,17320,6475,-3992,1436,4000,15000,23000,600674,
-1344,5724,17236,6348,-3666,897,5000,14000,23000,600686,
-1392,5708,17288,6479,-3618,778,5000,14000,23000,600688,
-1256,5880,17204,6345,-3586,635,5000,14000,23000,600691,
-1076,6092,16596,6353,-3427,-76,6000,14000,23000,600703,
-1028,6052,16464,6397,-3329,-156,6000,14000,23000,600705,
-1284,6076,16592,6352,-3394,-320,6000,13000,23000,600708,
-1380,6244,15876,6385,-3470,-840,7000,13000,23000,600720,
-1348,6236,15732,6250,-3602,-927,7000,13000,23000,600722,
-1320,6304,15788,6361,-3617,-1015,7000,13000,23000,600725,
-1140,6512,15300,6181,-3912,-1694,8000,13000,22000,600737,
-1184,6404,15116,6244,-3928,-1821,8000,12000,22000,600739,
-1376,6424,14956,6148,-3935,-1878,8000,12000,22000,600742,
-1332,6472,14412,6001,-3598,-2448,8000,12000,22000,600754,
-1216,6468,14320,6046,-3514,-2476,9000,12000,22000,600757,
-1280,6460,14124,5933,-3563,-2643,9000,12000,22000,600759,
-932,6512,13592,5750,-3189,-3251,9000,12000,22000,600771,
-1036,6392,13388,5574,-3216,-3311,9000,12000,22000,600774,
-996,6532,13248,5626,-3167,-3448,9000,12000,22000,600776,
-960,6324,12932,5252,-2997,-4041,10000,11000,21000,600788,
-828,6264,12800,5160,-3064,-4264,10000,11000,21000,600791,
-840,6240,12896,5135,-2977,-4295,10000,11000,21000,600793,
-844,6160,12544,4677,-2930,-4854,11000,11000,20000,600805,
-920,6192,12476,4727,-2837,-4928,11000,11000,20000,600808,
-880,6180,12436,4522,-2868,-5060,11000,11000,20000,600810,
-1120,6204,12240,4209,-2915,-5507,11000,11000,20000,600823,
-1036,6108,12200,4000,-2947,-5638,11000,11000,20000,600825,
-1360,6024,12184,4051,-2920,-5730,11000,11000,20000,600827,
-1328,5832,11772,3462,-2925,-6252,12000,10000,19000,600840,
-1224,5672,11816,3437,-2938,-6439,12000,10000,19000,600842,
-1260,5600,11616,3342,-2827,-6471,12000,10000,19000,600844,
-1896,5176,11240,2768,-2487,-6874,12000,10000,18000,600857,
-2008,5264,11272,2831,-2340,-6875,12000,10000,18000,600859,
-2028,5208,11280,2586,-2372,-6945,12000,10000,18000,600861,
-2212,5088,11012,2122,-2178,-7068,12000,10000,17000,600874,
-2128,5120,11012,1864,-2198,-7078,12000,10000,17000,600876,
-2224,5016,11088,1920,-2173,-7148,12000,10000,17000,600878,
-2296,4620,11280,1269,-2115,-7268,12000,10000,16000,600891,
-2320,4724,11132,1185,-2110,-7342,12000,10000,16000,600893,
-2384,4500,11104,1101,-2010,-7293,12000,10000,16000,600895,
-2444,4080,11072,724,-1498,-7215,12000,10000,15000,600908,
-2480,3996,10976,754,-1279,-7181,12000,10000,15000,600910,
-2660,3972,11012,582,-1209,-7183,12000,10000,15000,600912,
-3044,4220,10932,330,-517,-7020,12000,10000,14000,600925,
-2968,4256,11192,194,-441,-6992,12000,10000,14000,600927,
-3104,4388,11152,200,-357,-6967,12000,10000,14000,600930,
-3044,4256,11436,-156,-231,-6858,12000,10000,13000,600942,
-3232,4268,11452,-288,-243,-6951,12000,10000,13000,600944,
-3144,4208,11200,-284,-188,-6904,12000,10000,13000,600947,
-3436,4040,11444,-694,-269,-6931,12000,11000,12000,600959,
-3504,3876,11496,-600,-209,-6922,12000,11000,12000,600961,
-3632,3948,11548,-757,-308,-6926,12000,11000,12000,600964,
-4004,3856,11928,-927,-531,-6809,12000,11000,11000,600976,
-4036,3868,11892,-992,-565,-6666,12000,11000,11000,600978,
-4028,3852,12052,-959,-593,-6708,12000,11000,11000,600981,
-4340,3936,12288,-945,-935,-6379,11000,11000,11000,600993,
-4256,3972,12180,-1076,-1071,-6413,11000,11000,10000,600995,
-4516,3968,12376,-1007,-1103,-6270,11000,11000,10000,600998,
-4668,4136,12568,-1185,-1766,-6004,11000,11000,10000,601010,
-4444,4204,12680,-1082,-1827,-5949,11000,11000,10000,601012,
-4436,4228,12948,-1227,-1962,-5903,11000,11000,10000,601015,
-4308,3840,13048,-1138,-2287,-5742,11000,11000,9000,601027,
-4368,3596,13048,-1135,-2271,-5636,11000,11000,9000,601030,
-4160,3684,13060,-1098,-2285,-5625,11000,11000,9000,601032,
-4092,3680,13060,-946,-1859,-5200,11000,11000,8000,601044,
-3916,3860,12984,-1039,-1803,-5145,11000,11000,8000,601047,
-3944,3824,12876,-908,-1603,-4980,11000,11000,8000,601049,
-3820,4136,12964,-1083,-1138,-4501,10000,11000,8000,601061,
-3732,4288,13044,-977,-1047,-4444,10000,11000,7000,601064,
-3648,4396,13192,-1127,-1016,-4376,10000,11000,7000,601066,
-3300,4528,13624,-1154,-766,-4183,10000,11000,7000,601079,
-3300,4596,13512,-1154,-696,-4075,10000,11000,7000,601081,
-3400,4632,13508,-1165,-672,-4134,10000,11000,7000,601083,
-3384,4332,13876,-1131,-261,-3880,10000,11000,6000,601096,
-3344,4156,13892,-1286,-274,-3848,10000,11000,6000,601098,
-3280,4152,13896,-1124,-201,-3737,10000,11000,6000,601100,
-3568,4168,14008,-1202,-178,-3354,10000,11000,6000,601113,
-3636,4160,14052,-1140,-178,-3342,10000,11000,6000,601115,
-3644,4244,14224,-1206,-216,-3227,10000,11000,6000,601117,
-3376,4528,14388,-1246,-328,-3146,10000,11000,6000,601130,
-3300,4732,14396,-1170,-277,-3111,10000,11000,6000,601132,
-3272,4680,14376,-1283,-323,-3164,10000,11000,6000,601134,
-3408,4584,14724,-1208,-55,-3095,9000,11000,5000,601147,
-3476,4368,14792,-1326,-39,-3067,9000,11000,5000,601149,
-3496,4400,14580,-1184,80,-3036,9000,11000,5000,601151,
-3436,4300,14800,-1223,416,-2704,9000,11000,5000,601164,
-3340,4184,14844,-1225,459,-2690,9000,11000,5000,601166,
-3252,4336,14976,-1221,562,-2573,9000,11000,5000,601168,
-3192,4108,14960,-1214,1195,-2271,9000,11000,5000,601181,
-3200,4068,14892,-1062,1405,-2158,9000,11000,5000,601183,
-3176,4104,14896,-1197,1476,-2154,9000,11000,5000,601185,
-3160,4336,15104,-974,2337,-1716,9000,12000,4000,601198,
-3248,4332,15112,-1143,2362,-1649,9000,12000,4000,601200,
-3252,4320,15008,-970,2538,-1588,9000,12000,4000,601202,
-3872,4116,15044,-1025,2825,-1402,9000,12000,4000,601215,
-3912,4104,15172,-954,2876,-1363,9000,12000,4000,601217,
-3932,4088,15072,-1002,2842,-1297,9000,12000,4000,601219,
-3928,4176,15076,-907,2565,-1177,9000,12000,4000,601232,
-4020,4140,15104,-862,2564,-1077,9000,12000,4000,601234,
-4200,4184,15196,-852,2431,-1090,9000,13000,4000,601236,
-4304,4292,15180,-762,2048,-884,9000,13000,4000,601249,
-4284,4412,15296,-902,1894,-919,9000,13000,4000,601251,
-4320,4492,15296,-767,1824,-839,9000,13000,4000,601253,
-4500,4216,15224,-859,1282,-743,9000,13000,4000,601266,
-4596,4200,15220,-710,1237,-741,9000,13000,4000,601268,
-4548,4052,15272,-855,1090,-738,9000,13000,4000,601270,
-4288,4176,15304,-703,667,-563,9000,13000,4000,601283,
-4280,4180,15336,-799,598,-513,9000,13000,4000,601285,
-4224,4360,15296,-680,616,-506,9000,13000,4000,601287,
-3860,4532,15364,-773,605,-339,9000,13000,4000,601300,
-3888,4508,15324,-765,625,-409,9000,13000,4000,601302,
-3644,4568,15364,-777,686,-326,9000,13000,4000,601305,
-3884,4464,15396,-797,927,-329,8000,13000,4000,601317,
-3784,4528,15388,-651,1038,-278,8000,13000,4000,601319,
-3892,4416,15260,-775,1018,-328,8000,13000,4000,601322,
-3800,4312,15092,-674,1205,-325,8000,13000,4000,601334,
-3704,4508,15308,-686,1239,-276,8000,13000,4000,601336,
-3716,4376,15312,-659,1221,-305,8000,14000,4000,601339,
-3752,4684,15544,-595,1268,-220,8000,14000,4000,601351,
-4060,4704,15320,-723,1204,-242,8000,14000,4000,601353,
-3900,4656,15440,-575,1259,-205,8000,14000,4000,601356,
-4156,4496,15464,-642,1090,-277,8000,14000,4000,601368,
-4112,4592,15264,-525,1066,-299,8000,14000,4000,601370,
-4212,4600,15184,-660,952,-308,8000,14000,4000,601373,
-4060,4596,15376,-539,648,-412,8000,14000,4000,601385,
-4068,4600,15276,-535,667,-420,8000,14000,4000,601387,
-4008,4684,15276,-542,574,-476,8000,14000,4000,601390,
-4028,4640,15292,-416,523,-530,8000,14000,4000,601402,
-3916,4704,15260,-548,465,-581,8000,14000,4000,601404,
-3964,4608,15180,-442,529,-584,8000,14000,4000,601407,
-3992,4524,15188,-551,496,-592,8000,14000,4000,601409,
-3884,4628,15084,-438,656,-548,8000,14000,4000,601421,
-3860,4636,15092,-555,729,-522,8000,14000,4000,601424,
-3864,4600,15012,-425,774,-535,8000,14000,4000,601426,
-4136,4544,14936,-505,1003,-389,8000,14000,4000,601438,
-4064,4652,15236,-491,1038,-404,8000,14000,4000,601441,
-4116,4584,15016,-525,1068,-363,8000,14000,4000,601443,
-4148,4844,15100,-563,1248,-379,8000,14000,4000,601455,
-4052,4700,15176,-506,1315,-325,8000,14000,4000,601458,
-4208,4740,15260,-596,1277,-356,8000,14000,4000,601460,
-4664,4548,15324,-449,1212,-288,8000,15000,4000,601472,
-4652,4460,15148,-551,1121,-301,8000,15000,4000,601475,
-4652,4400,15200,-398,1063,-267,8000,15000,4000,601477,
-4380,4400,15072,-374,648,-218,8000,15000,4000,601490,
-4564,4324,14940,-373,545,-287,8000,15000,4000,601492,
-4428,4384,14988,-321,545,-212,8000,15000,4000,601494,
-4316,4660,15180,-399,264,-257,8000,15000,4000,601507,
-4284,4712,14760,-228,323,-229,8000,15000,4000,601509,
-4204,4700,14984,-398,280,-225,8000,15000,4000,601511,
-4144,4692,14932,-318,360,-195,8000,15000,4000,601524,
-4296,4728,14920,-429,319,-188,8000,15000,4000,601526,
-4292,4672,14996,-294,351,-164,8000,15000,4000,601528,
-4488,4500,15076,-389,394,-129,8000,15000,4000,601541,
-4284,4652,15076,-425,334,-186,8000,15000,4000,601543,
-4204,4516,14880,-408,380,-140,8000,15000,4000,601545,
-4316,4528,15024,-463,333,-107,8000,15000,4000,601558,
-4348,4548,14924,-309,388,-88,8000,15000,4000,601560,
-4356,4316,15152,-426,322,-46,8000,15000,4000,601562,
-4224,4488,14888,-283,397,-57,8000,15000,4000,601564,
-4244,4536,14892,-343,434,-36,8000,15000,4000,601577,
-4052,4508,14816,-272,458,-50,8000,15000,4000,601579,
-4260,4440,14712,-394,448,-5,8000,15000,4000,601581,
-4268,4620,14636,-321,498,-48,8000,15000,4000,601594,
-4104,4700,14680,-356,537,-11,8000,15000,4000,601596,
-4108,4712,14740,-312,556,-47,8000,15000,4000,601598,
-4064,4596,14732,-278,657,-49,9000,15000,4000,601611,
-4168,4560,14656,-403,589,-50,9000,15000,4000,601613,
-4240,4548,14728,-294,630,-65,9000,15000,4000,601615,
-4184,4504,14696,-408,567,-53,9000,15000,4000,601618,
-4140,4372,14648,-327,638,-21,9000,15000,4000,601630,
-4028,4460,14568,-445,624,-13,9000,15000,4000,601633,
-4128,4328,14520,-329,665,-31,9000,15000,4000,601635,
-4168,4612,14612,-426,755,15,9000,15000,4000,601647,
-4092,4648,14536,-428,781,8,9000,15000,4000,601650,
-4036,4748,14684,-431,849,24,9000,15000,4000,601652,
-4092,4656,14488,-446,831,-3,9000,15000,4000,601654,
-4400,4560,14512,-437,977,44,9000,15000,4000,601667,
-4396,4520,14484,-590,954,30,9000,15000,4000,601669,
-4444,4580,14560,-470,1032,98,9000,15000,4000,601671,
-4264,4504,14512,-640,980,92,9000,15000,4000,601684,
-4184,4452,14332,-531,990,111,9000,15000,4000,601686,
-4192,4284,14284,-615,946,140,9000,16000,4000,601688,
-4132,4428,14332,-524,974,150,9000,16000,4000,601690,
-4396,4624,14260,-569,975,294,9000,16000,4000,601703,
-4404,4888,14600,-997,825,27,8000,16000,5000,601836,
-4604,4612,14708,-1013,871,-108,8000,16000,5000,601848,
-4436,4752,14712,-962,890,-72,8000,16000,5000,601851,
-4432,4520,14728,-1021,843,-134,8000,16000,5000,601853,
-4464,4556,14620,-900,813,-125,8000,16000,5000,601865,
-4564,4576,14732,-1049,688,-137,8000,16000,5000,601868,
-4656,4628,14640,-920,741,-106,8000,16000,5000,601870,
-4480,4656,14616,-1052,537,-206,8000,17000,5000,601882,
-4416,4628,14700,-953,569,-182,8000,17000,5000,601885,
-4436,4668,14844,-1059,514,-182,8000,17000,5000,601887,
-4624,4580,14860,-1090,347,-188,8000,17000,5000,601899,
-4616,4656,14916,-1042,363,-168,8000,17000,5000,601902,
-4588,4524,14832,-1097,319,-187,8000,17000,5000,601904,
-4480,4524,15064,-937,292,-251,8000,17000,5000,601916,
-4480,4472,15084,-1092,251,-254,8000,17000,5000,601919,
-4404,4548,14880,-942,313,-296,8000,17000,5000,601921,
-4596,4408,15164,-985,234,-285,8000,17000,5000,601933,
-4572,4456,15104,-994,252,-359,8000,17000,5000,601936,
-4620,4452,15196,-1012,245,-305,8000,17000,5000,601938,
-4516,4512,15184,-1010,326,-335,8000,17000,5000,601950,
-4472,4456,15144,-922,425,-296,8000,17000,5000,601952,
-4528,4464,15160,-966,354,-329,8000,17000,5000,601955,
-4964,4592,15200,-877,398,-259,8000,17000,5000,601967,
-4972,4488,15228,-985,304,-273,8000,17000,5000,601970,
-4932,4580,15384,-857,330,-249,8000,17000,5000,601972,
-4892,4480,15240,-917,71,-278,8000,17000,5000,601984,
-4924,4428,15432,-823,81,-295,8000,17000,5000,601986,
-4964,4356,15280,-896,-26,-271,8000,17000,5000,601989,
-5036,4388,15456,-805,-2,-293,8000,17000,5000,601991,
-4896,4544,15484,-800,-111,-223,8000,17000,5000,602003,
-4644,4676,15380,-842,-175,-281,8000,17000,5000,602006,
-4724,4652,15540,-803,-132,-249,8000,17000,5000,602008,
-4804,4436,15544,-785,-20,-254,8000,17000,5000,602020,
-4932,4556,15520,-639,81,-214,8000,17000,5000,602023,
-4884,4540,15472,-764,48,-227,8000,17000,5000,602025,
-5044,4604,15640,-589,76,-177,8000,17000,5000,602037,
-4964,4564,15556,-659,53,-172,8000,17000,5000,602040,
-4988,4600,15508,-543,71,-197,8000,17000,5000,602042,
-5124,4564,15584,-621,32,-165,8000,17000,5000,602044,
-5252,4560,15416,-520,-50,-159,8000,17000,5000,602057,
-5200,4524,15616,-482,-55,-162,8000,17000,5000,602059,
-5332,4644,15612,-491,-100,-144,8000,17000,5000,602061,
-5392,4672,15652,-336,-134,-40,8000,17000,5000,602074,
-5464,4616,15512,-436,-192,-53,8000,17000,5000,602076,
-5564,4640,15556,-302,-139,0,8000,17000,5000,602078,
-5856,4568,15764,-322,-204,74,8000,17000,5000,602091,
-5864,4584,15748,-177,-182,79,8000,17000,5000,602093,
-5840,4472,15820,-269,-210,102,8000,17000,5000,602095,
-5972,4532,15812,-138,-176,98,8000,17000,5000,602098,
-5952,4324,15732,-81,-71,258,8000,17000,5000,602110,
-5952,4428,15572,-79,-87,289,8000,17000,5000,602112,
-6020,4372,15644,-48,-6,393,8000,17000,5000,602115,
-6384,4244,15460,54,256,807,8000,17000,5000,602127,
-6532,4224,15372,195,402,914,8000,17000,5000,602129,
-6640,4288,15188,85,337,973,8000,17000,5000,602132,
-6668,4308,15220,222,438,1107,8000,17000,5000,602134,
-6920,4380,15148,140,413,1593,8000,17000,5000,602146,
-7028,4456,15172,218,416,1690,8000,17000,5000,602149,
-7164,4316,15132,119,418,1804,8000,17000,5000,602151,
-7940,4024,14756,108,398,2431,8000,17000,5000,602163,
-8052,4076,14728,133,375,2627,8000,17000,5000,602166,
-8004,4096,14584,119,226,2707,8000,17000,5000,602168,
-8148,4092,14560,115,188,2896,8000,17000,5000,602170,
-8484,3976,14196,24,-894,3591,8000,17000,6000,602183,
-8624,4028,14124,106,-1074,3684,8000,17000,6000,602185,
-8576,4036,14192,-23,-1369,3762,9000,17000,6000,602187,
-8224,4164,13744,-15,-2573,4224,9000,17000,6000,602200,
-8112,4268,13808,-156,-2796,4320,9000,17000,6000,602202,
-8108,4252,13616,-1,-2947,4442,9000,17000,6000,602204,
-7812,4376,13528,-203,-3805,5057,9000,16000,7000,602217,
-7880,4512,13444,-315,-4009,5143,9000,16000,7000,602219,
-7496,4492,13388,-322,-4069,5274,9000,16000,7000,602221,
-6780,4412,12920,-598,-4568,5585,9000,16000,8000,602234,
-6544,4544,12964,-452,-4557,5655,9000,16000,8000,602236,
-6452,4572,12672,-652,-4678,5725,9000,15000,8000,602238,
-5956,4988,12520,-894,-4828,6103,9000,15000,8000,602251,
-5916,4964,12428,-1002,-4881,6160,9000,15000,8000,602253,
-5668,5004,12356,-1030,-4961,6205,9000,15000,9000,602255,
-5248,4944,12016,-1343,-5457,6312,9000,14000,9000,602268,
-5140,4840,11804,-1524,-5682,6299,9000,14000,9000,602270,
-5168,4976,11772,-1497,-5784,6338,9000,14000,9000,602272,
-4996,4688,11548,-2025,-7057,6315,9000,13000,10000,602285,
-5064,4760,11504,-1995,-7269,6329,9000,13000,10000,602287,
-4872,4688,11320,-2153,-7608,6303,9000,13000,10000,602289,
-4108,4604,11292,-2581,-9073,6218,9000,12000,10000,602302,
-3952,4616,11328,-2519,-9243,6214,9000,12000,10000,602304,
-3880,4580,11208,-2681,-9562,6186,9000,12000,11000,602306,
-3072,4372,11472,-2916,-10540,6151,9000,11000,11000,602319,
-2828,4400,11500,-3153,-10714,6145,9000,10000,11000,602321,
-2672,4328,11468,-3069,-10796,6144,9000,10000,11000,602323,
-1340,4280,11412,-3514,-11049,6117,9000,9000,12000,602336,
-1216,4272,11384,-3593,-11084,6116,9000,9000,12000,602338,
-644,4384,11452,-3675,-10962,6141,9000,9000,12000,602340,
240,4320,11676,-4104,-10598,6149,9000,7000,12000,602353,
588,4232,11796,-4081,-10464,6205,9000,7000,12000,602355,
416,4032,11812,-4216,-10431,6192,8000,7000,12000,602357,
1124,3672,11544,-4353,-9981,6134,8000,6000,13000,602370,
1228,3628,11708,-4508,-10048,6095,8000,6000,13000,602372,
1384,3584,11632,-4437,-9963,6129,8000,6000,13000,602374,
1828,3540,11880,-4741,-10182,5899,8000,4000,13000,602387,
1932,3504,11852,-4687,-10237,5860,8000,4000,13000,602389,
2108,3592,11704,-4815,-10340,5779,8000,4000,13000,602391,
2708,3696,12004,-5105,-10888,5401,7000,3000,14000,602404,
3060,3780,12244,-5113,-10917,5329,7000,3000,14000,602406,
3116,3640,12224,-5199,-11144,5237,7000,2000,14000,602408,
3796,3508,13128,-5393,-11700,4817,7000,1000,14000,602421,
3760,3288,13304,-5396,-11737,4753,6000,1000,14000,602423,
3860,3276,13432,-5436,-11872,4670,6000,1000,14000,602425,
4372,2740,13864,-5382,-12078,4325,6000,0,15000,602438,
4612,2656,14160,-5510,-12165,4210,6000,0,15000,602440,
4644,2588,13992,-5378,-12057,4211,6000,0,15000,602443,
5552,2460,14388,-5565,-11587,3901,5000,-1000,15000,602455,
5796,2436,14192,-5470,-11406,3845,5000,-2000,15000,602457,
5920,2372,14200,-5596,-11298,3786,5000,-2000,15000,602460,
6584,2288,14312,-5685,-10550,3413,4000,-3000,15000,602472,
6856,2320,14304,-5733,-10385,3361,4000,-3000,15000,602474,
6900,2460,14496,-5735,-10291,3266,4000,-3000,15000,602476,
7756,2444,15116,-5817,-9590,2786,4000,-5000,16000,602489,
7736,2416,15212,-5957,-9536,2665,4000,-5000,16000,602491,
7888,2316,15292,-5822,-9309,2616,4000,-5000,16000,602493,
7644,1984,15780,-5814,-8724,2028,3000,-6000,16000,602506,
7604,1788,15860,-5729,-8699,1891,3000,-6000,16000,602508,
7652,1708,15920,-5754,-8695,1793,3000,-6000,16000,602511,
8508,1824,16664,-5653,-8832,899,2000,-7000,16000,602523,
8628,1812,16932,-5508,-8737,749,2000,-7000,16000,602525,
8880,1780,17088,-5612,-8755,506,2000,-8000,16000,602528,
10000,1712,17836,-5281,-8010,-574,2000,-8000,16000,602540,
10088,1692,17932,-5381,-7894,-797,1000,-9000,16000,602542,
10248,1644,17856,-5178,-7641,-992,1000,-9000,16000,602545,
11100,1144,18804,-4796,-6338,-1999,1000,-9000,16000,602557,
11096,1044,18680,-4723,-6046,-2200,1000,-10000,16000,602560,
11244,1048,18856,-4629,-5707,-2336,1000,-10000,16000,602562,
11684,620,18844,-4118,-3842,-3205,1000,-10000,15000,602574,
11620,568,18796,-3902,-3463,-3341,0,-10000,15000,602577,
11720,756,18632,-3920,-3175,-3549,0,-10000,15000,602579,
11656,756,18640,-3397,-1425,-4388,0,-11000,15000,602591,
11664,632,18688,-3409,-1182,-4505,0,-11000,15000,602594,
11508,708,18660,-3263,-931,-4685,0,-11000,15000,602596,
10908,256,18784,-2786,250,-5598,0,-11000,14000,602608,
10880,228,18788,-2820,373,-5792,0,-11000,14000,602611,
10904,232,18776,-2613,630,-5948,0,-11000,14000,602613,
10480,-24,18484,-2282,1567,-6838,0,-11000,13000,602625,
10472,-96,18500,-2054,1838,-7014,0,-11000,13000,602628,
10312,-80,18260,-2125,1972,-7206,0,-11000,13000,602630,
10036,208,17812,-1757,3166,-8030,0,-11000,12000,602642,
9944,300,17792,-1787,3399,-8151,0,-11000,12000,602645,
9936,348,17768,-1667,3649,-8334,0,-10000,12000,602647,
9124,272,17448,-1565,4730,-9092,0,-10000,11000,602659,
8896,308,17216,-1599,4819,-9268,0,-10000,11000,602662,
8716,296,17392,-1516,4998,-9373,0,-10000,11000,602664,
7520,-8,16884,-1397,5360,-10096,0,-10000,10000,602676,
7508,-32,16824,-1253,5517,-10227,0,-9000,9000,602679,
7224,-84,16660,-1343,5443,-10366,0,-9000,9000,602681,
6960,-124,16472,-1197,5606,-10429,0,-9000,9000,602683,
6036,84,16244,-1207,5641,-10904,0,-9000,8000,602695,
5876,188,16036,-1117,5763,-11044,0,-9000,8000,602698,
5956,332,16028,-1218,5745,-11139,0,-9000,8000,602700,
5460,556,15616,-1288,6282,-11558,0,-8000,7000,602712,
5284,464,15568,-1258,6389,-11808,0,-8000,6000,602715,
5004,396,15440,-1263,6526,-11944,0,-8000,6000,602717,
3608,232,14700,-1235,7112,-11855,0,-7000,5000,602730,
3580,164,14740,-1322,7089,-11856,0,-7000,5000,602732,
3336,232,14680,-1238,7183,-11836,0,-7000,5000,602734,
2968,164,14484,-1354,7172,-11878,0,-7000,4000,602736,
2168,304,13920,-1264,7290,-11875,0,-6000,3000,602749,
2028,156,13836,-1399,7205,-11954,0,-6000,3000,602751,
1884,296,13732,-1273,7249,-12172,0,-6000,3000,602753,
656,316,13076,-1520,7119,-11812,0,-5000,2000,602766,
328,280,12904,-1543,7115,-11854,0,-5000,1000,602768,
120,372,12780,-1584,7073,-11791,0,-5000,1000,602770,
-36,452,12648,-1629,7054,-11863,0,-5000,1000,602773,
-1156,716,12484,-1873,6792,-11385,0,-4000,0,602785,
-1408,824,12192,-2052,6691,-11635,0,-4000,0,602787,
-1728,828,12024,-2048,6696,-11326,0,-4000,0,602790,
-2784,1040,11868,-2601,6502,-11125,0,-3000,358000,602802,
-3160,952,12032,-2564,6503,-11000,0,-3000,358000,602804,
-3352,1080,12160,-2784,6445,-10993,0,-3000,358000,602807,
-4296,636,12024,-3121,6142,-10448,0,-2000,357000,602819,
-4468,700,11980,-3303,6038,-10268,0,-2000,357000,602821,
-5040,524,12248,-3209,6055,-10177,0,-2000,357000,602824,
-5988,792,12292,-3725,5611,-9355,0,-1000,356000,602836,
-6332,620,12264,-3811,5470,-9232,0,-1000,356000,602838,
-6456,788,12328,-3774,5368,-8944,0,-1000,356000,602841,
-7920,920,12036,-4318,4619,-7981,0,0,355000,602853,
-8060,844,12252,-4259,4488,-7810,0,0,355000,602855,
-8160,812,12080,-4522,4242,-7700,-1000,0,354000,602858,
-8180,928,12176,-4491,4196,-7534,-1000,0,354000,602860,
-8060,936,12456,-5072,3637,-6488,-1000,0,354000,602872,
-8064,1004,12648,-5058,3772,-6353,-1000,0,354000,602875,
-7996,1024,12816,-5174,3865,-6111,-1000,0,354000,602877,
-7992,1008,13424,-5352,4960,-4694,-2000,0,353000,602889,
-8136,1048,13564,-5313,5272,-4367,-2000,1000,353000,602892,
-8228,1068,13644,-5368,5522,-4124,-2000,1000,353000,602894,
-9324,1284,13980,-5269,7169,-2214,-2000,2000,353000,602906,
-9516,1404,14160,-5402,7285,-1947,-2000,2000,353000,602909,
-9796,1396,14112,-5271,7511,-1611,-3000,2000,353000,602911,
-10804,1408,14952,-5352,7924,-95,-3000,3000,353000,602923,
-10892,1452,14896,-5251,7976,125,-3000,3000,353000,602926,
-11016,1436,15016,-5341,7822,328,-3000,3000,353000,602928,
-11464,1500,14860,-5288,7225,1472,-4000,4000,353000,602941,
-11476,1572,14904,-5263,7127,1693,-4000,4000,353000,602943,
-11540,1564,15152,-5269,7022,1854,-4000,4000,353000,602945,
-11252,1792,15244,-5209,6493,2966,-4000,5000,353000,602958,
-10976,1756,15204,-5358,6413,3114,-4000,5000,353000,602960,
-10992,1760,15168,-5271,6396,3364,-4000,6000,353000,602962,
-10032,1940,14976,-5447,6459,4298,-5000,6000,353000,602975,
-9956,1956,15160,-5427,6610,4454,-5000,6000,353000,602977,
-9752,1896,15056,-5439,6723,4670,-5000,7000,353000,602980,
-9432,1932,14736,-5541,7626,5620,-5000,8000,354000,602992,
-9544,1996,14648,-5490,7783,5823,-5000,8000,354000,602994,
-9488,2108,14764,-5553,7824,6005,-5000,8000,354000,602997,
-9316,2688,15364,-5613,7858,6838,-6000,9000,355000,603009,
-9220,2852,15524,-5763,7699,6939,-6000,9000,355000,603011,
-9236,2744,15588,-5669,7682,7032,-6000,9000,355000,603014,
-9068,2740,15892,-5996,7129,7492,-6000,10000,356000,603026,
-9188,2612,15912,-5958,7112,7576,-6000,10000,356000,603028,
-9188,2612,15976,-5987,7044,7699,-6000,10000,356000,603031,
-8932,1992,16616,-5905,6820,8280,-7000,11000,357000,603043,
-8800,1836,16776,-5811,6770,8378,-7000,11000,357000,603045,
-8796,1884,16848,-5862,6679,8437,-7000,12000,357000,603048,
-8464,2008,17540,-5495,6317,8806,-7000,12000,358000,603060,
-8372,2156,17640,-5544,6224,8839,-7000,13000,358000,603063,
-8208,2144,17720,-5375,6245,8955,-7000,13000,358000,603065,
-7956,2528,18428,-5244,5970,9370,-8000,13000,359000,603077,
-8032,2540,18596,-5187,5927,9469,-8000,14000,359000,603080,
-8084,2472,18544,-5177,5860,9577,-8000,14000,359000,603082,
-8176,2212,18944,-4843,5540,9885,-8000,14000,0,603094,
-8168,2148,19016,-4639,5546,9965,-8000,15000,0,603097,
-8052,2168,19136,-4689,5425,9957,-8000,15000,0,603099,
-7884,1744,19844,-4110,5016,10010,-8000,15000,1000,603111,
-7804,1816,20060,-4176,4963,9990,-8000,15000,1000,603114,
-7812,1700,20184,-3950,5018,9982,-8000,16000,2000,603116,
-7104,1444,20676,-3520,5376,9904,-8000,16000,3000,603128,
-6848,1600,20612,-3408,5453,9897,-8000,16000,3000,603131,
-6760,1488,20592,-3268,5625,9955,-8000,16000,3000,603133,
-6940,1548,20072,-2807,6399,10188,-8000,17000,4000,603145,
-7048,1720,20232,-2571,6613,10244,-8000,17000,4000,603147,
-6992,1584,20120,-2644,6711,10220,-8000,17000,4000,603150,
-7276,1800,20004,-2303,7160,10303,-8000,18000,5000,603162,
-7388,1868,20036,-2365,7183,10290,-8000,18000,5000,603165,
-7340,1812,19768,-2266,7271,10294,-8000,19000,5000,603167,
-7788,1496,19752,-2254,7291,10361,-7000,19000,6000,603179,
-7892,1388,19668,-2400,7141,10352,-7000,20000,7000,603182,
-7972,1336,19640,-2306,7101,10397,-7000,20000,7000,603184,
-7936,716,19136,-2509,5988,10520,-7000,20000,8000,603196,
-7992,676,19072,-2401,5830,10554,-7000,21000,8000,603199,
-8120,624,18996,-2563,5474,10510,-7000,21000,8000,603201,
-8032,-132,18396,-2558,3598,10435,-7000,21000,9000,603213,
-8000,-144,18140,-2621,3198,10413,-7000,21000,9000,603216,
-7896,-288,18156,-2510,2813,10407,-7000,21000,10000,603218,
-7076,-616,18216,-2445,735,10125,-7000,22000,11000,603230,
-6976,-796,18276,-2548,380,10056,-7000,22000,11000,603233,
-6804,-876,18148,-2455,198,9991,-7000,22000,11000,603235,
-5464,-1088,18096,-2485,-787,9606,-6000,22000,12000,603248,
-5036,-1056,18244,-2328,-760,9572,-6000,22000,12000,603250,
-5048,-1136,18352,-2428,-839,9471,-6000,22000,12000,603252,
-3864,-1280,18620,-2187,-632,9135,-6000,22000,13000,603265,
-3704,-1272,18764,-2158,-533,9085,-6000,22000,13000,603267,
-3348,-1428,18876,-2116,-500,9006,-6000,22000,14000,603269,
-2776,-1888,19200,-1863,10,8700,-6000,22000,15000,603282,
-2760,-1900,19180,-1907,56,8642,-6000,22000,15000,603284,
-2708,-2000,19296,-1709,265,8605,-6000,22000,15000,603287,
-2256,-2384,19448,-1544,721,8296,-6000,22000,16000,603299,
-2108,-2488,19512,-1377,807,8251,-6000,22000,16000,603301,
-2192,-2476,19356,-1421,823,8139,-6000,22000,16000,603304,
-2200,-3008,19844,-890,906,7790,-5000,22000,17000,603316,
-2188,-3044,19880,-766,932,7694,-5000,22000,17000,603319,
-1984,-3024,19952,-702,871,7649,-5000,22000,17000,603321,
-1576,-2848,19852,-38,802,7145,-5000,22000,18000,603333,
-1580,-2812,19816,-81,718,7043,-5000,22000,18000,603336,
-1524,-2780,19992,166,758,6967,-5000,22000,18000,603338,
-1264,-2456,19792,537,848,6545,-5000,22000,19000,603351,
-1152,-2352,19952,740,927,6483,-5000,22000,19000,603353,
-1124,-2296,19900,693,937,6404,-5000,22000,19000,603355,
-1112,-2156,19776,1149,895,5945,-4000,22000,20000,603368,
-1284,-2252,19764,1279,920,5869,-4000,22000,20000,603370,
-1060,-2228,19764,1367,927,5766,-4000,22000,20000,603372,
-1596,-2316,19500,1794,779,5410,-4000,22000,20000,603385,
-1528,-2184,19440,1802,651,5308,-4000,22000,20000,603387,
-1556,-2336,19472,1953,645,5284,-4000,22000,21000,603389,
-1676,-2196,19048,2259,163,4892,-3000,22000,21000,603402,
-1704,-2148,18920,2465,157,4877,-3000,22000,21000,603404,
-1704,-2168,18972,2384,52,4764,-3000,22000,21000,603406,
-1980,-2060,18252,2787,-429,4411,-3000,22000,22000,603419,
-1940,-2124,18072,2834,-514,4391,-3000,22000,22000,603421,
-1944,-2140,17984,2871,-685,4277,-3000,22000,22000,603423,
-1764,-1780,17240,3220,-1182,3974,-2000,21000,22000,603436,
-1780,-1744,17344,3117,-1328,3890,-2000,21000,22000,603438,
-1756,-1752,16988,3318,-1306,3795,-2000,21000,22000,603441,
-1684,-1660,16172,3326,-1499,3345,-2000,21000,23000,603453,
-1780,-1552,16316,3377,-1513,3242,-1000,21000,23000,603455,
-1748,-1604,15988,3341,-1561,3196,-1000,21000,23000,603458,
-1580,-1324,14968,3306,-1578,2863,-1000,21000,23000,603470,
-1592,-1192,14764,3374,-1497,2903,-1000,21000,23000,603473,
-1748,-1220,14568,3235,-1549,2823,-1000,21000,23000,603475,
-1676,-996,13524,3170,-1642,2609,0,20000,24000,603487,
-1600,-828,13432,2966,-1712,2553,0,20000,24000,603490,
-1468,-804,13096,3066,-1709,2500,0,20000,24000,603492,
-1248,-584,12340,2615,-1988,2121,0,20000,24000,603504,
-1220,-456,12304,2549,-2083,2056,0,20000,24000,603507,
-1332,-496,12068,2467,-2080,2022,0,20000,24000,603509,
-1252,-56,11572,1969,-2355,1712,0,20000,24000,603521,
-1176,20,11360,1995,-2377,1652,0,20000,24000,603524,
-1188,248,11460,1769,-2494,1567,0,20000,24000,603526,
-1116,260,11400,1770,-2527,1515,0,20000,24000,603528,
-988,860,11212,1042,-2957,1047,0,19000,24000,603541,
-908,1004,11280,1056,-2956,978,0,19000,24000,603543,
-948,1064,11248,829,-3002,920,0,19000,24000,603545,
-800,1552,11216,193,-3051,382,0,19000,24000,603558,
-928,1496,11440,106,-3027,342,0,19000,24000,603560,
-968,1604,11328,-24,-3014,220,0,18000,24000,603562,
-712,1664,11336,-185,-2973,155,0,18000,24000,603565,
-600,1720,11668,-767,-2792,-388,0,18000,24000,603577,
-516,1608,11676,-703,-2634,-453,0,18000,24000,603579,
-696,1644,11556,-947,-2658,-546,0,18000,24000,603582,
-688,1904,12020,-1135,-2114,-788,0,18000,24000,603594,
-832,2036,12140,-1315,-2043,-842,0,18000,24000,603596,
-856,2216,12152,-1247,-1876,-890,0,18000,24000,603599,
-968,2416,12744,-1542,-1226,-1117,0,17000,24000,603611,
-1096,2324,13088,-1610,-1174,-1247,0,17000,24000,603613,
-1112,2316,12892,-1603,-1037,-1292,0,17000,24000,603616,
-1840,2208,13588,-1792,-776,-1698,0,17000,24000,603628,
-1820,2292,13616,-1652,-664,-1764,0,17000,24000,603630,
-1828,2340,13836,-1748,-704,-1792,0,17000,24000,603633,
-2276,1904,14196,-1548,-535,-1972,0,17000,24000,603645,
-2512,1832,14288,-1617,-551,-1951,0,17000,24000,603647,
-2664,1884,14380,-1487,-520,-1992,0,17000,24000,603650,
-2724,1936,14432,-1374,-514,-2079,0,17000,23000,603662,
-2680,2100,14508,-1418,-524,-2109,0,17000,23000,603665,
-2788,2040,14508,-1353,-454,-2083,0,17000,23000,603667,
-2604,2300,14844,-1392,-113,-2123,0,17000,23000,603679,
-2820,2240,14964,-1256,58,-2118,0,17000,23000,603682,
-2848,2320,14992,-1387,133,-2118,0,17000,23000,603684,
-3284,2164,15416,-1203,705,-2122,0,17000,23000,603696,
-3332,2060,15564,-1295,744,-2107,0,17000,23000,603698,
-3496,2124,15612,-1127,849,-2101,0,17000,23000,603701,
-4104,1888,15840,-1139,988,-2113,-1000,17000,23000,603713,
-4104,1900,15692,-1041,998,-2122,-1000,17000,23000,603715,
-4164,1820,15844,-1115,984,-2113,-1000,17000,23000,603718,
-4136,1780,15848,-1019,886,-2143,-1000,17000,22000,603730,
-4192,1844,15828,-890,942,-2075,-1000,17000,22000,603733,
-4240,1720,15884,-991,875,-2108,-1000,17000,22000,603735,
-4620,1976,15820,-727,953,-2021,-1000,17000,22000,603747,
-4624,2092,16052,-828,894,-2016,-1000,17000,22000,603750,
-4596,2016,15988,-714,939,-1977,-1000,17000,22000,603752,
-4784,2316,16172,-778,814,-1984,-1000,17000,22000,603764,
-4748,2232,16332,-700,751,-1996,-1000,17000,22000,603767,
-4984,2252,16500,-779,688,-1980,-1000,17000,22000,603769,
-5136,2072,16496,-714,465,-2014,-1000,17000,22000,603781,
-5240,1976,16360,-649,458,-1942,-1000,17000,22000,603784,
-5296,1868,16388,-632,398,-1968,-1000,17000,22000,603786,
-5116,1592,16352,-406,388,-1665,-1000,17000,21000,603798,
-5168,1604,16376,-474,354,-1693,-1000,17000,21000,603801,
-5072,1532,16420,-331,454,-1595,-1000,17000,21000,603803,
-5108,1624,16228,-305,433,-1346,-1000,17000,21000,603815,
-5136,1608,16108,-147,507,-1283,-1000,17000,21000,603818,
-5176,1628,16236,-284,444,-1262,-1000,17000,21000,603820,
-5208,1944,16180,-92,467,-1115,-1000,17000,21000,603832,
-5200,2108,16172,-72,498,-1041,-1000,17000,21000,603835,
-5256,2088,16120,-47,453,-1067,-1000,17000,21000,603837,
-5292,2024,16120,29,492,-882,-1000,17000,21000,603849,
-5432,1936,16144,-80,425,-888,-1000,17000,21000,603852,
-5284,2052,16224,63,510,-863,-1000,17000,21000,603854,
-5108,1908,16132,-51,370,-721,-1000,17000,21000,603866,
-4956,1876,16160,73,393,-713,-1000,17000,21000,603869,
-5060,1896,15988,-38,323,-654,-1000,17000,21000,603871,
-4880,1928,15792,6,261,-487,-1000,17000,21000,603883,
-5052,1880,15900,24,265,-422,-1000,18000,21000,603886,
-4928,1896,15940,50,218,-461,-1000,18000,21000,603888,
-4912,1848,15672,118,158,-419,-1000,18000,21000,603900,
-4792,1972,15596,-28,81,-457,-1000,18000,21000,603903,
-4704,1972,15676,98,162,-419,-1000,18000,21000,603905,
-4420,2068,15532,-55,78,-396,-1000,18000,21000,603917,
-4368,2104,15268,20,146,-460,-1000,18000,21000,603920,
-4552,2064,15380,-79,115,-424,-1000,18000,21000,603922,
-4464,2084,15032,-181,105,-466,-1000,18000,21000,603934,
-4320,2060,15172,-86,103,-444,-1000,18000,21000,603937,
-4444,2044,15196,-237,12,-464,-1000,18000,21000,603939,
-4176,2148,15188,-203,-176,-524,-1000,17000,21000,603951,
-4260,2052,15044,-294,-257,-525,-1000,17000,21000,603954,
-4136,2044,15156,-213,-263,-551,-1000,17000,21000,603956,
-4188,1812,15172,-314,-301,-549,-1000,17000,21000,603968,
-4140,1816,15236,-343,-323,-560,-1000,17000,21000,603971,
-4172,1752,14976,-373,-277,-528,-1000,17000,21000,603973,
-4024,1652,14944,-467,-168,-580,-1000,17000,21000,603985,
-3896,1692,14852,-351,-69,-501,-1000,17000,21000,603988,
-3956,1764,14968,-478,-86,-563,-1000,17000,21000,603990,
-3884,1676,14792,-423,190,-489,-1000,17000,21000,604002,
-3988,1568,14704,-536,206,-457,-1000,17000,21000,604005,
