Ax,Ay,Az,Gx,Gy,Gz,Roll,Pitch,Yaw,Timestamp,Target
-4492,-7492,13292,-533,748,-83,-34000,15000,108000,591367,
-4228,-7580,13336,-405,661,8,-34000,15000,108000,591380,
-4280,-7616,13232,-370,714,54,-34000,15000,108000,591382,
-4252,-7476,13384,-358,678,96,-34000,15000,108000,591385,
-4012,-7520,13328,-234,732,258,-34000,15000,108000,591397,
-4052,-7480,13440,-245,677,200,-34000,15000,108000,591399,
-4092,-7428,13572,-239,737,227,-34000,15000,108000,591402,
-4228,-7172,13684,-269,631,267,-34000,15000,108000,591414,
-4256,-7332,13624,-215,677,269,-34000,15000,108000,591417,
-4208,-7348,13740,-224,623,278,-34000,15000,108000,591419,
-4136,-7116,13748,-179,635,341,-34000,15000,108000,591431,
-4104,-7084,13712,-213,585,320,-34000,15000,108000,591434,
-4164,-7020,13640,-172,611,292,-34000,15000,108000,591436,
-4408,-6768,13748,-226,481,235,-34000,15000,108000,591449,
-4424,-6804,13812,-240,527,213,-34000,15000,108000,591451,
-4392,-6804,13696,-272,445,185,-34000,15000,10,-6992,
-3796,-7596,13808,-593,3834,-1279,-36000,11000,98000,600940,
0,0,0,0,0,0,-36000,11000,98000,600940,
-4680,-6584,13744,-504,5,-42,-34000,15000,108000,591488,
-4724,-6700,13704,-611,-315,-116,-34000,15000,108000,591500,
-4636,-6696,13524,-562,-239,-92,-34000,15000,108000,591503,
-4616,-6704,13688,-641,-349,-130,-34000,15000,108000,591505,
-4608,-6756,13544,-599,-426,-194,-34000,15000,108000,591518,
-4456,-6728,13516,-644,-543,-208,-34000,15000,108000,591520,
-4520,-6684,13524,-583,-483,-240,-34000,15000,108000,591522,
-4312,-6828,13500,-590,-554,-327,-34000,15000,108000,591535,
-4400,-6952,13472,-563,-477,-340,-34000,15000,108000,591537,
-4348,-6864,13468,-584,-546,-370,-34000,15000,108000,591540,
-4240,-6888,13524,-502,-427,-441,-34000,15000,108000,591552,
-4244,-6980,13548,-451,-393,-439,-34000,15000,108000,591555,
-4252,-7012,13504,-469,-333,-479,-34000,15000,108000,591557,
-4184,-6992,13536,-348,-184,-538,-34000,15000,108000,591570,
-4184,-7000,13636,-372,-149,-569,-34000,15000,108000,591572,
-4216,-6844,13668,-341,-122,-598,-34000,15000,108000,591574,
-4332,-7024,13616,-289,-5,-605,-34000,15000,108000,591587,
-4340,-6980,13732,-244,67,-585,-34000,15000,108000,591589,
-4304,-7028,13740,-271,78,-590,-34000,15000,108000,591592,
-4476,-6784,13696,-181,156,-525,-34000,15000,108000,591604,
-4332,-6816,13712,-231,131,-495,-34000,15000,108000,591607,
-4436,-6800,13780,-171,112,-478,-34000,15000,108000,591609,
-4296,-6516,13768,-266,58,-381,-34000,15000,108000,591621,
-4364,-6536,13808,-215,91,-369,-34000,15000,108000,591624,
-4408,-6472,13876,-277,21,-356,-34000,15000,108000,591626,
-4372,-6420,13928,-277,-114,-309,-34000,15000,108000,591638,
-4284,-6540,13864,-353,-157,-298,-34000,15000,108000,591641,
-4336,-6532,13860,-352,-238,-265,-34000,15000,108000,591643,
-4020,-6440,13876,-490,-410,-243,-34000,15000,108000,591656,
-4200,-6304,13892,-488,-469,-178,-34000,15000,108000,591658,
-4088,-6272,13928,-520,-507,-219,-34000,15000,108000,591660,
-3976,-6288,13676,-680,-689,-216,-34000,15000,108000,591673,
-3952,-6300,13868,-684,-677,-244,-34000,15000,108000,591675,
-3944,-6280,13872,-745,-751,-195,-34000,15000,108000,591678,
-3928,-6548,13840,-855,-662,-282,-34000,15000,108000,591690,
-3752,-6580,13824,-895,-725,-264,-34000,15000,108000,591693,
-3920,-6632,13820,-866,-672,-280,-34000,15000,108000,591695,
-3868,-6816,13784,-905,-617,-284,-34000,14000,108000,591707,
-3888,-6848,13740,-938,-651,-270,-34000,14000,108000,591710,
-3936,-6912,13844,-915,-588,-282,-34000,14000,108000,591712,
-3968,-7068,13652,-964,-546,-216,-34000,14000,108000,591725,
-3904,-7088,13736,-924,-466,-206,-34000,14000,108000,591727,
-3720,-7116,13876,-980,-492,-219,-34000,14000,108000,591730,
-3992,-7144,13812,-856,-264,-184,-34000,14000,108000,591742,
-3900,-7232,13564,-848,-339,-182,-34000,14000,108000,591745,
-3888,-7148,13560,-814,-233,-141,-34000,14000,108000,591747,
-3888,-7256,13432,-819,-134,-151,-34000,14000,108000,591759,
-3920,-7244,13520,-738,-112,-115,-34000,14000,108000,591762,
-3964,-7236,13472,-752,-104,-108,-34000,14000,108000,591764,
-3972,-7212,13500,-608,10,-110,-34000,14000,108000,591777,
-3968,-7156,13584,-656,-28,-114,-34000,14000,108000,591779,
-4032,-7312,13492,-583,-22,-138,-34000,14000,108000,591781,
-4112,-7216,13700,-577,-31,-140,-34000,14000,108000,591794,
-4208,-7228,13744,-499,4,-132,-34000,14000,108000,591796,
-4140,-7192,13800,-503,4,-154,-34000,14000,108000,591799,
-4016,-7092,13824,-418,121,-121,-34000,14000,108000,591811,
-3964,-7124,13804,-385,201,-120,-34000,14000,108000,591813,
-4020,-7032,13680,-397,182,-159,-34000,14000,108000,591816,
-3848,-6984,13804,-338,471,-153,-34000,14000,108000,591828,
-3948,-6968,13872,-298,497,-167,-34000,14000,108000,591831,
-3884,-7024,13912,-310,612,-177,-34000,14000,108000,591833,
-3952,-6924,13772,-286,801,-236,-34000,14000,108000,591846,
-3976,-6872,13776,-236,871,-221,-34000,14000,108000,591848,
-3900,-6816,13784,-258,865,-236,-34000,14000,108000,591850,
-4012,-6872,13704,-211,1025,-241,-34000,14000,108000,591863,
-4080,-6760,13680,-265,994,-250,-34000,14000,108000,591865,
-4104,-6916,13644,-194,1044,-242,-34000,14000,108000,591868,
-4292,-6760,13536,-261,944,-225,-34000,15000,108000,591880,
-4404,-6736,13720,-217,973,-216,-34000,15000,108000,591883,
-4408,-6716,13700,-252,895,-211,-34000,15000,108000,591885,
-4468,-6748,13616,-266,771,-200,-34000,15000,108000,591898,
-4520,-6708,13656,-314,632,-188,-34000,15000,108000,591900,
-4624,-6732,13648,-254,628,-194,-34000,15000,108000,591902,
-4652,-6692,13644,-400,259,-198,-34000,15000,108000,591915,
-4640,-6716,13596,-359,300,-171,-34000,15000,108000,591917,
-4552,-6696,13660,-417,142,-194,-34000,15000,108000,591920,
-4488,-6756,13608,-453,-121,-185,-34000,15000,108000,591932,
-4748,-6728,13692,-508,-230,-170,-34000,15000,108000,591935,
-4560,-6732,13564,-463,-224,-174,-34000,15000,108000,591937,
-4500,-6816,13704,-564,-525,-173,-34000,15000,108000,591949,
-4428,-6884,13764,-556,-515,-161,-34000,15000,108000,591952,
-4356,-6908,13764,-599,-636,-175,-34000,15000,108000,591954,
-4228,-6976,13704,-598,-685,-104,-34000,15000,108000,591967,
-4344,-6868,13736,-557,-707,-105,-34000,15000,108000,591969,
-4160,-6968,13772,-610,-694,-122,-34000,15000,108000,591971,
-3936,-6948,13664,-577,-601,-105,-34000,14000,108000,591984,
-3896,-6880,13756,-627,-632,-98,-34000,14000,108000,591986,
-3912,-6976,13684,-607,-549,-70,-34000,14000,108000,591989,
-3856,-7012,13880,-572,-416,-95,-34000,14000,108000,592001,
-3744,-6940,13636,-555,-334,-85,-34000,14000,108000,592004,
-3808,-6940,13820,-561,-349,-68,-34000,14000,108000,592006,
-3872,-6908,13636,-557,-202,-78,-34000,14000,108000,592019,
-3976,-7020,13748,-463,-135,-100,-34000,14000,108000,592021,
-3988,-7024,13684,-531,-116,-66,-34000,14000,108000,592023,
-4012,-7000,13984,-451,33,-89,-34000,14000,108000,592036,
-4032,-6984,13872,-483,64,-66,-34000,14000,108000,592038,
-4040,-7008,13892,-441,57,-60,-34000,14000,108000,592040,
-4060,-7000,13864,-423,170,-80,-34000,14000,108000,592053,
-4008,-7120,13856,-381,218,-40,-34000,14000,108000,592055,
-3992,-6912,13696,-447,235,-49,-34000,14000,108000,592057,
-3980,-6860,13748,-396,238,-83,-34000,14000,108000,592070,
-4036,-6944,13812,-425,245,-74,-34000,14000,108000,592072,
-4148,-6896,13884,-360,253,-103,-34000,14000,108000,592075,
-3992,-7004,13632,-482,187,-139,-34000,14000,108000,592087,
-4016,-6988,13572,-380,227,-141,-34000,14000,108000,592090,
-3980,-6908,13744,-448,196,-161,-34000,14000,108000,592092,
-4048,-6952,13684,-392,212,-202,-34000,14000,108000,592105,
-4080,-6848,13616,-452,196,-194,-34000,14000,108000,592107,
-4040,-6924,13692,-392,188,-199,-34000,14000,108000,592109,
-4004,-6808,13592,-413,45,-291,-34000,14000,108000,592122,
-4004,-6756,13584,-365,99,-299,-34000,14000,108000,592124,
-3904,-6820,13432,-420,12,-332,-34000,14000,108000,592127,
-3896,-6636,13752,-369,-51,-469,-34000,14000,108000,592139,
-4004,-6672,13404,-399,-103,-520,-34000,14000,108000,592141,
-3912,-6620,13464,-331,-154,-562,-34000,14000,108000,592144,
-4300,-6588,13592,-423,-449,-790,-34000,14000,108000,592156,
-4440,-6696,13684,-435,-584,-824,-34000,14000,108000,592159,
-4436,-6544,13728,-518,-655,-837,-34000,14000,108000,592161,
-4452,-6720,13644,-614,-997,-783,-34000,14000,108000,592174,
-4460,-6852,13828,-653,-1034,-786,-34000,14000,108000,592176,
-4552,-6808,13908,-639,-1145,-798,-34000,14000,108000,592178,
-4344,-6960,13688,-640,-1435,-794,-34000,14000,108000,592191,
-4456,-6848,13700,-643,-1528,-759,-34000,14000,108000,592193,
-4384,-6980,13736,-674,-1582,-755,-34000,14000,108000,592196,
-4152,-6876,13664,-641,-1787,-687,-34000,14000,108000,592208,
-4196,-6828,13632,-674,-1815,-674,-34000,14000,108000,592211,
-4112,-6732,13708,-637,-1858,-649,-34000,14000,108000,592213,
-3956,-6668,13664,-699,-1919,-724,-34000,13000,108000,592226,
-4064,-6696,13740,-711,-1987,-775,-34000,13000,108000,592228,
-3868,-6784,13712,-734,-2056,-784,-34000,13000,108000,592230,
-4064,-6848,13904,-774,-2113,-822,-34000,13000,108000,592243,
-3996,-6788,13768,-849,-2188,-795,-34000,13000,108000,592245,
-4008,-6872,14084,-864,-2401,-863,-34000,13000,108000,592258,
-4116,-6836,13892,-952,-2439,-878,-34000,13000,108000,592260,
-4052,-6844,13928,-928,-2459,-861,-34000,13000,108000,592262,
-4048,-6812,14076,-1029,-2781,-916,-34000,13000,109000,592275,
-4088,-6800,13980,-1026,-2796,-909,-34000,12000,109000,592277,
-4044,-6728,13976,-1036,-2878,-929,-34000,12000,109000,592280,
-4052,-6924,13876,-1093,-3156,-911,-34000,12000,109000,592292,
-3960,-6896,13956,-1108,-3276,-925,-34000,12000,109000,592294,
-3808,-6840,13900,-1084,-3278,-914,-34000,12000,109000,592297,
-3756,-6912,13900,-1155,-3650,-945,-34000,12000,109000,592309,
-3676,-7004,13864,-1153,-3693,-913,-34000,12000,109000,592312,
-3344,-7080,14012,-1106,-3894,-904,-34000,11000,109000,592324,
-3336,-6964,13824,-1153,-4005,-866,-34000,11000,109000,592327,
-3308,-7064,13712,-1092,-3969,-845,-34000,11000,109000,592329,
-2920,-7064,14016,-1083,-3914,-863,-34000,11000,109000,592342,
-2788,-6944,14100,-1100,-3990,-895,-34000,11000,109000,592344,
-2980,-6964,13932,-1059,-3955,-912,-34000,11000,109000,592346,
-2656,-7020,14020,-1001,-3904,-938,-34000,10000,110000,592359,
-2624,-6980,14172,-975,-3888,-893,-34000,10000,110000,592361,
-2632,-6936,13892,-960,-3752,-931,-34000,10000,110000,592364,
-2564,-6684,14032,-924,-3933,-1264,-34000,10000,110000,592376,
-2656,-6704,14120,-947,-3927,-1284,-34000,10000,110000,592379,
-2388,-6580,14212,-908,-3473,-1161,-34000,9000,110000,592391,
-2412,-6564,14452,-788,-3476,-1103,-34000,9000,110000,592393,
-2164,-6364,14472,-743,-3364,-1035,-34000,9000,110000,592396,
-2248,-6484,14276,-764,-2941,-1362,-34000,9000,110000,592408,
-2452,-6316,14348,-675,-3062,-1429,-34000,9000,110000,592411,
-2476,-6364,14440,-633,-3145,-1490,-34000,9000,110000,592413,
-3112,-7512,13944,-490,-4036,-1834,-34000,8000,110000,592426,
-3304,-7288,13244,-426,-4193,-1683,-34000,8000,110000,592428,
-3368,-7200,13116,-711,-4336,-1504,-34000,8000,110000,592430,
-2816,-6968,14540,-998,-5536,-1560,-34000,8000,110000,592443,
-2920,-6740,14316,-1205,-5731,-1565,-34000,8000,110000,592445,
-2952,-6428,14340,-1276,-5785,-1476,-34000,8000,110000,592448,
-1952,-6252,14124,-886,-6886,-1199,-34000,7000,111000,592460,
-1632,-6340,14748,-576,-6822,-1251,-34000,7000,111000,592462,
-676,-6264,14588,-763,-6301,-1367,-34000,6000,111000,592475,
-588,-6264,14496,-683,-6086,-1366,-34000,6000,111000,592477,
-516,-6168,14316,-707,-5799,-1317,-34000,6000,111000,592480,
-436,-5668,14180,-670,-4276,-1161,-34000,6000,111000,592492,
-332,-5852,13844,-677,-3785,-1193,-34000,5000,111000,592495,
-128,-6172,14084,-756,-3599,-1293,-34000,5000,111000,592497,
-324,-6288,14200,-903,-2429,-1900,-34000,5000,111000,592510,
-640,-6356,15620,-747,-2384,-1872,-34000,5000,111000,592512,
-660,-6512,15752,-586,-2151,-1871,-34000,5000,111000,592514,
-1028,-6184,16392,-710,-1485,-1664,-34000,5000,111000,592527,
-1112,-6060,16260,-831,-1455,-1688,-34000,5000,111000,592529,
-1100,-5840,16328,-937,-1537,-1689,-34000,5000,111000,592531,
-1124,-5636,16924,-1091,-1510,-1885,-34000,4000,111000,592544,
-1116,-5684,16800,-1279,-1611,-1894,-34000,4000,111000,592546,
-1140,-5424,17036,-1378,-1556,-1894,-34000,4000,111000,592549,
-504,-5460,17368,-1500,-1233,-1791,-34000,4000,111000,592561,
-228,-5548,17224,-1417,-961,-1758,-34000,4000,111000,592563,
-208,-5656,17072,-1490,-1039,-1750,-34000,4000,111000,592566,
808,-6036,17704,-902,-167,-1907,-34000,4000,111000,592578,
808,-5504,18568,-763,3,-1963,-34000,4000,111000,592581,
1340,-6000,18364,-713,326,-2034,-34000,4000,111000,592583,
1856,-6416,20476,-945,2364,-2660,-34000,4000,110000,592596,
1948,-6360,21052,-948,2799,-2826,-34000,4000,110000,592598,
1844,-6660,21608,-1001,3124,-3029,-34000,4000,110000,592600,
1336,-7480,23408,-1115,4530,-3945,-34000,4000,110000,592613,
1124,-7644,24340,-1492,4524,-4020,-34000,4000,110000,592615,
716,-8052,24648,-1702,4766,-4168,-34000,4000,110000,592617,
-568,-10508,26836,-1025,6479,-4789,-34000,4000,109000,592630,
-1024,-10896,26972,-892,6748,-4783,-34000,4000,109000,592632,
-2612,-11680,28800,283,8165,-4341,-34000,5000,108000,592645,
-3024,-11412,29152,687,8344,-4219,-34000,5000,108000,592647,
-3208,-11356,29252,1020,8667,-4039,-34000,5000,108000,592650,
-4800,-11256,31164,3750,7945,-3091,-34000,5000,107000,592662,
-5148,-11328,31244,4272,7764,-2856,-34000,5000,107000,592665,
-5464,-11384,31436,4807,7443,-2621,-34000,5000,107000,592667,
-7148,-11772,32692,7897,4636,-974,-33000,6000,106000,592680,
-7360,-11908,32767,8474,4139,-590,-33000,6000,106000,592682,
-7672,-12020,32767,9061,3519,-152,-33000,6000,106000,592684,
-10292,-11828,32767,11769,1075,1393,-31000,6000,106000,592697,
-9344,-11912,32767,11957,-88,1559,-31000,6000,106000,592699,
-9508,-11984,32767,12292,-530,1905,-31000,6000,106000,592701,
-10256,-12340,32767,14569,-3625,3526,-29000,6000,107000,592714,
-10256,-12480,32767,15032,-4311,3947,-29000,6000,107000,592716,
-10308,-12556,32767,15289,-4800,4279,-29000,6000,107000,592719,
-9784,-12556,32767,16925,-7950,5724,-27000,6000,108000,592731,
-9760,-12500,32767,17105,-8457,5809,-27000,6000,108000,592734,
-9900,-12324,32767,18106,-11719,6271,-25000,5000,109000,592746,
-9936,-12316,32767,18174,-12333,6234,-25000,5000,109000,592749,
-9964,-12484,32767,18348,-12960,6176,-24000,5000,110000,592751,
-10172,-13024,31416,19199,-15829,5945,-22000,4000,111000,592764,
-10064,-13240,31172,19396,-16317,5892,-22000,3000,111000,592766,
-10064,-13404,30856,19480,-16679,5870,-22000,3000,111000,592768,
-9572,-14376,29148,20868,-18990,5538,-20000,2000,112000,592781,
-9488,-14596,28972,21123,-19185,5474,-19000,1000,113000,592783,
-8604,-15432,26484,23159,-19959,5322,-17000,0,114000,592796,
-8408,-15536,26180,23528,-19797,5277,-17000,0,114000,592798,
-8096,-15664,25740,23980,-19882,5267,-16000,0,114000,592800,
-7008,-15740,22908,26542,-19191,5221,-14000,-1000,115000,592813,
-6648,-15708,22308,26986,-19039,5270,-13000,-2000,115000,592815,
-6120,-15668,21328,27532,-18789,5293,-13000,-2000,115000,592817,
-4400,-14536,17904,29618,-17214,5594,-10000,-3000,116000,592830,
-3964,-14276,17556,30110,-16948,5635,-10000,-4000,116000,592832,
-2288,-12604,13968,30940,-15197,5603,-7000,-5000,117000,592845,
-2104,-12328,13660,31234,-14983,5633,-6000,-5000,117000,592847,
-1712,-12036,12928,31290,-14591,5608,-6000,-5000,117000,592850,
-272,-10704,9844,31625,-13449,5678,-3000,-6000,118000,592862,
-64,-10340,9264,31475,-13259,5691,-3000,-7000,118000,592864,
-516,-10132,9136,31710,-13525,5853,-2000,-7000,118000,592867,
1488,-8260,6012,30853,-12242,5688,0,-8000,119000,592879,
1896,-7828,5580,30575,-12104,5655,0,-8000,119000,592882,
-3048,-6908,14744,3191,-2063,-979,-33000,10000,98000,601477,
-2772,-6876,14588,3349,-1630,-1045,-33000,10000,98000,601490,
-2716,-6968,14568,3328,-1541,-1050,-33000,10000,98000,601492,
-2580,-7016,14636,3466,-1428,-1019,-33000,10000,98000,601494,
-2300,-7156,14568,3946,-865,-1034,-33000,10000,98000,601507,
-2360,-7132,14484,4070,-689,-1048,-32000,10000,98000,601509,
-2292,-7104,14568,4094,-594,-1065,-32000,10000,98000,601512,
-2552,-6796,14376,4364,-149,-1156,-32000,10000,98000,601524,
-2528,-6784,14380,4373,-102,-1182,-32000,10000,98000,601527,
-2636,-6828,14424,4413,-13,-1186,-32000,10000,98000,601529,
-2888,-6316,14288,3999,281,-1056,-31000,10000,98000,601541,
-2848,-6224,14368,3901,422,-988,-31000,10000,98000,601544,
-2864,-6116,14328,3762,420,-915,-31000,10000,98000,601546,
-2744,-6152,14076,2999,795,-773,-31000,10000,98000,601559,
-2588,-6160,14096,2816,841,-789,-31000,10000,98000,601561,
-2596,-6176,14320,2664,938,-795,-31000,10000,98000,601563,
-2148,-5588,14472,1978,1494,-747,-31000,10000,98000,601576,
-2044,-5480,14284,1755,1661,-669,-30000,10000,98000,601578,
-2088,-5352,14272,1588,1869,-600,-30000,10000,98000,601581,
-1356,-5520,13988,730,2929,-701,-30000,10000,97000,601593,
-1148,-5496,13904,572,3413,-752,-30000,10000,97000,601595,
-980,-5532,13908,300,3757,-841,-30000,10000,97000,601598,
-1240,-5620,13612,-506,4991,-1354,-30000,10000,97000,601610,
-1264,-5528,13472,-666,5054,-1447,-30000,11000,97000,601613,
-1320,-5720,13644,-830,5048,-1575,-30000,11000,97000,601615,
-1796,-5528,13796,-1538,5879,-2051,-31000,11000,96000,601628,
-1812,-5496,13804,-1681,6079,-2066,-31000,11000,96000,601630,
-2072,-5468,13496,-1881,6240,-2076,-31000,11000,96000,601633,
-2528,-5572,13812,-3049,7213,-1835,-31000,12000,96000,601645,
-2300,-5712,13252,-3279,7338,-1878,-31000,12000,96000,601647,
-2352,-5684,13240,-3561,7113,-1887,-31000,12000,95000,601650,
-2616,-5872,13048,-4894,8320,-2285,-32000,12000,95000,601662,
-2728,-5876,12752,-5065,8124,-2460,-32000,12000,95000,601665,
-3140,-6156,12688,-5091,7948,-2549,-32000,13000,95000,601667,
-4680,-6428,12916,-5514,9352,-2580,-33000,13000,94000,601680,
-5188,-6600,13200,-5564,9304,-2448,-33000,13000,94000,601682,
-7332,-7956,14424,-4557,6825,-1766,-33000,14000,93000,601694,
-7944,-8236,14388,-4242,6278,-1671,-33000,14000,93000,601697,
-8048,-8592,14516,-3810,5512,-1627,-33000,14000,93000,601699,
-9604,-9200,14592,-1452,1108,-764,-34000,14000,93000,601712,
-8680,-9056,14464,-1034,-147,-637,-34000,14000,93000,601714,
-8804,-8928,14236,-917,-792,-341,-34000,14000,93000,601716,
-6132,-7420,13568,-851,-1453,813,-34000,14000,93000,601729,
-5656,-7224,13548,-900,-1511,902,-34000,14000,93000,601731,
-5024,-7112,13500,-867,-1546,966,-34000,14000,93000,601734,
-3548,-6908,13072,-660,-1517,317,-34000,14000,93000,601746,
-3424,-6820,12948,-526,-1559,195,-34000,14000,93000,601749,
-3492,-6888,12812,-462,-1533,47,-34000,14000,93000,601751,
-3556,-6960,12544,224,-1256,-71,-34000,14000,93000,601764,
-3416,-7060,12316,394,-1207,-42,-34000,14000,93000,601766,
-3292,-7232,12484,640,-1152,-30,-34000,14000,93000,601768,
-2800,-7420,12232,1986,-498,252,-33000,14000,94000,601781,
-2752,-7280,12360,2200,-419,331,-33000,14000,94000,601783,
-2760,-7308,12452,2393,-215,368,-33000,14000,94000,601785,
-3700,-7364,14104,3669,99,303,-33000,14000,94000,601798,
-4060,-7492,14228,3908,138,201,-33000,14000,94000,601800,
-4396,-7528,14352,4107,20,124,-33000,14000,94000,601802,
-6148,-7788,14968,4829,-1086,122,-32000,14000,94000,601815,
-6360,-7736,15120,4990,-1350,211,-32000,14000,94000,601817,
-6556,-7836,15148,5072,-1658,241,-32000,14000,94000,601819,
-6996,-7788,15828,6145,-3701,740,-31000,13000,94000,601832,
-6664,-7780,15948,6268,-3811,832,-31000,13000,94000,601834,
-6716,-7788,16192,6478,-4407,917,-31000,13000,94000,601837,
-4900,-7264,16320,7552,-6673,869,-30000,13000,94000,601849,
-4720,-7272,16308,7583,-6871,890,-30000,13000,95000,601851,
-4480,-7112,16080,7660,-6826,814,-30000,13000,95000,601854,
-3152,-7020,15184,7429,-6354,617,-29000,12000,95000,601866,
-2896,-7592,15600,7144,-5924,397,-29000,12000,95000,601868,
-2852,-7128,16332,7290,-5595,365,-29000,12000,95000,601871,
-2748,-5544,15200,6854,-4423,932,-28000,12000,95000,601883,
-2704,-5108,15156,6812,-4150,1082,-28000,12000,95000,601886,
-2700,-4332,15188,6952,-3917,1368,-28000,12000,96000,601888,
-2632,-4072,14488,5995,-3598,1544,-27000,11000,96000,601901,
-2368,-4616,14112,5786,-3606,1276,-27000,11000,96000,601903,
-2464,-4784,14096,5615,-3771,857,-27000,11000,96000,601906,
-3204,-3964,13740,5119,-5513,-361,-26000,11000,96000,601918,
-3292,-3920,13712,4929,-5851,-237,-26000,11000,96000,601920,
-3376,-3616,13492,4698,-6160,-66,-26000,11000,96000,601923,
-2212,-3944,13268,2945,-6284,-141,-25000,10000,97000,601935,
-2048,-3760,13100,2762,-6498,-242,-25000,10000,97000,601938,
-2064,-3724,12920,2485,-6401,-267,-25000,10000,97000,601940,
-1132,-3172,12324,648,-6086,-963,-25000,9000,97000,601953,
-1176,-3204,11972,297,-6105,-1077,-25000,9000,97000,601955,
-1128,-3072,11452,-74,-5988,-1196,-25000,9000,97000,601957,
-568,-2328,10604,-3416,-5355,-1751,-25000,8000,97000,601970,
-424,-2144,10020,-4059,-5063,-1879,-25000,8000,97000,601972,
-408,-1820,9672,-4862,-4561,-2013,-25000,8000,97000,601975,
-244,-1620,9180,-8640,-2568,-2863,-26000,8000,97000,601987,
-208,-1512,8832,-9476,-2063,-3013,-26000,8000,97000,601990,
-336,-1296,8056,-10373,-1463,-3146,-27000,8000,97000,601992,
-56,-3008,13796,-12911,2163,-3944,-28000,8000,96000,602005,
228,-3524,14184,-12358,2167,-4161,-28000,8000,96000,602007,
-220,-4272,15144,-11682,1698,-4460,-28000,8000,96000,602009,
-5116,-8368,20792,-7029,-407,-5173,-29000,7000,96000,602022,
-4836,-8540,20336,-5946,-535,-4948,-29000,7000,96000,602024,
-6224,-8612,18848,-5445,-468,-4559,-29000,7000,96000,602026,
-5108,-7592,19560,-3939,-1305,-1857,-29000,7000,96000,602039,
-6244,-7524,18708,-3597,-738,-1405,-29000,7000,96000,602041,
-5608,-7328,20512,-3240,-1543,-1188,-30000,7000,96000,602044,
-3276,-5716,19116,-2837,-1173,-1007,-30000,7000,96000,602056,
-3248,-5572,18452,-2712,-1027,-1116,-30000,7000,96000,602059,
-2944,-5484,18228,-2597,-1037,-1335,-30000,7000,96000,602061,
-2712,-5056,16636,-2609,-1430,-2017,-30000,7000,95000,602073,
-2676,-4852,16432,-2643,-1728,-2021,-30000,7000,95000,602076,
-2708,-4716,16216,-2648,-1893,-2007,-30000,7000,95000,602078,
-2648,-3124,15752,-3329,-3248,-1604,-30000,6000,95000,602091,
-2560,-2880,15988,-3310,-3600,-1489,-30000,6000,95000,602093,
-1524,-1944,16704,-3742,-5824,-1591,-30000,6000,96000,602106,
-1356,-1900,16820,-3713,-6088,-1657,-30000,5000,96000,602108,
-1120,-2008,16864,-3794,-6348,-1728,-31000,5000,96000,602110,
512,-3064,19064,-4138,-5960,-1931,-31000,5000,96000,602123,
708,-3272,19404,-4057,-5931,-2002,-31000,5000,96000,602125,
1032,-3568,19568,-3978,-5663,-2114,-31000,5000,96000,602127,
2176,-4748,21660,-3892,-2887,-3091,-31000,4000,96000,602140,
2196,-4616,21952,-3766,-2456,-3108,-31000,4000,96000,602142,
2184,-4680,22212,-3867,-2138,-3174,-31000,4000,96000,602145,
2516,-5712,23628,-4351,2150,-3977,-32000,4000,95000,602157,
2916,-6180,24208,-4390,3166,-4189,-32000,4000,95000,602160,
2860,-6604,24280,-4419,3919,-4406,-32000,4000,95000,602162,
2164,-7224,25508,-4465,9116,-5041,-32000,4000,94000,602174,
1800,-7560,25820,-4545,10229,-5017,-32000,4000,94000,602177,
1820,-7800,26004,-4439,11362,-5117,-32000,4000,94000,602179,
-660,-9440,26632,-2761,15295,-5727,-33000,5000,93000,602192,
-900,-9668,26936,-2478,15786,-5684,-33000,6000,92000,602194,
-1008,-9924,26580,-2103,16416,-5756,-33000,6000,92000,602196,
-5096,-11120,26808,-239,15604,-5516,-33000,7000,91000,602209,
-5688,-11140,26940,210,14922,-5412,-33000,7000,91000,602211,
-6500,-11192,26768,549,14224,-5215,-33000,7000,90000,602214,
-9384,-11752,26660,3056,9394,-4031,-33000,8000,90000,602226,
-9508,-11672,26640,3573,8358,-3819,-32000,8000,90000,602229,
-10396,-11792,26576,4252,7111,-3515,-32000,8000,89000,602231,
-12520,-11900,25696,7464,1343,-1428,-32000,8000,89000,602243,
-10460,-11604,26260,8220,-680,-1091,-32000,8000,89000,602246,
-12792,-11896,26860,8877,-186,-608,-31000,8000,89000,602248,
-10232,-12136,25964,11950,-4691,1588,-30000,8000,90000,602261,
-9560,-11964,25672,12336,-5040,1961,-30000,8000,90000,602263,
-7384,-11420,25632,13933,-6226,3069,-28000,7000,90000,602276,
-7028,-11252,25500,14074,-6218,3159,-28000,7000,90000,602278,
-6848,-10996,25440,14337,-6358,3261,-28000,7000,90000,602280,
-5964,-10212,24656,14906,-5614,3717,-26000,7000,91000,602293,
-5908,-10024,24680,14993,-5563,3803,-26000,7000,91000,602295,
-5876,-10072,24496,15003,-5289,3999,-26000,7000,91000,602297,
-5324,-9788,23928,15253,-3862,4788,-24000,7000,92000,602310,
-5360,-9800,23720,15215,-3481,4878,-24000,7000,92000,602312,
-5152,-9768,23672,15346,-3225,4987,-24000,7000,92000,602315,
-4848,-9660,23512,15588,-1707,4945,-22000,7000,93000,602327,
-4896,-9580,23308,15680,-1490,4855,-22000,7000,93000,602330,
-4908,-9704,23184,15721,-1454,4827,-21000,7000,93000,602332,
-5492,-9804,22548,16180,-1692,4271,-20000,7000,93000,602345,
-5676,-9836,22448,16379,-2061,4213,-20000,7000,93000,602347,
-5796,-9944,22276,16419,-2250,4080,-19000,7000,93000,602349,
-6364,-9852,21192,17145,-4246,4046,-18000,7000,94000,602362,
-6476,-9680,21108,17250,-4534,4091,-17000,7000,94000,602364,
-6616,-9596,20956,17425,-5068,4078,-17000,7000,94000,602367,
-6284,-8964,19892,17833,-7433,4233,-15000,6000,95000,602379,
-6112,-8772,19712,17847,-7936,4282,-15000,6000,95000,602381,
-6140,-8748,19812,17920,-8161,4318,-15000,6000,95000,602384,
-4976,-8260,19144,17989,-9922,4570,-13000,5000,95000,602396,
-4604,-8352,18972,18000,-10091,4582,-12000,5000,96000,602399,
-4452,-8212,18524,17915,-10373,4642,-12000,5000,96000,602401,
-3204,-7900,17588,17878,-10418,4914,-10000,4000,96000,602414,
-2956,-7628,17588,17780,-10341,4949,-10000,4000,97000,602416,
-1804,-7320,17224,17390,-8575,4711,-8000,3000,97000,602429,
-1624,-7464,17092,17223,-8299,4568,-8000,3000,97000,602431,
-1524,-7620,16932,17173,-7961,4471,-8000,3000,97000,602433,
-1068,-7704,16284,16963,-5898,3861,-6000,2000,98000,602446,
-1212,-7604,16140,16970,-5264,3717,-6000,2000,98000,602448,
-1204,-7400,15984,16997,-4825,3573,-6000,2000,98000,602451,
-1636,-7380,14776,17287,-2923,3535,-4000,2000,98000,602463,
-1772,-7476,14264,17348,-2759,3585,-4000,2000,98000,602466,
-1808,-7248,14208,17461,-2540,3582,-4000,2000,98000,602468,
-2276,-6336,12980,17954,-2936,3304,-2000,2000,99000,602480,
-2220,-6288,12880,18225,-3071,3179,-2000,1000,99000,602483,
-2460,-6244,12448,18314,-3267,3069,-1000,1000,99000,602485,
-2356,-6188,10820,19028,-4290,2318,0,1000,99000,602498,
-2164,-6340,10424,19166,-4670,2265,0,1000,99000,602500,
-2096,-6228,10144,19480,-4879,2187,0,1000,99000,602502,
-952,-6128,8360,20935,-6238,2452,2000,0,99000,602515,
-668,-5640,7712,21114,-6226,2551,2000,0,99000,602517,
-524,-5196,6828,21078,-6077,2566,2000,0,99000,602520,
-328,-4848,6788,21212,-6109,2696,3000,0,99000,602522,
820,-2848,5120,21844,-6474,2810,5000,0,100000,602534,
984,-2748,5408,22042,-6595,2802,5000,0,100000,602537,
1360,-2376,5108,21961,-6362,2733,5000,0,100000,602539,
2304,-356,3512,21014,-6288,2626,7000,-1000,100000,602552,
2392,-8,3404,20765,-6199,2496,8000,-1000,100000,602554,
2332,-52,3352,20785,-6045,2516,8000,-1000,100000,602556,
3172,672,2536,20018,-5845,2024,10000,-2000,100000,602569,
3256,808,2292,19878,-5790,1964,10000,-2000,100000,602571,
3324,996,2140,19480,-5739,1915,11000,-2000,100000,602574,
3872,1548,1844,18266,-4993,1369,12000,-3000,100000,602586,
3856,1716,1888,18007,-4857,1215,13000,-3000,100000,602588,
3740,1776,1932,17814,-4629,1097,13000,-3000,100000,602591,
3648,2440,2092,15813,-3329,469,15000,-4000,100000,602603,
3476,2704,2192,15322,-2993,369,15000,-4000,100000,602606,
3452,2800,2284,14979,-2863,231,15000,-4000,100000,602608,
2204,3712,2688,12788,-1318,-691,17000,-4000,100000,602620,
1792,3912,2676,12200,-1109,-843,17000,-4000,100000,602623,
1412,3920,2744,11752,-775,-982,17000,-4000,100000,602625,
220,4340,3124,9322,-177,-2479,18000,-4000,100000,602637,
108,4416,3152,8797,-507,-3006,19000,-4000,100000,602640,
-68,4476,3012,8472,-1183,-3041,19000,-4000,100000,602642,
-1564,4780,3752,6617,-2586,-2131,20000,-4000,99000,602655,
-1272,4948,3464,6204,-2811,-1828,20000,-4000,99000,602657,
-1364,4936,3476,5835,-2766,-1496,20000,-4000,99000,602659,
200,6124,2948,4670,-3693,314,21000,-5000,99000,602672,
3280,5640,4288,4157,-3564,611,21000,-5000,99000,602674,
1068,6836,4812,4653,-2170,625,21000,-5000,99000,602676,
700,7420,5264,3242,-4710,182,21000,-5000,99000,602688,
896,7860,4864,3095,-4547,223,22000,-5000,99000,602691,
1044,7920,4752,2670,-4561,175,22000,-5000,99000,602693,
1708,7832,5592,2006,-3937,712,22000,-6000,99000,602705,
1788,7928,5916,1882,-3678,928,22000,-6000,99000,602708,
1852,7892,5936,1940,-3446,1112,22000,-6000,99000,602710,
2400,8168,6972,1598,-2097,2104,22000,-6000,99000,602723,
2488,8160,7092,1639,-1835,2219,22000,-6000,99000,602725,
2460,8212,7084,1609,-1583,2275,23000,-6000,99000,602727,
2496,8772,7848,1515,-743,2553,23000,-7000,99000,602740,
2520,8904,7928,1502,-581,2539,23000,-7000,99000,602742,
2468,8868,8076,1489,-573,2558,23000,-7000,99000,602744,
2488,9324,8832,1416,-641,2707,23000,-7000,99000,602757,
2452,9356,9084,1436,-725,2773,23000,-7000,99000,602759,
2364,9360,9292,1379,-743,2805,23000,-7000,99000,602761,
2360,9592,10268,1092,-1727,3051,23000,-7000,100000,602774,
2460,9652,10620,1005,-1843,3108,23000,-7000,100000,602776,
2504,9632,10712,947,-2169,3117,23000,-7000,100000,602778,
2988,9564,11376,660,-3450,3077,24000,-8000,100000,602791,
2976,9448,11536,657,-3609,3064,24000,-8000,100000,602793,
3108,9476,11544,585,-3915,3074,24000,-8000,100000,602795,
3764,9236,11724,440,-4799,2886,24000,-8000,100000,602808,
4140,9036,11976,452,-4985,2885,24000,-9000,100000,602810,
4244,8976,11876,600,-4912,2863,24000,-9000,100000,602813,
5632,8620,12284,998,-5304,2933,24000,-9000,100000,602825,
5716,8668,12356,1120,-5161,2897,24000,-9000,100000,602828,
6132,8640,12260,1124,-5208,2828,24000,-10000,100000,602830,
7368,8748,12464,1459,-4347,2263,24000,-10000,100000,602842,
7416,8920,12636,1497,-4390,2140,24000,-10000,100000,602845,
7600,9036,12460,1569,-4163,2008,24000,-10000,100000,602847,
7724,9104,12684,1826,-3448,1075,25000,-11000,100000,602860,
7876,8964,12816,1888,-3267,908,25000,-11000,100000,602862,
7864,8964,13064,1853,-3122,718,25000,-11000,100000,602864,
7892,8852,13304,2126,-2360,-44,25000,-11000,100000,602877,
7972,8824,13372,2133,-2296,-140,25000,-11000,100000,602879,
8028,8852,13444,2194,-2200,-261,25000,-11000,100000,602881,
8320,8772,13740,2192,-1532,-900,25000,-12000,99000,602894,
8328,8912,13576,2292,-1405,-1040,25000,-12000,99000,602896,
8356,8768,13720,2224,-1235,-1186,25000,-12000,99000,602899,
8872,8992,13484,2181,-193,-1947,26000,-12000,99000,602911,
8728,8968,13580,2113,26,-2109,26000,-12000,99000,602914,
8752,8976,13552,2143,154,-2245,26000,-12000,99000,602916,
8644,8836,13148,1991,1523,-2951,26000,-11000,99000,602929,
8584,8784,13108,1992,1687,-3042,26000,-11000,99000,602931,
8600,8620,13024,1993,1978,-3168,26000,-11000,99000,602933,
8208,8376,12820,2121,3068,-3784,26000,-11000,99000,602946,
8124,8384,12796,2121,3288,-3900,27000,-11000,99000,602948,
8112,8280,12712,2145,3384,-4042,27000,-11000,99000,602950,
7484,8452,12536,2351,4015,-4632,27000,-10000,98000,602963,
7268,8328,12436,2392,4056,-4714,27000,-10000,98000,602965,
7128,8568,12392,2433,4166,-4754,27000,-10000,98000,602968,
6448,8472,11992,2419,4096,-5172,27000,-10000,98000,602980,
6432,8408,11960,2445,4160,-5246,27000,-10000,98000,602982,
6276,8392,11820,2417,4118,-5368,27000,-10000,98000,602985,
5684,7796,11492,2615,3718,-5944,28000,-9000,98000,602997,
5604,7788,11492,2587,3609,-6027,28000,-9000,97000,603000,
5516,7936,11392,2643,3486,-6115,28000,-9000,97000,603002,
4876,8120,11168,2550,2954,-6508,28000,-8000,97000,603014,
4712,7988,11120,2581,2882,-6501,28000,-8000,97000,603017,
4640,8088,11028,2533,2805,-6535,28000,-8000,97000,603019,
4436,8480,10532,2217,2322,-6756,29000,-8000,96000,603032,
4340,8516,10528,2125,2182,-6824,29000,-8000,96000,603034,
4264,8604,10392,2079,2105,-6851,29000,-8000,96000,603036,
4084,8688,9864,1629,1622,-7340,29000,-7000,96000,603049,
4088,8564,9880,1482,1588,-7440,29000,-7000,96000,603051,
4068,8480,9660,1396,1517,-7544,29000,-7000,95000,603053,
3536,8268,9512,968,1350,-7968,30000,-7000,95000,603066,
3576,8092,9404,887,1230,-8056,30000,-7000,95000,603068,
3456,8172,9392,860,1222,-8052,30000,-6000,95000,603071,
2960,8536,9096,340,928,-8333,30000,-6000,94000,603083,
2840,8584,9088,318,926,-8343,30000,-6000,94000,603085,
2840,8552,9012,148,816,-8466,30000,-6000,94000,603088,
2680,8720,9100,95,788,-8466,30000,-6000,94000,603090,
2208,8604,9072,-552,523,-8965,30000,-5000,93000,603102,
2172,8572,8916,-574,439,-9016,30000,-5000,93000,603105,
2072,8596,9012,-721,420,-9095,30000,-5000,93000,603107,
1364,8152,8956,-1229,8,-9440,30000,-5000,92000,603120,
1212,8284,9048,-1322,59,-9447,30000,-5000,92000,603122,
1088,8200,9116,-1397,-56,-9524,30000,-5000,91000,603124,
824,8144,9216,-1676,-92,-9520,30000,-4000,91000,603137,
456,8320,9004,-1761,-137,-9452,30000,-4000,91000,603139,
456,8388,9176,-1788,-215,-9455,30000,-4000,90000,603141,
388,8836,9208,-2213,-341,-9302,30000,-3000,90000,603154,
308,8912,9232,-2250,-329,-9238,30000,-3000,89000,603156,
348,9012,9264,-2392,-380,-9258,30000,-3000,89000,603159,
-32,9256,9168,-2800,-343,-9069,30000,-3000,89000,603171,
60,9160,9336,-2781,-283,-9092,30000,-3000,88000,603174,
-76,9112,9288,-2792,-133,-9064,30000,-3000,88000,603176,
-564,8920,9100,-3262,-179,-8779,30000,-2000,87000,603188,
-776,8872,9080,-3282,-183,-8703,30000,-2000,87000,603191,
-852,8768,9148,-3330,-230,-8684,29000,-2000,87000,603193,
-1304,8344,9352,-3412,-239,-8620,29000,-2000,86000,603205,
-1328,8404,9344,-3476,-307,-8644,29000,-2000,86000,603208,
-1516,8392,9352,-3444,-261,-8648,29000,-2000,86000,603210,
-2220,8728,9284,-3775,-704,-8684,29000,-1000,85000,603223,
-2240,8772,9272,-3752,-674,-8683,29000,-1000,85000,603225,
-2348,8888,9348,-3834,-722,-8637,29000,-1000,85000,603227,
-2336,9244,9164,-4286,-665,-8501,29000,-1000,84000,603240,
-2368,9144,9112,-4409,-647,-8487,28000,0,84000,603242,
-2372,9172,9216,-4485,-716,-8500,28000,0,84000,603245,
-2508,8472,9588,-4999,-476,-8445,28000,0,83000,603257,
-2672,8288,9592,-5183,-535,-8458,28000,0,83000,603259,
-2604,8048,9816,-5194,-376,-8428,28000,0,83000,603262,
-2744,8020,9764,-5340,-386,-8479,28000,0,83000,603264,
-3556,8188,10372,-5769,-86,-8223,27000,0,82000,603277,
-3644,8276,10348,-5932,-94,-8164,27000,0,82000,603279,
-3600,8400,10384,-5960,42,-8149,27000,0,82000,603281,
-4408,8744,10356,-6516,140,-7700,27000,0,81000,603294,
-4428,8812,10312,-6564,276,-7613,26000,0,81000,603296,
-4396,8628,10400,-6696,246,-7583,26000,1000,81000,603298,
-4508,7552,10172,-6999,839,-7064,26000,1000,81000,603311,
-4364,7220,10180,-6960,989,-6992,26000,1000,80000,603313,
-4388,7072,10220,-6988,1126,-6879,25000,1000,80000,603315,
-4912,7140,10520,-6762,1724,-6110,25000,2000,80000,603328,
-5048,7356,10556,-6837,1713,-6041,25000,2000,80000,603330,
-4968,7480,10664,-6808,1811,-5917,25000,2000,80000,603332,
-6116,8816,11052,-7220,1800,-5477,24000,2000,79000,603345,
-6136,8824,11188,-7364,1739,-5447,24000,3000,79000,603347,
-6256,8804,11176,-7437,1768,-5378,24000,3000,79000,603350,
-6540,7700,11676,-7966,1394,-4842,23000,3000,79000,603362,
-6564,7444,11892,-7977,1362,-4666,23000,3000,79000,603364,
-6508,7224,12128,-8094,1256,-4548,23000,3000,79000,603367,
-6472,6744,12596,-8214,1224,-3773,22000,4000,78000,603379,
-6424,6860,12592,-8201,1203,-3652,22000,4000,78000,603382,
-6428,7108,12496,-8199,1274,-3536,22000,4000,78000,603384,
-6436,8140,12920,-8344,1652,-3094,21000,4000,78000,603397,
-6840,8148,12900,-8432,1852,-3027,21000,4000,78000,603399,
-6480,8312,12904,-8426,1868,-2945,21000,4000,78000,603401,
-6344,7328,12924,-8723,2510,-2656,20000,5000,78000,603414,
-6292,6840,13040,-8633,2656,-2557,20000,5000,78000,603416,
-6244,6512,12996,-8630,2740,-2453,20000,5000,78000,603419,
-6704,5732,13772,-8391,3249,-1705,19000,5000,78000,603431,
-6780,5784,13700,-8303,3281,-1546,19000,5000,78000,603434,
-6980,5916,13764,-8271,3238,-1395,18000,5000,78000,603436,
-7732,7180,14396,-8186,3078,-726,18000,6000,78000,603448,
-7876,7244,14464,-8255,2912,-629,18000,6000,78000,603451,
-7984,7452,14544,-8208,2913,-540,17000,6000,78000,603453,
-7932,6820,14956,-8492,2334,-106,17000,6000,78000,603466,
-7984,6680,14920,-8506,2306,-5,17000,6000,78000,603468,
-7928,6448,15120,-8541,2105,74,16000,7000,78000,603470,
-7836,5160,15424,-8596,1911,730,16000,7000,78000,603483,
-7636,4800,15792,-8507,1855,893,15000,7000,78000,603485,
-7584,4660,15736,-8240,2022,1018,15000,7000,78000,603487,
-7328,4524,15960,-8002,2420,1881,15000,7000,78000,603500,
-7240,4584,16092,-7871,2516,2055,14000,7000,78000,603502,
-7168,4784,16124,-7847,2673,2170,14000,7000,78000,603505,
-7196,5144,16060,-7647,3401,2740,14000,8000,79000,603517,
-7136,5336,16180,-7631,3444,2825,13000,8000,79000,603519,
-7280,5332,16084,-7574,3519,2914,13000,8000,79000,603522,
-7880,5292,16612,-7562,3274,3303,13000,8000,79000,603534,
-7852,5256,16532,-7530,3191,3396,13000,8000,79000,603537,
-8052,5168,16728,-7539,3089,3445,12000,8000,79000,603539,
-8356,4464,16940,-7179,1740,3881,12000,8000,80000,603552,
-8336,4344,17116,-7112,1521,4026,12000,8000,80000,603554,
-8248,4196,17108,-7057,1215,4101,12000,8000,80000,603556,
-7280,3968,17464,-6262,83,4715,11000,8000,80000,603569,
-7312,3956,17360,-6276,-156,4848,11000,8000,81000,603571,
-7104,3904,17556,-6114,-163,4925,11000,8000,81000,603573,
-5784,3856,17424,-5669,-203,5409,10000,8000,81000,603586,
-5668,3952,17280,-5508,-56,5431,10000,8000,81000,603588,
-5532,3804,17504,-5506,62,5458,10000,8000,81000,603591,
-5048,3948,17344,-5191,926,5648,10000,8000,82000,603603,
-5076,3928,17324,-5173,993,5738,10000,8000,82000,603605,
-5112,3988,17336,-5136,1151,5745,10000,8000,82000,603608,
-5464,3852,17484,-5093,1227,6126,9000,8000,83000,603620,
-5568,3884,17412,-5071,1190,6158,9000,8000,83000,603623,
-5564,3936,17468,-5103,1026,6295,9000,8000,83000,603625,
-5600,3604,17504,-4970,295,6709,9000,8000,84000,603637,
-5448,3400,17588,-4883,120,6806,9000,8000,84000,603640,
-5460,3360,17560,-4851,-58,6844,9000,8000,84000,603642,
-4904,3228,17488,-4461,-691,7280,8000,8000,84000,603654,
-4580,3152,17508,-4435,-805,7357,8000,8000,85000,603657,
-4480,3212,17620,-4305,-839,7380,8000,8000,85000,603659,
-3684,3472,17704,-4038,-1148,7536,8000,8000,85000,603672,
-3592,3412,17616,-3889,-1063,7511,8000,8000,86000,603674,
-3456,3484,17792,-3905,-1165,7565,8000,8000,86000,603676,
-2604,3188,17860,-3459,-1023,7574,8000,8000,86000,603689,
-2616,3156,17836,-3472,-1046,7645,8000,8000,87000,603691,
-2440,3028,17808,-3362,-980,7590,8000,8000,87000,603693,
-1952,2796,17700,-3145,-501,7413,7000,8000,87000,603706,
-1768,2752,17752,-3044,-350,7368,7000,7000,88000,603708,
-1792,2752,17672,-3041,-363,7360,7000,7000,88000,603711,
-1748,2656,17580,-2788,-38,7188,7000,7000,88000,603723,
-1640,2612,17580,-2837,-93,7208,7000,7000,88000,603726,
-1656,2628,17588,-2761,-42,7161,7000,7000,89000,603728,
-1592,2616,17612,-2645,-379,7184,7000,7000,89000,603741,
-1492,2620,17464,-2582,-434,7176,7000,7000,89000,603743,
-1468,2740,17268,-2639,-568,7193,7000,7000,90000,603745,
-1224,2640,17316,-2495,-1012,6850,7000,7000,90000,603758,
-1392,2668,17324,-2529,-1170,6799,7000,7000,90000,603760,
-1420,2644,17372,-2476,-1231,6770,7000,7000,90000,603762,
-1500,2448,17364,-2538,-2007,6541,7000,7000,91000,603775,
-1480,2428,17448,-2462,-2090,6512,7000,6000,91000,603777,
-1380,2460,17404,-2487,-2231,6563,7000,6000,91000,603779,
-748,2232,17432,-2224,-2712,6874,6000,6000,92000,603792,
-428,2260,17404,-2162,-2694,6901,6000,6000,92000,603794,
-256,2300,17248,-2143,-2769,6971,6000,6000,92000,603797,
364,2404,17180,-1863,-2280,6980,6000,6000,93000,603809,
540,2332,17040,-1874,-2184,7001,6000,6000,93000,603811,
436,2348,17044,-1767,-1950,6960,6000,5000,93000,603814,
700,2148,16900,-1592,-1015,6899,6000,5000,94000,603826,
728,2104,16852,-1498,-807,6851,6000,5000,94000,603829,
608,1988,17060,-1519,-830,6865,6000,5000,94000,603831,
472,2080,17360,-1117,-462,6892,6000,5000,95000,603844,
536,2164,17188,-1005,-415,6885,6000,5000,95000,603846,
640,2200,17232,-979,-426,6933,6000,5000,95000,603848,
692,2308,17188,-840,-407,6932,6000,5000,95000,603850,
1392,2720,16672,-458,-544,7024,6000,5000,96000,603863,
1424,2808,16688,-331,-466,6981,6000,5000,96000,603865,
1644,2888,16604,-303,-423,6990,6000,5000,96000,603868,
2636,3176,16544,-138,-291,6682,6000,4000,96000,603880,
2732,3124,16420,-32,-217,6587,6000,4000,97000,603883,
2764,3292,16440,-64,-228,6509,6000,4000,97000,603885,
3372,3172,16304,84,270,5908,6000,4000,97000,603897,
3416,3208,16132,61,356,5790,6000,4000,97000,603900,
3468,3304,16128,88,449,5661,6000,4000,97000,603902,
3428,3324,16096,79,548,5549,6000,4000,98000,603904,
3364,3532,15756,20,989,4972,6000,4000,98000,603917,
3324,3604,15804,-12,1072,4850,6000,4000,98000,603919,
3364,3588,15816,-19,1133,4793,6000,4000,98000,603921,
3216,3644,15560,-271,1412,4151,6000,4000,99000,603934,
3272,3656,15568,-285,1471,4045,6000,4000,99000,603936,
3268,3656,15528,-367,1475,3861,6000,4000,99000,603938,
2988,3532,15624,-543,1322,3247,6000,4000,99000,603951,
2808,3552,15484,-545,1323,3113,6000,4000,99000,603953,
2764,3496,15340,-616,1131,3025,6000,4000,99000,603956,
2700,3640,15176,-518,1148,2900,6000,4000,99000,603958,
2372,3540,15140,-646,598,2585,6000,4000,100000,603970,
2392,3520,15124,-575,533,2522,6000,4000,100000,603973,
2400,3576,15112,-653,411,2470,6000,4000,100000,603975,
1876,3832,15012,-701,-247,1987,6000,4000,100000,603988,
1820,3760,15236,-738,-509,1912,6000,4000,100000,603990,
1728,3680,15204,-699,-633,1790,6000,4000,100000,603992,
1344,3696,15348,-687,-1792,1403,6000,4000,100000,604005,
1244,3620,15268,-601,-1903,1338,6000,4000,100000,604007,
1256,3636,15252,-648,-2138,1330,6000,3000,100000,604009,
1704,3520,15224,-412,-2731,1310,6000,3000,100000,604022,
1976,3540,15140,-411,-2861,1313,6000,3000,100000,604024,
2168,3664,15180,-359,-2812,1347,6000,3000,100000,604026,
2788,4060,15152,-431,-2555,954,6000,3000,100000,604039,
2952,4244,15192,-369,-2334,867,6000,3000,100000,604041,
2820,4320,15168,-471,-2296,806,6000,3000,100000,604044,
2852,4420,15164,-547,-1447,373,6000,2000,100000,604056,
2768,4484,15324,-650,-1330,259,6000,2000,100000,604058,
2752,4376,15124,-584,-1152,206,6000,2000,100000,604061,
2356,4016,15256,-701,-407,-157,6000,2000,100000,604073,
2208,3952,15312,-626,-214,-182,6000,2000,100000,604076,
2124,3892,15380,-687,-216,-230,6000,2000,100000,604078,
1800,3912,15436,-631,346,-259,6000,2000,100000,604090,
1780,3940,15404,-657,368,-238,6000,2000,100000,604093,
1600,4072,15316,-647,478,-248,6000,2000,100000,604095,
1564,4248,15176,-688,770,-386,6000,2000,100000,604107,
1432,4132,15352,-678,863,-405,6000,2000,100000,604110,
1340,4212,15380,-721,827,-492,6000,2000,100000,604112,
