Ax,Ay,Az,Gx,Gy,Gz,Roll,Pitch,Yaw,Timestamp,Target
4292,-28,15524,-453,-106,-107,-6000,-14000,190000,210800,
4320,-88,15732,-489,-136,-135,-6000,-14000,190000,210813,
4328,-152,15672,-448,-81,-120,-6000,-14000,190000,210815,
4264,-80,15652,-498,-113,-121,-7000,-14000,190000,210817,
4320,-108,15660,-451,-92,-118,-6000,-14000,190000,210830,
4372,-172,15588,-495,-146,-123,-7000,-14000,190000,210832,
4324,-220,15616,-441,-74,-124,-7000,-14000,190000,210834,
4256,-140,15568,-512,-97,-129,-7000,-14000,190000,210847,
4424,-216,15612,-448,-42,-124,-7000,-14000,190000,210849,
4368,-132,15488,-488,-98,-148,-7000,-14000,190000,210852,
4260,-144,15704,-466,-59,-171,-7000,-14000,190000,210864,
4256,-36,15580,-514,-67,-126,-7000,-14000,190000,210867,
4272,-100,15600,-475,-43,-133,-7000,-14000,190000,210869,
4292,-152,15544,-444,-76,-124,-7000,-14000,190000,210881,
4368,-96,15620,-479,-58,-128,-7000,-14000,190000,210884,
4356,-156,15552,-473,-72,-134,-7000,-14000,190000,210886,
4220,-164,15476,-492,0,-93,-7000,-14000,190000,210898,
4400,-184,15564,-442,-34,-116,-7000,-14000,190000,210901,
4300,-104,15484,-489,-9,-97,-7000,-14000,190000,210903,
4240,-84,15660,-458,-8,-128,-7000,-14000,190000,210915,
4356,-176,15548,-520,-111,-105,-7000,-14000,190000,210918,
4220,-172,15668,-452,-21,-124,-7000,-14000,190000,210920,
4404,-64,15712,-525,-133,-94,-7000,-14000,190000,210932,
4480,-176,15512,-473,-39,-101,-7000,-14000,190000,210935,
4448,-100,15648,-489,-104,-104,-7000,-14000,190000,210937,
4376,-180,15572,-416,-39,-139,-7000,-14000,190000,210949,
4368,-128,15700,-504,-130,-123,-7000,-14000,190000,210952,
4312,-120,15552,-434,-69,-157,-7000,-14000,190000,210954,
4444,-76,15648,-453,-81,-143,-7000,-14000,190000,210967,
4308,-196,15516,-420,-87,-139,-7000,-14000,190000,210969,
4372,-176,15700,-440,-65,-164,-7000,-14000,190000,210971,
4456,-248,15804,-439,-80,-123,-7000,-14000,190000,210984,
4476,-72,15520,-459,-33,-145,-7000,-14000,190000,210986,
4372,-148,15536,-423,-58,-138,-7000,-14000,190000,210988,
4460,-124,15612,-448,5,-130,-7000,-14000,190000,211001,
4368,-100,15616,-432,-6,-123,-7000,-14000,190000,211003,
4360,-128,15656,-446,29,-128,-7000,-14000,190000,211005,
4436,-120,15596,-471,31,-141,-7000,-14000,190000,211018,
4352,-172,15628,-436,9,-133,-7000,-14000,190000,211020,
4312,-96,15568,-442,21,-127,-7000,-14000,190000,211023,
4284,-172,15428,-432,-4,-125,-7000,-14000,190000,211035,
4344,-104,15592,-455,44,-105,-7000,-14000,190000,211037,
4328,-204,15584,-444,27,-96,-7000,-14000,190000,211040,
4392,-200,15624,-443,60,-102,-7000,-14000,190000,211052,
4436,-144,15460,-414,56,-112,-7000,-14000,190000,211055,
4372,-172,15636,-451,80,-154,-7000,-14000,190000,211057,
4376,-164,15412,-450,134,-134,-7000,-14000,190000,211069,
4448,-204,15652,-416,210,-115,-7000,-14000,190000,211072,
4532,-112,15652,-480,171,-157,-7000,-14000,190000,211074,
4384,-152,15600,-442,275,-153,-7000,-14000,190000,211087,
4460,-220,15604,-479,214,-160,-7000,-14000,190000,211089,
4348,-136,15488,-400,268,-188,-7000,-14000,190000,211091,
4248,-96,15688,-489,268,-136,-7000,-14000,190000,211104,
4428,-176,15668,-435,270,-136,-7000,-14000,190000,211106,
4316,-148,15500,-469,313,-151,-7000,-14000,190000,211108,
4352,-96,15600,-435,274,-141,-7000,-14000,190000,211121,
4276,-144,15600,-442,281,-166,-7000,-14000,190000,211123,
4252,-216,15664,-444,235,-182,-7000,-14000,190000,211126,
4336,-164,15636,-453,187,-129,-7000,-14000,190000,211138,
4312,-188,15616,-435,142,-159,-7000,-14000,190000,211140,
4368,-112,15672,-451,161,-169,-7000,-14000,190000,211143,
4248,-132,15712,-427,75,-152,-7000,-14000,190000,211155,
4220,-204,15600,-495,60,-153,-7000,-14000,190000,211157,
4316,-184,15756,-463,20,-182,-7000,-14000,190000,211160,
4292,-48,15584,-427,2,-137,-6000,-14000,189000,211172,
4360,-176,15592,-450,-42,-149,-6000,-14000,189000,211175,
4324,-164,15468,-441,2,-134,-6000,-14000,189000,211177,
4416,-100,15508,-424,-22,-125,-6000,-14000,189000,211190,
4352,-96,15696,-450,12,-120,-6000,-14000,189000,211192,
4372,-140,15620,-462,-68,-106,-6000,-14000,189000,211194,
4396,-116,15708,-455,28,-99,-6000,-14000,189000,211207,
4336,-172,15548,-471,-52,-98,-6000,-14000,189000,211209,
4332,-164,15544,-449,48,-120,-6000,-14000,189000,211211,
4532,-164,15444,-499,9,-111,-7000,-14000,189000,211223,
4492,-172,15520,-431,82,-113,-7000,-14000,189000,211226,
4404,-164,15604,-504,65,-118,-7000,-14000,189000,211228,
4320,-44,15640,-452,98,-90,-7000,-14000,189000,211240,
4276,-100,15636,-503,82,-132,-7000,-14000,189000,211243,
4368,-60,15540,-437,172,-103,-7000,-14000,189000,211245,
4432,-96,15620,-420,139,-103,-6000,-14000,189000,211257,
4408,-196,15716,-482,108,-116,-6000,-14000,189000,211260,
4396,-116,15624,-424,151,-131,-6000,-14000,189000,211262,
4388,-144,15700,-471,115,-102,-6000,-14000,189000,211275,
4272,-128,15480,-438,35,-103,-6000,-14000,189000,211277,
4368,-192,15568,-462,96,-111,-6000,-14000,189000,211279,
4412,-140,15540,-443,96,-78,-6000,-14000,189000,211292,
4412,-140,15608,-481,65,-95,-6000,-14000,189000,211294,
4400,-208,15524,-448,76,-101,-6000,-14000,189000,211296,
4432,-176,15360,-455,92,-99,-7000,-14000,189000,211309,
4440,-244,15476,-425,133,-85,-7000,-14000,189000,211311,
4332,-184,15596,-480,132,-128,-7000,-14000,189000,211314,
4348,-128,15560,-498,134,-127,-7000,-14000,189000,211326,
4332,-120,15552,-447,159,-124,-7000,-14000,189000,211328,
4476,-68,15640,-482,91,-125,-7000,-14000,189000,211331,
4380,-88,15628,-436,100,-108,-7000,-14000,189000,211343,
4244,-148,15544,-468,55,-131,-7000,-14000,189000,211345,
4380,-140,15756,-436,61,-107,-7000,-14000,189000,211348,
4472,-104,15548,-461,88,-110,-7000,-14000,189000,211360,
4560,-32,15628,-471,85,-136,-7000,-14000,189000,211362,
4420,-168,15664,-441,100,-142,-7000,-14000,189000,211365,
4468,-232,15636,-466,189,-175,-7000,-14000,189000,211377,
4384,-152,15524,-453,143,-135,-7000,-14000,189000,211379,
4324,-184,15664,-439,154,-140,-7000,-14000,189000,211382,
4404,-116,15620,-466,87,-148,-7000,-14000,189000,211394,
4344,-176,15612,-468,187,-120,-7000,-14000,189000,211396,
4420,-116,15532,-426,148,-132,-7000,-14000,189000,211399,
4368,-120,15512,-481,155,-170,-7000,-14000,189000,211411,
4320,-164,15464,-455,143,-110,-7000,-14000,189000,211414,
4412,-212,15420,-477,192,-130,-7000,-14000,189000,211416,
4292,-12,15556,-441,169,-143,-6000,-14000,189000,211428,
4372,-124,15504,-469,170,-138,-6000,-14000,189000,211431,
4428,-60,15544,-473,170,-153,-6000,-14000,189000,211433,
4344,-128,15596,-428,208,-124,-6000,-14000,189000,211446,
4376,-116,15496,-465,146,-132,-6000,-14000,189000,211448,
4396,-72,15628,-476,157,-117,-6000,-14000,189000,211450,
4216,-228,15684,-485,154,-136,-7000,-14000,189000,211463,
4352,-132,15584,-456,149,-169,-7000,-14000,189000,211465,
4320,-160,15560,-480,151,-127,-7000,-14000,189000,211467,
4324,-132,15632,-423,140,-125,-6000,-14000,189000,211480,
4308,-220,15628,-481,164,-147,-6000,-14000,189000,211482,
4308,-164,15596,-465,138,-105,-6000,-14000,189000,211484,
4300,-208,15688,-482,103,-95,-7000,-14000,189000,211497,
4328,-184,15716,-449,51,-118,-7000,-14000,189000,211499,
4324,-88,15668,-439,68,-119,-7000,-14000,189000,211501,
4368,-112,15584,-453,-49,-125,-7000,-14000,189000,211514,
4244,-160,15632,-455,-46,-88,-7000,-14000,189000,211516,
4328,-140,15592,-491,-95,-98,-7000,-14000,189000,211518,
4368,-176,15560,-461,-92,-108,-7000,-14000,189000,211531,
4428,-288,15592,-416,-64,-100,-7000,-14000,189000,211533,
4452,-216,15492,-483,-111,-131,-7000,-14000,189000,211536,
4336,-212,15472,-445,-17,-132,-7000,-14000,189000,211548,
4356,-232,15484,-466,-47,-158,-7000,-14000,189000,211550,
4500,-192,15436,-448,-10,-169,-7000,-14000,189000,211553,
4348,-124,15532,-464,54,-192,-7000,-14000,189000,211565,
4492,-112,15552,-435,109,-188,-7000,-14000,189000,211567,
4456,-84,15608,-467,74,-195,-7000,-14000,189000,211570,
4428,12,15468,-399,160,-172,-6000,-14000,189000,211582,
4360,-140,15548,-442,125,-192,-6000,-14000,189000,211585,
4464,-72,15544,-404,127,-173,-6000,-14000,189000,211587,
4416,-108,15652,-453,116,-149,-6000,-14000,189000,211599,
4440,-36,15632,-394,108,-141,-6000,-14000,189000,211602,
4492,16,15584,-444,69,-140,-6000,-14000,189000,211604,
4508,-80,15672,-383,141,-97,-6000,-14000,189000,211617,
4528,-172,15556,-462,111,-103,-6000,-14000,189000,211619,
4524,-100,15704,-420,138,-113,-6000,-14000,189000,211621,
4576,-124,15504,-420,179,-110,-6000,-14000,189000,211634,
4644,-232,15476,-414,276,-113,-6000,-14000,189000,211636,
4620,-104,15552,-459,224,-104,-6000,-14000,189000,211639,
4504,-228,15440,-408,343,-149,-6000,-14000,189000,211651,
4328,-208,15616,-452,305,-155,-6000,-14000,189000,211653,
4412,-184,15588,-401,331,-130,-6000,-14000,189000,211656,
4368,-152,15536,-439,311,-141,-6000,-14000,189000,211668,
4320,-124,15660,-415,383,-139,-6000,-14000,189000,211671,
4384,-160,15516,-444,276,-137,-6000,-14000,189000,211673,
4232,-216,15640,-444,257,-138,-6000,-14000,189000,211686,
4332,-224,15576,-444,192,-109,-6000,-14000,189000,211688,
4248,-104,15576,-440,252,-122,-6000,-14000,188000,211690,
4368,-128,15564,-462,79,-94,-6000,-14000,188000,211703,
4324,-72,15512,-389,123,-81,-6000,-14000,188000,211705,
4188,-124,15564,-498,64,-111,-6000,-14000,188000,211707,
4132,-108,15548,-433,39,-85,-6000,-14000,188000,211720,
4332,-128,15472,-485,-27,-87,-6000,-14000,188000,211722,
4244,-84,15608,-416,40,-67,-6000,-14000,188000,211724,
4444,-84,15448,-449,-48,-69,-6000,-14000,188000,211737,
4404,-140,15540,-412,71,-64,-6000,-14000,188000,211739,
4396,-208,15592,-473,-63,-64,-6000,-14000,188000,211741,
4352,-220,15696,-410,61,-103,-6000,-14000,188000,211754,
4300,-104,15572,-470,-37,-57,-6000,-14000,188000,211756,
4392,-188,15592,-416,56,-84,-6000,-14000,188000,211759,
4436,-208,15560,-438,-33,-77,-6000,-14000,188000,211771,
4416,-172,15680,-438,-10,-51,-6000,-14000,188000,211773,
4380,-252,15580,-448,-29,-42,-6000,-14000,188000,211776,
4428,-164,15584,-441,4,-104,-6000,-14000,188000,211788,
4376,-64,15560,-455,-11,-91,-6000,-14000,188000,211790,
4360,-96,15628,-466,45,-89,-6000,-14000,188000,211793,
4452,-152,15456,-482,-25,-115,-6000,-14000,188000,211805,
4312,-124,15608,-440,47,-121,-6000,-14000,188000,211807,
4416,-140,15508,-500,0,-130,-6000,-14000,188000,211810,
4368,-152,15640,-446,48,-132,-6000,-14000,188000,211822,
4328,-236,15484,-534,17,-143,-6000,-14000,188000,211824,
4336,-160,15492,-453,78,-166,-6000,-14000,188000,211827,
4348,-128,15568,-522,-36,-156,-6000,-14000,188000,211839,
4264,-208,15680,-451,-7,-159,-6000,-14000,188000,211842,
4344,-108,15820,-495,2,-177,-6000,-14000,188000,211844,
4300,-108,15544,-501,-99,-168,-6000,-14000,188000,211856,
4196,-260,15632,-463,-125,-167,-6000,-14000,188000,211859,
4360,-48,15668,-476,-77,-125,-6000,-14000,188000,211861,
4388,-152,15608,-456,-236,-109,-6000,-14000,188000,211874,
4412,-64,15520,-448,-191,-97,-6000,-14000,188000,211876,
4412,-124,15612,-489,-249,-91,-6000,-14000,188000,211878,
4436,-100,15616,-456,-198,-72,-6000,-14000,188000,211891,
4388,-124,15564,-477,-230,-81,-6000,-14000,188000,211893,
4548,-88,15592,-419,-139,-102,-6000,-14000,188000,211895,
4648,-76,15512,-488,-110,-89,-6000,-14000,188000,211908,
4588,-140,15668,-437,-62,-81,-6000,-14000,188000,211910,
4612,-152,15608,-474,-70,-98,-6000,-14000,188000,211912,
4588,-84,15460,-473,67,-114,-6000,-14000,188000,211925,
4608,-200,15660,-463,34,-121,-6000,-14000,188000,211927,
4584,-168,15588,-419,60,-93,-6000,-14000,188000,211930,
4400,-264,15492,-475,93,-134,-7000,-14000,188000,211942,
4440,-184,15480,-433,97,-92,-7000,-14000,188000,211945,
4516,-144,15632,-466,119,-126,-7000,-14000,188000,211947,
4428,-236,15508,-420,115,-136,-6000,-14000,188000,211960,
4492,-164,15596,-458,130,-139,-6000,-14000,188000,211962,
4324,-200,15668,-444,142,-144,-6000,-14000,188000,211964,
4448,-124,15584,-476,110,-137,-6000,-14000,188000,211977,
4456,-172,15624,-458,105,-141,-6000,-14000,188000,211979,
4384,-164,15516,-475,131,-152,-7000,-14000,188000,211981,
4364,-148,15624,-437,72,-163,-6000,-14000,188000,211994,
4484,-196,15636,-512,9,-139,-6000,-14000,188000,211996,
4316,-108,15484,-435,63,-134,-6000,-14000,188000,211998,
4460,-164,15544,-460,12,-125,-6000,-14000,188000,212011,
4448,-236,15456,-446,-1,-147,-6000,-14000,188000,212013,
4424,-132,15604,-484,39,-115,-7000,-14000,188000,212016,
4512,-144,15624,-429,17,-123,-6000,-14000,188000,212028,
4456,-200,15624,-501,-22,-160,-6000,-14000,188000,212030,
4572,-140,15504,-434,13,-130,-6000,-14000,188000,212033,
4496,-116,15672,-493,-23,-129,-7000,-14000,188000,212045,
4464,-128,15520,-421,60,-143,-7000,-14000,188000,212047,
4572,-144,15476,-508,14,-149,-7000,-14000,188000,212050,
4572,-176,15616,-479,103,-154,-7000,-14000,188000,212062,
4624,-172,15548,-450,87,-140,-7000,-14000,188000,212065,
4576,-96,15492,-467,151,-151,-7000,-14000,188000,212067,
4472,-108,15516,-453,160,-164,-7000,-14000,188000,212079,
4556,-124,15712,-462,191,-171,-7000,-14000,188000,212082,
4528,-188,15564,-490,148,-160,-7000,-14000,188000,212084,
4472,-44,15404,-451,194,-174,-6000,-14000,188000,212097,
4416,-100,15596,-461,120,-171,-6000,-14000,188000,212099,
4468,-244,15680,-422,178,-143,-6000,-14000,188000,212101,
4360,-36,15656,-466,65,-145,-6000,-14000,188000,212114,
4440,-124,15512,-445,104,-128,-6000,-14000,188000,212116,
4448,-92,15624,-470,103,-142,-6000,-14000,188000,212118,
4464,-76,15564,-416,149,-112,-6000,-14000,188000,212131,
4488,-172,15548,-478,139,-135,-6000,-14000,188000,212133,
4456,-56,15640,-454,128,-113,-6000,-14000,188000,212135,
4472,-200,15528,-476,87,-109,-6000,-14000,188000,212148,
4540,-100,15584,-433,155,-105,-6000,-14000,188000,212150,
4528,-44,15560,-473,90,-97,-6000,-14000,188000,212152,
4536,-96,15676,-453,182,-145,-6000,-14000,188000,212165,
4668,-192,15528,-455,149,-111,-6000,-14000,188000,212167,
4572,-112,15504,-430,207,-138,-6000,-14000,188000,212170,
4636,-200,15624,-437,225,-169,-6000,-14000,188000,212182,
4544,-196,15448,-422,231,-150,-6000,-14000,188000,212185,
4464,-104,15544,-457,248,-173,-6000,-14000,188000,212187,
4352,-140,15540,-433,193,-165,-6000,-14000,188000,212199,
4440,-160,15580,-454,240,-165,-6000,-14000,188000,212202,
4380,-180,15432,-455,174,-173,-6000,-14000,188000,212204,
4388,-216,15648,-455,171,-152,-6000,-14000,188000,212217,
4368,-264,15572,-465,93,-165,-6000,-14000,188000,212219,
4428,-248,15524,-441,166,-149,-6000,-14000,188000,212221,
4336,-84,15640,-446,72,-140,-6000,-14000,187000,212234,
4476,-108,15564,-437,82,-159,-6000,-14000,187000,212236,
4364,-184,15548,-478,37,-126,-6000,-14000,187000,212239,
4536,-216,15520,-462,108,-152,-6000,-14000,187000,212251,
4528,-148,15476,-452,11,-133,-6000,-14000,187000,212253,
4528,-156,15660,-417,93,-134,-6000,-14000,187000,212256,
4352,-220,15544,-444,69,-144,-6000,-14000,187000,212268,
4444,-188,15620,-470,80,-177,-6000,-14000,187000,212271,
4488,-132,15572,-452,28,-114,-6000,-14000,187000,212273,
4568,-164,15548,-464,74,-156,-6000,-14000,187000,212286,
4444,-236,15760,-456,10,-154,-6000,-14000,187000,212288,
4480,-152,15548,-445,15,-140,-6000,-14000,187000,212290,
4508,-180,15572,-477,3,-149,-6000,-14000,187000,212303,
4396,-164,15592,-485,-2,-167,-6000,-14000,187000,212305,
4472,-144,15520,-451,52,-150,-6000,-14000,187000,212307,
4608,-164,15664,-484,53,-150,-6000,-14000,187000,212320,
4496,-192,15584,-448,55,-159,-6000,-14000,187000,212322,
4364,-168,15524,-497,57,-182,-6000,-14000,187000,212324,
4492,-156,15548,-461,73,-150,-6000,-14000,187000,212337,
4608,-112,15460,-454,73,-161,-6000,-14000,187000,212339,
4432,-148,15532,-448,93,-167,-6000,-14000,187000,212341,
4428,-208,15480,-490,91,-138,-6000,-14000,187000,212354,
4420,-156,15584,-436,95,-142,-6000,-14000,187000,212356,
4520,-136,15624,-486,69,-149,-6000,-14000,187000,212359,
4448,-152,15584,-461,77,-126,-6000,-14000,187000,212371,
4388,-8,15540,-446,172,-145,-6000,-14000,187000,212374,
4596,-120,15528,-474,97,-133,-6000,-14000,187000,212376,
4456,-128,15496,-470,110,-118,-6000,-14000,187000,212388,
4432,-192,15564,-473,105,-140,-6000,-14000,187000,212391,
4344,-180,15504,-469,75,-104,-6000,-14000,187000,212393,
4428,-168,15524,-470,73,-151,-7000,-14000,187000,212406,
4560,-132,15516,-431,111,-116,-7000,-14000,187000,212408,
4504,-140,15564,-459,133,-129,-7000,-14000,187000,212410,
4552,-100,15516,-435,175,-140,-6000,-14000,187000,212423,
4572,-128,15500,-481,131,-145,-6000,-14000,187000,212425,
4532,-188,15556,-431,184,-129,-6000,-14000,187000,212427,
4412,-64,15612,-495,136,-142,-6000,-14000,187000,212440,
4456,-100,15648,-433,224,-127,-6000,-14000,187000,212442,
4464,-88,15624,-471,118,-156,-6000,-14000,187000,212444,
4472,-128,15556,-441,209,-146,-6000,-14000,187000,212457,
4412,-192,15584,-488,147,-143,-6000,-14000,187000,212459,
4488,-100,15644,-437,171,-153,-6000,-14000,187000,212462,
4480,-128,15640,-469,123,-136,-6000,-14000,187000,212474,
4484,-248,15608,-432,172,-125,-6000,-14000,187000,212476,
4476,-116,15656,-464,131,-131,-6000,-14000,187000,212479,
4480,-84,15544,-439,229,-126,-6000,-14000,187000,212491,
4452,-56,15664,-505,134,-124,-6000,-14000,187000,212494,
4560,-160,15624,-420,170,-98,-6000,-14000,187000,212496,
4552,-104,15640,-463,211,-117,-6000,-14000,187000,212508,
4432,-168,15596,-511,181,-138,-6000,-14000,187000,212511,
4408,-312,15516,-444,236,-107,-6000,-14000,187000,212513,
4404,-196,15560,-456,166,-147,-6000,-14000,187000,212525,
4484,-156,15764,-475,184,-139,-6000,-14000,187000,212528,
4596,-140,15612,-462,147,-155,-6000,-14000,187000,212530,
4400,-164,15652,-499,99,-130,-6000,-14000,187000,212542,
4448,-124,15560,-472,74,-103,-6000,-14000,187000,212545,
4532,-84,15704,-503,106,-140,-7000,-14000,187000,212547,
4504,-80,15448,-507,-17,-135,-7000,-14000,187000,212560,
4516,-236,15396,-492,75,-155,-7000,-14000,187000,212562,
4436,-76,15576,-530,82,-165,-7000,-14000,187000,212564,
4576,-176,15540,-491,155,-178,-7000,-14000,187000,212577,
4568,-264,15396,-515,125,-190,-7000,-14000,187000,212579,
4568,-196,15528,-481,166,-190,-7000,-14000,187000,212581,
4360,-168,15528,-486,174,-149,-7000,-14000,187000,212593,
4580,-88,15480,-472,168,-146,-7000,-14000,187000,212596,
4396,-168,15508,-455,151,-152,-7000,-14000,187000,212598,
4468,-132,15580,-507,119,-125,-7000,-14000,187000,212610,
4408,-100,15664,-521,79,-114,-7000,-14000,187000,212613,
4408,-148,15672,-498,63,-88,-7000,-14000,187000,212615,
4652,-140,15784,-576,-21,-65,-7000,-14000,187000,212628,
4684,-120,15864,-572,54,-86,-7000,-14000,187000,212630,
4744,-96,15716,-616,-10,-105,-7000,-14000,187000,212632,
5052,-68,15656,-681,265,-167,-7000,-14000,187000,212645,
5012,-136,15664,-694,309,-136,-7000,-14000,187000,212647,
4944,-116,15640,-696,338,-136,-7000,-14000,187000,212649,
5052,-112,15984,-868,660,-163,-7000,-14000,187000,212662,
5176,104,15868,-937,621,-148,-7000,-14000,187000,212664,
5056,32,16044,-953,758,-180,-7000,-14000,187000,212666,
5252,-24,16420,-1284,886,-107,-7000,-14000,187000,212679,
5244,60,16428,-1322,1005,-86,-7000,-14000,187000,212681,
5328,96,16524,-1449,1118,-61,-7000,-14000,187000,212683,
6032,-72,16396,-1711,2329,-177,-7000,-14000,187000,212696,
6084,-148,16468,-1719,2658,-197,-7000,-14000,186000,212698,
6200,-244,16356,-1660,3088,-322,-7000,-14000,186000,212700,
6284,-304,16032,-1741,5727,-761,-7000,-13000,186000,212713,
6244,-240,16048,-1612,6117,-859,-7000,-13000,186000,212715,
6204,-236,15880,-1655,6473,-964,-7000,-13000,186000,212717,
5152,-216,15552,-1552,7790,-1287,-7000,-12000,186000,212730,
4940,-332,15692,-1627,7858,-1283,-7000,-12000,186000,212732,
4764,-344,15684,-1569,7901,-1260,-7000,-12000,186000,212734,
4224,-412,16556,-1752,7594,-1184,-7000,-11000,186000,212747,
4076,-320,16468,-1851,7393,-1176,-7000,-11000,186000,212749,
4204,-408,16636,-1866,7378,-1177,-7000,-11000,186000,212752,
4680,-296,16860,-2194,7367,-1056,-7000,-10000,185000,212764,
4740,-376,17308,-2199,7540,-1034,-7000,-10000,185000,212766,
4824,-424,17092,-2337,7779,-977,-7000,-10000,185000,212769,
5636,-652,16272,-2133,9443,-831,-8000,-9000,185000,212781,
5664,-700,16048,-2122,9629,-829,-8000,-9000,185000,212784,
5564,-812,16112,-1972,10031,-830,-8000,-9000,185000,212786,
4704,-1140,15760,-1190,11850,-1051,-8000,-8000,185000,212799,
4792,-1360,16132,-856,12248,-1134,-8000,-8000,185000,212801,
4376,-1488,15860,-595,12775,-1237,-8000,-8000,185000,212803,
3640,-1360,15680,108,14597,-1754,-8000,-6000,184000,212816,
3548,-1156,15988,183,14872,-1876,-8000,-6000,184000,212818,
3480,-1016,15932,303,15099,-1967,-7000,-6000,184000,212820,
2128,-392,16016,469,15011,-2486,-7000,-4000,184000,212833,
1728,-412,16024,409,14780,-2542,-7000,-4000,184000,212835,
1348,-304,16392,598,14578,-2601,-7000,-4000,184000,212838,
484,-468,16228,467,12960,-2572,-7000,-3000,183000,212850,
268,-380,15912,441,12598,-2562,-7000,-2000,183000,212853,
20,-328,16092,373,12177,-2543,-7000,-2000,183000,212855,
-896,-256,16132,146,9801,-2542,-7000,-1000,183000,212867,
-1020,-380,15996,74,9352,-2479,-7000,-1000,183000,212870,
-1028,-332,15928,24,8912,-2362,-7000,-1000,182000,212872,
-1064,-372,15560,73,6858,-2319,-7000,0,182000,212885,
-1100,-484,15460,168,6440,-2332,-7000,0,182000,212887,
-1280,-544,15464,187,6051,-2326,-7000,0,182000,212889,
-1484,-648,15212,288,5697,-2211,-7000,0,182000,212892,
-1620,-680,15428,667,3371,-1734,-7000,0,182000,212904,
-1824,-736,15292,821,2820,-1711,-7000,0,182000,212906,
-1872,-708,15316,893,2214,-1675,-7000,0,182000,212909,
-1520,-396,15400,1351,-271,-1293,-7000,0,182000,212921,
-1376,-480,15544,1346,-639,-1231,-7000,0,182000,212924,
-1316,-444,15472,1411,-910,-1203,-7000,0,182000,212926,
-392,-448,15772,1582,-2091,-1386,-6000,0,181000,212938,
-504,-372,15732,1636,-2204,-1456,-6000,0,181000,212941,
-552,-320,15836,1619,-2409,-1454,-6000,0,181000,212943,
-620,-260,16000,1580,-3009,-1311,-6000,0,181000,212956,
-564,-240,16012,1510,-3139,-1248,-6000,0,181000,212958,
-440,-180,15956,1509,-3110,-1265,-6000,0,181000,212960,
412,84,15916,1190,-3073,-1162,-6000,-1000,181000,212973,
520,164,15828,1221,-2868,-1167,-6000,-1000,181000,212975,
604,188,15880,1109,-2843,-1222,-6000,-1000,181000,212977,
696,208,15508,946,-2006,-1323,-6000,-1000,181000,212990,
568,224,15400,837,-1945,-1321,-6000,-1000,181000,212992,
652,184,15356,836,-1715,-1350,-6000,-1000,181000,212994,
540,228,15352,550,-1229,-1313,-6000,-1000,181000,213007,
504,220,15116,582,-1127,-1318,-6000,-1000,181000,213009,
532,252,15004,462,-1057,-1310,-6000,-1000,181000,213011,
352,252,15184,210,-887,-1407,-6000,-1000,181000,213024,
320,232,15292,80,-928,-1445,-6000,-1000,181000,213026,
352,196,15204,107,-830,-1433,-5000,-1000,181000,213028,
140,148,15116,-49,-761,-1180,-5000,-1000,181000,213041,
68,104,15176,-30,-666,-1103,-5000,-1000,181000,213043,
164,-36,14972,-13,-771,-1045,-5000,-1000,181000,213045,
-96,-212,15224,169,-669,-745,-5000,-1000,181000,213058,
-132,-140,15324,236,-763,-685,-5000,-1000,181000,213060,
-68,-64,15412,260,-771,-649,-5000,-1000,181000,213063,
-272,196,15956,222,-917,-464,-5000,-2000,180000,213075,
-212,168,15924,219,-803,-469,-5000,-2000,180000,213077,
-268,276,16000,152,-833,-451,-5000,-2000,180000,213080,
-356,232,16364,20,-542,-436,-5000,-2000,180000,213092,
-348,132,16112,84,-453,-446,-5000,-2000,180000,213094,
-500,64,16296,48,-451,-402,-5000,-2000,180000,213097,
-568,-56,16356,88,-373,-393,-5000,-2000,180000,213099,
-1220,-320,16340,215,-398,32,-5000,-2000,180000,213112,
-1296,-324,16364,309,-411,145,-5000,-2000,180000,213114,
-1596,-292,16460,311,-451,227,-5000,-2000,180000,213116,
-2284,-576,16736,757,-649,855,-5000,-2000,180000,213129,
-2368,-496,16940,746,-699,991,-5000,-2000,181000,213131,
-2520,-636,16936,854,-812,1126,-5000,-2000,181000,213133,
-2996,-520,17296,1025,-1137,1972,-5000,-2000,181000,213146,
-3076,-476,17504,1111,-1205,2138,-5000,-2000,181000,213148,
-3112,-508,17580,1102,-1237,2257,-5000,-2000,181000,213150,
-3188,-600,17568,1413,-1594,3133,-5000,-2000,181000,213163,
-3204,-528,17636,1441,-1552,3297,-5000,-2000,181000,213165,
-3216,-632,17560,1483,-1656,3449,-5000,-2000,181000,213168,
-3296,-376,17620,1756,-1728,4271,-4000,-2000,182000,213180,
-3500,-348,17648,1794,-1729,4439,-4000,-2000,182000,213183,
-3492,-404,17572,1850,-1648,4559,-4000,-2000,182000,213185,
-3632,-416,17564,2069,-1554,5499,-4000,-2000,182000,213198,
-3712,-560,17552,2189,-1454,5613,-4000,-2000,182000,213200,
-3836,-600,17696,2175,-1457,5817,-4000,-2000,183000,213202,
-4320,-824,17560,2509,-1301,6910,-4000,-2000,183000,213215,
-4348,-824,17464,2563,-1400,7159,-4000,-2000,183000,213217,
-4436,-880,17412,2668,-1396,7322,-4000,-2000,184000,213219,
-4956,-908,17492,3010,-1741,8615,-4000,-2000,184000,213232,
-5016,-1044,17204,2989,-1840,8847,-4000,-2000,185000,213234,
-5044,-1004,17460,3098,-1968,9142,-3000,-2000,185000,213237,
-5080,-1076,17108,3337,-2740,10338,-3000,-2000,186000,213249,
-5144,-1004,17036,3455,-2883,10627,-3000,-2000,186000,213251,
-5068,-1008,17052,3494,-3080,10903,-3000,-2000,186000,213254,
-4792,-808,16612,3703,-3501,12053,-3000,-2000,187000,213266,
-4640,-820,16660,3686,-3617,12549,-3000,-2000,187000,213269,
-4408,-732,16532,3731,-3560,12618,-3000,-2000,188000,213271,
-3460,-628,16348,3719,-3598,13848,-2000,-2000,189000,213284,
-3244,-580,16112,3724,-3552,14015,-2000,-2000,189000,213286,
-3028,-652,16136,3701,-3600,14242,-2000,-2000,190000,213288,
-2396,-652,15908,3717,-3135,15120,-2000,-2000,191000,213301,
-2364,-728,15836,3685,-3168,15342,-2000,-2000,191000,213303,
-2200,-892,15912,3735,-3046,15451,-2000,-3000,192000,213305,
-1912,-1168,15720,3670,-2570,16278,-2000,-3000,193000,213318,
-1888,-1192,15904,3756,-2395,16336,-2000,-3000,193000,213320,
-1456,-1272,15528,3741,-2442,17244,-1000,-3000,195000,213332,
-1384,-1416,15592,3795,-2432,17318,-1000,-3000,195000,213335,
-1324,-1284,15632,3725,-2499,17508,-1000,-3000,196000,213337,
-576,-1336,15292,3539,-2424,18284,-1000,-3000,197000,213349,
-584,-1476,15260,3556,-2367,18376,-1000,-3000,198000,213352,
-288,-1520,15272,3496,-2358,18568,-1000,-3000,198000,213354,
492,-1668,14896,3511,-2163,19008,-1000,-3000,200000,213367,
704,-1608,14988,3439,-2183,19098,-1000,-3000,200000,213369,
672,-1696,14600,3430,-2102,19161,-1000,-3000,201000,213371,
1360,-1576,14900,3223,-2463,19801,-1000,-3000,203000,213384,
1672,-1648,14968,3250,-2479,19866,0,-4000,203000,213386,
1796,-1768,15124,3147,-2578,19950,0,-4000,203000,213388,
2348,-2088,15184,2912,-2286,19918,0,-4000,205000,213401,
2480,-2048,15212,2873,-2354,19987,0,-4000,205000,213403,
2612,-2096,15244,2883,-2213,19935,0,-4000,206000,213405,
3092,-2108,15532,2718,-2409,19905,0,-4000,208000,213418,
3132,-2040,15672,2777,-2390,19816,0,-4000,208000,213420,
3176,-2156,15680,2716,-2489,19820,0,-4000,208000,213423,
4304,-1940,15808,2803,-2928,19719,0,-5000,210000,213435,
4528,-1912,15736,2767,-2903,19693,0,-5000,211000,213438,
4696,-1864,15736,2820,-2750,19505,0,-5000,211000,213440,
5380,-1724,15612,2898,-2301,19080,0,-5000,213000,213452,
5544,-1716,15628,2866,-2128,18972,0,-5000,213000,213455,
5708,-1740,15800,2854,-2048,18976,0,-5000,214000,213457,
5944,-1476,15368,3006,-1073,18398,0,-5000,215000,213470,
6252,-1432,15472,3096,-949,18369,0,-5000,216000,213472,
6296,-1360,15288,3132,-793,18185,0,-5000,216000,213474,
6704,-992,15264,3342,82,17821,0,-5000,218000,213487,
6568,-996,15176,3389,397,17564,0,-5000,218000,213489,
6480,-952,15116,3349,565,17470,0,-5000,218000,213491,
6444,-768,15168,3461,838,17262,0,-5000,219000,213494,
6776,-204,15076,3446,1411,16761,0,-5000,220000,213506,
6844,-68,14936,3493,1557,16664,0,-5000,221000,213509,
6940,128,14812,3422,1728,16526,0,-5000,221000,213511,
7800,264,14992,3389,2077,16023,0,-5000,222000,213523,
7888,340,15368,3333,2107,15877,0,-5000,223000,213526,
7804,292,15436,3367,2171,15639,0,-5000,223000,213528,
7752,404,15468,3243,2297,15361,0,-5000,223000,213530,
7336,580,15616,3087,2606,14431,0,-5000,225000,213543,
7508,480,15424,2999,2416,14379,0,-5000,225000,213545,
7624,492,15628,3024,2210,14401,0,-5000,225000,213548,
8844,1064,14452,2924,1889,13713,0,-5000,227000,213560,
9000,1072,15428,3026,1808,13556,0,-5000,227000,213562,
9068,1256,16168,3103,1857,13294,0,-5000,227000,213565,
9488,1540,15368,3013,2301,12270,0,-5000,228000,213577,
9444,1468,15028,2991,2468,11790,0,-5000,228000,213580,
9252,1380,15072,2954,2484,11623,1000,-5000,229000,213582,
8740,1248,14628,2814,3166,10480,1000,-5000,230000,213594,
8824,1300,14260,2777,3306,10299,1000,-5000,230000,213597,
8800,1460,14324,2763,3384,10228,1000,-5000,230000,213599,
9072,1972,14084,2426,3941,9190,1000,-5000,231000,213612,
9040,1988,14020,2343,4061,8944,1000,-5000,231000,213614,
8960,1924,13808,2280,4215,8690,1000,-5000,231000,213616,
8012,1888,13764,1713,4616,7638,1000,-4000,232000,213629,
7700,1812,13760,1665,4749,7417,1000,-4000,232000,213631,
7428,1864,13596,1502,4913,7298,1000,-4000,232000,213633,
6988,2068,13172,976,5313,6904,1000,-4000,233000,213646,
6936,2128,13148,858,5299,6850,1000,-4000,233000,213648,
6996,2232,13080,828,5401,6774,1000,-4000,233000,213650,
6744,2296,12832,334,5779,6224,1000,-3000,234000,213663,
6632,2332,12760,290,5828,6113,1000,-3000,234000,213665,
6584,2220,12736,200,5966,5990,1000,-3000,234000,213667,
5896,2296,13264,-422,6167,5748,1000,-3000,234000,213680,
5772,2292,13340,-564,6237,5618,1000,-3000,235000,213682,
5680,2336,13468,-694,6262,5579,1000,-3000,235000,213685,
5664,2220,14340,-1295,5939,5183,1000,-2000,235000,213697,
5696,2332,14480,-1435,5818,5130,1000,-2000,235000,213700,
5764,2332,14656,-1524,5747,5071,1000,-2000,235000,213702,
5828,2144,15320,-1979,5119,4276,1000,-2000,236000,213714,
5764,2112,15188,-1986,4996,4202,1000,-1000,236000,213717,
5728,1988,15220,-2040,4842,4097,1000,-1000,236000,213719,
6036,1816,15180,-2058,4246,3499,1000,-1000,236000,213732,
6088,1860,15428,-2113,4061,3405,1000,-1000,236000,213734,
6176,1844,15268,-2019,3978,3266,1000,-1000,236000,213736,
6496,1912,15416,-2016,3536,2278,1000,-1000,237000,213749,
6688,1896,15376,-1918,3631,2136,1000,-1000,237000,213751,
6880,1920,15276,-1956,3482,1985,0,-1000,237000,213753,
7400,1936,15888,-1812,3156,903,0,-1000,237000,213766,
7408,1892,15936,-1832,2976,640,0,-1000,237000,213768,
7400,1916,15960,-1778,2955,374,0,-1000,237000,213771,
7228,1920,15852,-1802,2785,106,0,-1000,237000,213773,
7256,1756,16248,-1655,1836,-1056,0,0,237000,213785,
7380,1736,16196,-1623,1717,-1305,0,0,237000,213788,
7344,1720,16196,-1615,1486,-1509,0,0,237000,213790,
7452,1584,16132,-1427,661,-2774,0,-1000,236000,213803,
7532,1664,16032,-1350,541,-2986,0,-1000,236000,213805,
7440,1532,16004,-1327,466,-3213,0,-1000,236000,213807,
7460,1680,16012,-1306,284,-3458,0,-1000,236000,213810,
7220,1600,16208,-1164,-329,-4880,0,-1000,236000,213822,
7252,1584,15988,-1125,-484,-5140,0,-1000,236000,213825,
7216,1644,16064,-1136,-615,-5376,0,-1000,236000,213827,
7172,1568,15744,-923,-1433,-6358,0,-1000,235000,213839,
7180,1520,15892,-945,-1663,-6572,0,-1000,235000,213842,
7320,1584,16056,-849,-1712,-6806,0,-1000,235000,213844,
7260,1512,16020,-801,-2597,-8081,0,-2000,234000,213856,
7312,1408,16016,-772,-2646,-8277,0,-2000,234000,213859,
7192,1368,16076,-780,-2793,-8498,0,-2000,234000,213861,
7152,1204,16056,-645,-3391,-9565,0,-2000,233000,213873,
7104,1176,16012,-622,-3544,-9800,0,-2000,233000,213876,
7176,1096,16124,-634,-3544,-9965,0,-2000,232000,213878,
6900,1072,15984,-489,-3850,-10904,0,-3000,231000,213890,
6900,992,15808,-514,-3813,-11059,0,-3000,231000,213893,
6900,952,15952,-483,-3844,-11233,0,-3000,231000,213895,
6660,940,15992,-543,-3428,-12069,0,-3000,230000,213907,
6640,888,15928,-504,-3281,-12242,0,-4000,230000,213910,
6704,896,16040,-559,-3163,-12334,0,-4000,229000,213912,
6740,688,15936,-597,-2739,-13061,0,-4000,228000,213924,
6704,684,15992,-643,-2716,-13170,0,-4000,228000,213927,
6708,668,16012,-629,-2610,-13308,0,-4000,228000,213929,
7072,412,15604,-649,-2252,-14096,0,-4000,226000,213941,
7040,344,15500,-670,-2180,-14223,0,-5000,226000,213944,
6920,316,15340,-647,-2186,-14353,0,-5000,226000,213946,
6708,-20,15224,-633,-1910,-15266,0,-5000,224000,213958,
6608,-176,15320,-548,-1778,-15434,0,-5000,224000,213961,
6348,-384,15176,-588,-1804,-15630,0,-5000,224000,213963,
5012,-336,15452,-665,-1548,-16470,0,-5000,222000,213975,
4900,-360,15580,-689,-1432,-16548,0,-5000,222000,213978,
4796,-440,15792,-780,-1295,-16599,0,-5000,222000,213980,
4576,-492,15940,-958,-1193,-16865,0,-5000,220000,213992,
4244,-336,15912,-1341,-948,-16959,0,-6000,218000,214010,
4204,-376,15724,-1344,-782,-16948,0,-6000,217000,214012,
4184,-276,15720,-1358,-652,-16965,0,-6000,217000,214015,
4244,-564,15512,-1292,-331,-17241,0,-6000,215000,214027,
4008,-572,15500,-1304,-364,-17316,0,-6000,215000,214030,
3880,-480,15532,-1232,-385,-17355,0,-6000,215000,214032,
3376,-500,15388,-1133,-734,-17392,0,-6000,213000,214044,
3304,-380,15188,-1173,-950,-17480,0,-6000,213000,214047,
3216,-260,15396,-1211,-964,-17430,0,-6000,213000,214049,
3124,-60,15404,-1445,-650,-17708,0,-6000,211000,214062,
3168,-60,15400,-1530,-404,-17746,0,-6000,211000,214064,
3276,-20,15240,-1641,-295,-17868,1000,-6000,210000,214066,
3116,-196,15132,-2087,883,-18223,0,-6000,208000,214079,
3008,-248,15192,-2215,1046,-18301,0,-6000,208000,214081,
2932,-236,14952,-2265,1321,-18255,0,-6000,208000,214083,
2336,-264,14708,-2684,2557,-18372,0,-6000,206000,214096,
2196,-244,14728,-2691,2682,-18279,0,-5000,206000,214098,
2096,-300,14672,-2745,2683,-18312,0,-5000,205000,214101,
1168,-292,14336,-2524,2051,-17634,0,-5000,204000,214113,
1080,-320,14292,-2453,1843,-17536,0,-5000,203000,214115,
956,-336,14504,-2400,1691,-17370,0,-5000,203000,214118,
276,-316,14812,-2301,1132,-17035,0,-5000,201000,214130,
256,-332,14700,-2283,1173,-16945,0,-5000,201000,214133,
104,-284,14720,-2335,1165,-16969,0,-5000,201000,214135,
-184,-276,14724,-2554,1441,-16818,0,-5000,199000,214147,
-168,-216,14828,-2616,1619,-16785,0,-5000,199000,214150,
-188,-124,14792,-2675,1706,-16700,0,-5000,199000,214152,
-252,-84,14948,-3145,2749,-16394,0,-4000,197000,214165,
-228,-60,14976,-3206,2909,-16360,0,-4000,197000,214167,
-208,-68,15204,-3329,2969,-16364,0,-4000,196000,214169,
-968,212,15424,-3973,2786,-16174,0,-4000,195000,214182,
-1060,168,15508,-4080,2591,-16209,0,-4000,195000,214184,
-1176,8,15272,-4068,2402,-16125,0,-4000,194000,214187,
-1880,-496,15096,-4002,543,-15460,0,-4000,193000,214199,
-1956,-664,15288,-3865,356,-15245,0,-4000,193000,214201,
-2160,-716,15236,-3832,67,-15113,0,-4000,192000,214204,
-2512,-1000,15352,-3437,-1396,-14443,0,-4000,191000,214216,
-2600,-912,15412,-3459,-1627,-14406,0,-4000,191000,214218,
-2524,-1024,15608,-3381,-1630,-14217,0,-4000,190000,214221,
-1848,-844,16144,-3577,-1356,-13700,-1000,-4000,189000,214233,
-1780,-744,16276,-3529,-1148,-13590,-1000,-4000,189000,214235,
-1588,-840,16320,-3605,-1036,-13584,-1000,-4000,189000,214238,
-1636,-868,16448,-3485,37,-12946,-1000,-4000,187000,214250,
-1668,-788,16700,-3542,188,-12846,-1000,-4000,187000,214253,
-1780,-836,16684,-3440,441,-12665,-1000,-4000,187000,214255,
-2236,-888,16968,-3370,1159,-11799,-1000,-4000,186000,214268,
-2268,-828,16968,-3325,1297,-11601,-1000,-4000,186000,214270,
-2324,-736,17196,-3305,1340,-11495,-1000,-4000,185000,214272,
-2620,-552,17216,-3227,1803,-10639,-2000,-3000,184000,214285,
-2752,-416,16968,-3119,1867,-10464,-2000,-3000,184000,214287,
-2748,-468,17224,-3106,1840,-10307,-2000,-3000,184000,214289,
-3256,-332,17336,-2687,1741,-9604,-2000,-3000,183000,214302,
-3152,-268,17556,-2642,1652,-9457,-2000,-3000,183000,214304,
-3280,-288,17328,-2562,1605,-9356,-2000,-3000,183000,214307,
-3496,-204,17380,-2308,1009,-8665,-2000,-3000,182000,214319,
-3448,-268,17300,-2242,877,-8527,-2000,-3000,182000,214321,
-3228,0,17324,-2030,364,-7848,-2000,-3000,181000,214334,
-3152,100,17448,-1971,286,-7688,-2000,-3000,181000,214336,
-3088,-28,17292,-1939,136,-7601,-2000,-3000,181000,214339,
-2852,16,16988,-1476,-334,-6892,-2000,-3000,180000,214351,
-2732,12,16940,-1411,-386,-6702,-2000,-3000,180000,214354,
-2832,-68,16980,-1337,-499,-6605,-2000,-3000,180000,214356,
-2476,24,17032,-1036,-507,-5952,-2000,-3000,179000,214368,
-2472,104,17024,-1028,-444,-5863,-3000,-3000,179000,214371,
-2552,16,16956,-1000,-478,-5782,-3000,-3000,179000,214373,
-2360,416,17040,-937,-169,-5190,-3000,-3000,179000,214386,
-2224,456,16940,-984,-172,-5103,-3000,-3000,178000,214388,
-2160,488,16952,-928,-44,-4969,-3000,-3000,178000,214390,
-2288,328,16572,-918,165,-4321,-3000,-3000,178000,214403,
-2084,420,16808,-858,275,-4222,-3000,-3000,178000,214405,
-2064,544,16620,-783,283,-4158,-3000,-3000,178000,214407,
-2284,560,16524,-693,584,-3709,-3000,-2000,177000,214420,
-2288,652,16356,-741,440,-3615,-3000,-2000,177000,214422,
-2284,660,16288,-689,528,-3490,-3000,-2000,177000,214424,
-2200,564,16392,-611,383,-2696,-3000,-2000,177000,214437,
-2136,608,16308,-565,366,-2609,-3000,-2000,177000,214439,
-1964,564,16264,-522,412,-2540,-3000,-2000,177000,214442,
-1944,748,15936,-486,309,-2156,-3000,-2000,177000,214454,
-1952,724,15960,-414,321,-2024,-3000,-2000,177000,214456,
-1972,712,15956,-435,269,-1958,-3000,-2000,177000,214459,
-1896,684,15852,-343,206,-1453,-3000,-2000,177000,214471,
-1852,580,15860,-374,112,-1375,-3000,-2000,177000,214474,
-1940,624,15724,-359,128,-1303,-3000,-2000,176000,214476,
-1728,644,16144,-469,-256,-867,-3000,-2000,176000,214488,
-1940,700,16192,-534,-434,-815,-3000,-2000,176000,214491,
-1832,648,16184,-533,-510,-740,-3000,-2000,176000,214493,
-1576,712,16012,-619,-1170,-364,-3000,-2000,176000,214506,
-1544,604,15968,-559,-1303,-293,-3000,-2000,176000,214508,
-1560,580,16088,-608,-1441,-249,-3000,-2000,176000,214510,
-1132,480,15760,-426,-2077,187,-3000,-2000,176000,214523,
-1148,632,15804,-360,-2171,248,-3000,-2000,176000,214525,
-1004,748,15700,-399,-2309,303,-3000,-2000,176000,214527,
-296,900,15592,-358,-2714,615,-3000,-3000,176000,214540,
-324,988,15696,-260,-2691,690,-3000,-3000,176000,214542,
-72,908,15696,-338,-2818,676,-3000,-3000,176000,214545,
172,1032,15796,-292,-2941,758,-3000,-3000,177000,214557,
248,976,16004,-334,-2925,761,-3000,-3000,177000,214559,
232,948,15732,-299,-2922,771,-3000,-3000,177000,214562,
796,932,15528,-473,-2767,794,-3000,-3000,177000,214574,
928,932,15680,-440,-2769,758,-3000,-3000,177000,214576,
792,772,15476,-485,-2705,757,-3000,-3000,177000,214579,
1188,724,15344,-559,-2249,853,-3000,-4000,177000,214591,
1296,852,15488,-629,-2232,826,-3000,-4000,177000,214594,
1528,896,15412,-570,-2079,849,-3000,-4000,177000,214596,
1580,916,15292,-722,-1579,940,-3000,-4000,177000,214608,
1692,936,15416,-684,-1443,917,-3000,-4000,177000,214611,
1708,880,15544,-761,-1420,929,-3000,-4000,177000,214613,
1648,908,15772,-857,-1061,919,-3000,-4000,177000,214626,
1672,880,15732,-954,-1068,925,-3000,-4000,177000,214628,
1800,916,15836,-936,-963,894,-3000,-4000,177000,214630,
1816,724,15996,-1073,-880,814,-3000,-4000,177000,214643,
1820,700,16052,-1028,-852,741,-3000,-4000,177000,214645,
1832,720,15904,-1107,-942,721,-3000,-4000,177000,214648,
1772,744,16116,-987,-956,594,-3000,-4000,177000,214660,
1692,528,16224,-1014,-1046,559,-3000,-4000,177000,214662,
1728,640,16016,-948,-983,546,-3000,-4000,177000,214665,
1980,708,16040,-888,-1121,432,-3000,-4000,177000,214677,
1932,688,16108,-788,-1139,431,-3000,-4000,177000,214680,
2076,780,16316,-842,-1230,430,-3000,-4000,177000,214682,
2256,788,16324,-714,-1221,337,-3000,-5000,177000,214694,
2156,796,16152,-768,-1281,298,-3000,-5000,177000,214697,
2232,848,16092,-672,-1179,310,-3000,-5000,177000,214699,
