Ax,Ay,Az,Gx,Gy,Gz,Roll,Pitch,Yaw,Timestamp,Target
9828,828,12972,-541,82,-162,-2000,-35000,26000,1247303,
9928,796,13192,-464,116,-156,-2000,-35000,26000,1247316,
9872,804,13088,-489,58,-134,-2000,-35000,26000,1247318,
9924,812,13112,-473,98,-131,-2000,-35000,26000,1247321,
9860,828,13232,-494,72,-157,-2000,-35000,26000,1247334,
9916,884,13068,-462,143,-120,-2000,-35000,26000,1247336,
9864,888,13072,-503,134,-163,-2000,-35000,26000,1247338,
9940,812,13128,-486,151,-154,-2000,-35000,26000,1247351,
10004,880,13124,-502,151,-155,-2000,-35000,26000,1247354,
9916,784,13128,-495,139,-151,-2000,-35000,26000,1247356,
9924,860,13064,-498,114,-138,-2000,-35000,26000,1247368,
9988,836,13152,-485,89,-127,-2000,-35000,26000,1247371,
9976,748,13144,-473,158,-143,-2000,-35000,26000,1247373,
9932,784,13168,-481,138,-114,-2000,-35000,26000,1247386,
9960,760,13080,-528,69,-101,-2000,-35000,26000,1247388,
10036,692,13100,-465,139,-128,-2000,-35000,26000,1247391,
10024,684,130,-7036,13984,-666,-94,-176,-31000,-12000,
4416,-6940,14148,-672,-69,-145,-31000,-12000,48000,1249772,
4280,-6932,13868,-342,404,-323,-31000,-12000,49000,1249514,
3688,-6952,13636,-1765,-1429,1501,-30000,-12000,49000,1249359,
3728,-7060,13584,-1758,-1336,1435,-30000,-12000,4,-35000,
9964,804,13100,-483,97,-125,-2000,-35000,26000,1247438,
9940,808,13264,-472,140,-154,-2000,-35000,26000,1247440,
9944,820,13240,-453,126,-164,-2000,-35000,26000,1247443,
9900,756,13068,-501,145,-145,-2000,-35000,26000,1247455,
9932,820,13076,-439,199,-174,-2000,-35000,26000,1247458,
9956,872,13172,-487,149,-138,-2000,-35000,26000,1247460,
9816,824,13128,-464,185,-155,-2000,-35000,26000,1247473,
9844,720,13108,-496,79,-136,-2000,-35000,26000,1247475,
9884,844,13048,-460,102,-156,-2000,-35000,26000,1247477,
9920,852,13204,-516,56,-173,-2000,-35000,26000,1247490,
9956,832,13148,-480,118,-161,-2000,-35000,26000,1247492,
10004,836,13056,-505,70,-148,-2000,-35000,26000,1247495,
10000,840,13116,-532,108,-152,-2000,-35000,26000,1247507,
10040,900,13080,-476,206,-184,-2000,-35000,26000,1247510,
9992,784,13124,-539,85,-134,-2000,-35000,26000,1247512,
10004,808,13076,-441,178,-185,-2000,-35000,26000,1247525,
9820,704,13068,-503,117,-168,-2000,-35000,26000,1247527,
9924,764,13012,-460,188,-183,-2000,-35000,26000,1247530,
9964,740,13152,-495,42,-217,-2000,-35000,26000,1247542,
9980,756,13188,-449,91,-185,-2000,-35000,26000,1247544,
9860,912,13192,-496,50,-190,-2000,-35000,25000,1247547,
10032,928,13116,-483,26,-180,-2000,-35000,25000,1247559,
10028,920,13104,-501,91,-160,-2000,-35000,25000,1247562,
10064,872,13188,-529,5,-167,-2000,-35000,25000,1247564,
9876,848,13044,-506,99,-158,-2000,-35000,25000,1247576,
9852,804,13136,-505,7,-162,-2000,-35000,25000,1247579,
9888,856,13000,-480,88,-162,-2000,-35000,25000,1247581,
9932,776,13016,-494,-26,-153,-2000,-35000,25000,1247594,
9896,880,13000,-465,35,-183,-2000,-35000,25000,1247596,
9888,812,12968,-517,-33,-182,-2000,-35000,25000,1247598,
10040,696,13004,-470,193,-119,-2000,-35000,25000,1247611,
9932,872,13144,-494,142,-124,-2000,-35000,25000,1247613,
9872,796,13056,-471,222,-133,-2000,-35000,25000,1247616,
9924,704,13156,-476,173,-153,-2000,-35000,25000,1247628,
9832,668,13160,-523,84,-141,-2000,-35000,25000,1247631,
9952,680,13084,-467,114,-147,-2000,-35000,25000,1247633,
9952,732,13204,-518,55,-146,-2000,-35000,25000,1247646,
10020,808,13184,-455,117,-97,-2000,-35000,25000,1247648,
10032,864,13252,-524,42,-129,-2000,-35000,25000,1247651,
9976,884,13192,-475,147,-109,-2000,-35000,25000,1247663,
10024,780,13016,-526,119,-141,-2000,-35000,25000,1247666,
9976,704,13004,-460,144,-122,-2000,-35000,25000,1247668,
9876,724,13044,-506,92,-143,-2000,-35000,25000,1247680,
9956,716,13144,-473,174,-133,-2000,-35000,25000,1247683,
9936,776,13188,-497,94,-135,-2000,-35000,25000,1247685,
9964,940,13140,-468,103,-155,-2000,-35000,25000,1247698,
9840,848,13100,-491,120,-146,-2000,-35000,25000,1247700,
10036,820,13188,-475,120,-137,-2000,-35000,25000,1247703,
9992,752,13096,-521,88,-135,-2000,-35000,25000,1247715,
9772,856,13128,-484,73,-148,-2000,-35000,25000,1247718,
9856,804,13176,-505,102,-142,-2000,-35000,25000,1247720,
9912,852,13248,-493,39,-157,-2000,-35000,25000,1247733,
9848,824,13288,-495,131,-145,-2000,-35000,25000,1247735,
9844,856,13168,-504,77,-158,-2000,-35000,25000,1247738,
9844,792,13048,-505,121,-163,-2000,-35000,25000,1247750,
9816,792,13168,-468,176,-163,-2000,-35000,25000,1247753,
9892,816,13184,-517,135,-177,-2000,-35000,25000,1247755,
9932,792,13260,-505,125,-197,-2000,-35000,25000,1247768,
9880,820,13084,-476,110,-167,-2000,-35000,25000,1247770,
9960,720,13132,-485,148,-151,-2000,-35000,25000,1247772,
10012,796,13128,-478,180,-165,-2000,-35000,25000,1247785,
10052,836,13252,-494,120,-161,-2000,-35000,25000,1247787,
10008,748,13148,-470,172,-138,-2000,-35000,25000,1247790,
9992,740,13208,-480,123,-149,-2000,-35000,25000,1247802,
9972,748,13152,-466,171,-161,-2000,-35000,25000,1247805,
10008,792,13228,-480,61,-130,-2000,-35000,25000,1247807,
10092,848,12932,-483,121,-166,-2000,-35000,25000,1247820,
10052,768,13192,-449,144,-134,-2000,-35000,25000,1247822,
10052,780,13128,-473,126,-157,-2000,-35000,25000,1247825,
10016,672,12944,-438,204,-158,-2000,-35000,25000,1247837,
10020,724,12988,-496,170,-151,-2000,-35000,25000,1247840,
10012,808,13088,-423,183,-169,-2000,-35000,25000,1247842,
9912,768,13052,-490,181,-152,-2000,-35000,25000,1247855,
10024,872,13024,-425,160,-148,-2000,-35000,25000,1247857,
9980,784,13216,-461,161,-145,-2000,-35000,25000,1247859,
9896,780,13136,-441,140,-140,-2000,-35000,24000,1247872,
9884,816,13136,-474,146,-159,-2000,-35000,24000,1247874,
9780,792,13124,-468,114,-137,-2000,-35000,24000,1247877,
9932,728,13228,-470,126,-147,-2000,-35000,24000,1247889,
9904,772,13208,-484,74,-169,-2000,-35000,24000,1247892,
9880,820,13104,-484,148,-145,-2000,-35000,24000,1247894,
9948,772,13160,-509,49,-129,-2000,-35000,24000,1247907,
9924,820,13112,-465,107,-140,-2000,-35000,24000,1247909,
9972,816,13340,-529,48,-135,-2000,-35000,24000,1247911,
9976,784,13060,-477,94,-160,-2000,-35000,24000,1247924,
9892,840,13108,-557,76,-139,-2000,-35000,24000,1247926,
9900,832,13064,-483,123,-129,-2000,-35000,24000,1247929,
9880,788,13152,-524,116,-155,-2000,-35000,24000,1247941,
9928,780,13140,-454,120,-152,-2000,-35000,24000,1247943,
9860,832,13132,-500,139,-171,-2000,-35000,24000,1247946,
9924,796,13104,-473,126,-177,-2000,-35000,24000,1247959,
9920,832,13084,-515,136,-145,-2000,-35000,24000,1247961,
9900,716,13224,-483,141,-175,-2000,-35000,24000,1247963,
9888,836,13152,-523,56,-155,-2000,-35000,24000,1247976,
9948,860,13196,-480,140,-170,-2000,-35000,24000,1247978,
9940,760,13284,-549,98,-162,-2000,-35000,24000,1247981,
9864,808,13172,-478,95,-184,-2000,-35000,24000,1247993,
9828,752,13088,-503,14,-184,-2000,-35000,24000,1247996,
9928,788,13144,-464,122,-158,-2000,-35000,24000,1247998,
9940,824,13208,-493,42,-159,-2000,-35000,24000,1248011,
9972,808,13144,-472,173,-194,-2000,-35000,24000,1248013,
9960,824,13192,-486,101,-182,-2000,-35000,24000,1248015,
9960,780,13128,-465,130,-158,-2000,-35000,24000,1248028,
9940,748,13252,-526,65,-178,-2000,-35000,24000,1248030,
9972,744,13172,-446,120,-170,-2000,-35000,24000,1248033,
9920,768,13052,-491,107,-157,-2000,-35000,24000,1248045,
9832,716,13160,-447,135,-175,-2000,-35000,24000,1248048,
9960,772,13140,-471,92,-161,-2000,-35000,24000,1248050,
9968,864,13168,-441,120,-153,-2000,-35000,24000,1248063,
9992,804,13172,-448,117,-173,-2000,-35000,24000,1248065,
9920,816,13224,-446,120,-180,-2000,-35000,24000,1248067,
9920,708,13100,-428,203,-148,-2000,-35000,24000,1248080,
9916,732,13208,-468,88,-147,-2000,-35000,24000,1248082,
10068,720,13100,-443,177,-175,-2000,-35000,24000,1248085,
9904,720,13004,-440,150,-159,-2000,-35000,24000,1248097,
9920,780,12960,-454,155,-144,-2000,-35000,24000,1248100,
9980,756,13088,-440,207,-140,-2000,-35000,24000,1248102,
9916,812,13076,-427,179,-120,-2000,-35000,24000,1248115,
9864,812,13056,-497,160,-117,-2000,-35000,24000,1248117,
9984,752,12940,-412,170,-117,-2000,-35000,24000,1248119,
10012,864,13160,-458,130,-107,-2000,-35000,24000,1248132,
10040,912,13000,-460,155,-116,-2000,-35000,24000,1248134,
10012,880,13104,-456,107,-149,-2000,-35000,24000,1248137,
9988,696,13108,-516,106,-93,-2000,-35000,24000,1248149,
9880,768,13128,-454,143,-95,-2000,-35000,24000,1248152,
9896,804,13064,-534,104,-111,-2000,-35000,24000,1248154,
9948,688,13124,-461,146,-160,-2000,-35000,24000,1248167,
9884,768,13148,-527,53,-118,-2000,-35000,24000,1248169,
9840,692,13188,-450,129,-139,-2000,-35000,24000,1248171,
10016,836,13160,-497,128,-119,-2000,-35000,24000,1248184,
9900,880,13116,-452,156,-124,-2000,-35000,24000,1248186,
9824,756,13108,-505,167,-105,-2000,-35000,24000,1248188,
9804,816,13256,-451,144,-111,-2000,-35000,23000,1248201,
9760,852,13160,-496,130,-145,-2000,-35000,23000,1248203,
9904,792,13068,-442,101,-121,-2000,-35000,23000,1248205,
9844,860,13140,-448,96,-140,-2000,-35000,23000,1248218,
9984,856,13168,-439,83,-144,-2000,-35000,23000,1248220,
10024,816,13264,-448,118,-145,-2000,-35000,23000,1248223,
10060,900,13288,-418,137,-191,-2000,-35000,23000,1248235,
9984,800,13372,-376,220,-173,-2000,-35000,23000,1248238,
10120,820,13380,-438,125,-157,-2000,-35000,23000,1248240,
10140,604,13340,-292,290,-216,-2000,-35000,23000,1248253,
10188,648,13336,-297,276,-207,-2000,-35000,23000,1248255,
10136,656,13360,-268,324,-233,-2000,-35000,23000,1248258,
10244,716,13456,-158,466,-214,-2000,-35000,23000,1248270,
10276,700,13572,-175,507,-203,-2000,-35000,23000,1248273,
10192,740,13488,-76,555,-202,-2000,-35000,23000,1248275,
10264,900,13396,66,745,-240,-2000,-35000,23000,1248288,
10344,896,13608,126,846,-256,-2000,-35000,23000,1248290,
10200,896,13528,132,820,-269,-2000,-35000,23000,1248292,
10276,856,13964,395,1137,-333,-2000,-35000,23000,1248305,
10268,928,13748,410,1062,-376,-2000,-35000,23000,1248307,
10192,912,14000,505,1221,-349,-2000,-35000,23000,1248310,
10524,1072,14284,642,1324,-339,-1000,-35000,23000,1248322,
10464,1032,14180,662,1354,-357,-1000,-34000,23000,1248325,
10496,1176,14340,665,1299,-337,-1000,-34000,23000,1248327,
10408,1400,14292,789,1206,-251,-1000,-34000,23000,1248340,
10520,1480,14312,773,1073,-239,-1000,-34000,23000,1248342,
10472,1592,14256,809,1096,-213,-1000,-34000,23000,1248344,
10260,1760,14336,983,589,-111,-1000,-34000,23000,1248357,
10108,1796,14172,1042,476,-79,-1000,-34000,23000,1248359,
10116,1680,14084,1058,267,-55,-1000,-34000,23000,1248362,
9964,1716,14116,1425,-339,125,-1000,-34000,23000,1248374,
9852,1652,14044,1432,-578,145,-1000,-34000,23000,1248377,
9808,1476,13808,1509,-709,188,-1000,-34000,23000,1248379,
10156,1192,13940,1813,-2332,380,-1000,-35000,23000,1248392,
10316,1296,14432,1992,-2336,381,0,-35000,23000,1248394,
10352,1336,14680,2045,-2435,436,0,-35000,23000,1248397,
11028,1516,15408,2150,-2717,742,0,-35000,23000,1248409,
11152,1568,15340,2107,-2803,837,0,-35000,23000,1248411,
11356,1632,15524,2183,-2951,977,0,-35000,23000,1248414,
12000,1604,15564,2235,-2580,1272,0,-35000,23000,1248426,
12116,1528,15696,2298,-2290,1328,0,-35000,23000,1248429,
12076,1424,15700,2234,-2144,1356,0,-35000,23000,1248431,
11912,888,15444,2273,-680,1575,0,-35000,23000,1248444,
11956,836,15256,2219,-531,1600,0,-35000,23000,1248446,
11840,748,15236,2227,-288,1610,0,-35000,23000,1248449,
11804,708,15244,2114,-248,1612,0,-35000,23000,1248451,
11508,764,15388,2085,194,1790,0,-35000,24000,1248464,
11464,776,15372,2058,67,1879,0,-35000,24000,1248466,
11312,808,15640,2048,-30,1935,0,-35000,24000,1248468,
11240,1080,15916,1753,-1393,2362,0,-36000,24000,1248481,
11340,1080,15864,1668,-1599,2464,0,-36000,24000,1248483,
11416,1172,16052,1665,-1701,2579,0,-36000,24000,1248486,
12300,1304,16216,1074,-2028,3161,0,-36000,24000,1248499,
12492,1364,16140,983,-1897,3228,0,-36000,25000,1248501,
12592,1308,15992,873,-1894,3350,0,-36000,25000,1248503,
12960,1620,15548,418,-2875,4013,0,-36000,25000,1248516,
13092,1432,15884,240,-2987,4140,0,-36000,25000,1248518,
13488,1464,16216,125,-3003,4330,0,-36000,25000,1248520,
15388,1152,16860,-598,-1467,5157,0,-36000,26000,1248533,
15632,1168,17112,-758,-1164,5354,-1000,-37000,26000,1248535,
15788,1168,17188,-965,-655,5434,-1000,-37000,26000,1248538,
15908,968,17392,-1864,2295,5958,-1000,-36000,27000,1248550,
15836,964,17440,-2079,2671,6108,-1000,-36000,27000,1248553,
15716,832,17416,-2196,3012,6221,-1000,-36000,27000,1248555,
14424,316,17180,-2875,3680,6661,-2000,-36000,28000,1248568,
14276,276,17032,-2908,3636,6770,-2000,-36000,28000,1248570,
13944,256,17024,-2982,3560,6849,-2000,-36000,28000,1248572,
13624,-228,17288,-3272,2780,7385,-3000,-35000,29000,1248585,
13588,-280,17240,-3317,2631,7472,-3000,-35000,29000,1248587,
13640,-252,17196,-3380,2459,7577,-4000,-35000,29000,1248590,
13684,-336,17172,-3511,2025,7957,-4000,-35000,30000,1248602,
13812,-396,17044,-3576,1935,8065,-5000,-35000,30000,1248605,
13760,-296,16828,-3573,2020,8078,-5000,-35000,31000,1248607,
14092,-556,16560,-3727,2544,8402,-6000,-35000,31000,1248620,
14080,-516,16776,-3789,2774,8428,-6000,-35000,32000,1248622,
14092,-520,16428,-3805,3001,8506,-6000,-35000,32000,1248625,
14128,-656,16036,-4022,4465,8654,-7000,-34000,33000,1248637,
14144,-672,16080,-4068,4790,8695,-7000,-34000,33000,1248640,
13964,-652,16004,-4063,5036,8714,-7000,-34000,33000,1248642,
13568,-820,15716,-4219,6374,8766,-8000,-33000,34000,1248655,
13468,-892,15476,-4216,6610,8723,-8000,-33000,34000,1248657,
13328,-884,15520,-4277,6786,8815,-8000,-33000,34000,1248660,
12552,-976,15428,-4343,7557,8843,-9000,-32000,35000,1248672,
12268,-1108,15272,-4398,7550,8914,-9000,-32000,35000,1248675,
12204,-1092,15124,-4344,7629,8845,-10000,-32000,36000,1248677,
11616,-1240,14824,-4432,7533,8903,-10000,-31000,36000,1248690,
11544,-1384,14808,-4368,7525,8884,-11000,-31000,37000,1248692,
11300,-1336,14732,-4466,7512,8923,-11000,-31000,37000,1248695,
11068,-1416,14704,-4511,7389,8815,-12000,-30000,37000,1248707,
11004,-1372,14560,-4556,7328,8771,-12000,-30000,38000,1248710,
10900,-1400,14268,-4529,7304,8717,-12000,-29000,38000,1248712,
10300,-1544,14016,-4571,7031,8640,-13000,-29000,38000,1248725,
10488,-1616,13964,-4563,7077,8566,-13000,-29000,39000,1248727,
10148,-1608,13928,-4606,7045,8571,-13000,-28000,39000,1248730,
10028,-1904,13460,-4531,7314,8195,-14000,-28000,39000,1248742,
9980,-1912,13308,-4581,7426,8178,-14000,-27000,40000,1248744,
9656,-2276,13152,-4485,7964,7860,-15000,-27000,40000,1248757,
9740,-2236,13192,-4506,7993,7815,-15000,-26000,40000,1248759,
9600,-2240,13108,-4470,8177,7693,-15000,-26000,40000,1248761,
8792,-2268,12796,-4371,8520,7424,-15000,-25000,41000,1248774,
8800,-2296,12924,-4394,8510,7348,-15000,-25000,41000,1248776,
8816,-2316,12932,-4341,8568,7228,-16000,-25000,41000,1248779,
8244,-2196,12600,-4308,8773,6846,-16000,-24000,41000,1248791,
8140,-2228,12748,-4295,8822,6768,-16000,-24000,42000,1248793,
8036,-2260,12608,-4322,8848,6742,-16000,-24000,42000,1248796,
7580,-2284,12392,-4267,8763,6358,-17000,-23000,42000,1248808,
7384,-2260,12396,-4325,8755,6321,-17000,-23000,42000,1248811,
7376,-2340,12204,-4237,8744,6218,-17000,-22000,42000,1248813,
6516,-2424,12160,-4214,8372,5989,-18000,-21000,42000,1248826,
6556,-2448,12200,-4166,8299,5910,-18000,-21000,42000,1248828,
5924,-2360,12208,-4234,7230,5560,-18000,-20000,43000,1248840,
5804,-2344,11944,-4257,7178,5495,-18000,-20000,43000,1248843,
5600,-2384,11940,-4402,7121,5400,-18000,-20000,43000,1248845,
5532,-2464,11780,-4105,6168,5146,-19000,-19000,43000,1248857,
5484,-2632,11784,-4123,6001,5050,-19000,-19000,43000,1248860,
5540,-2624,11720,-4114,5837,4981,-19000,-19000,43000,1248862,
5368,-2744,11704,-4099,5650,4646,-19000,-19000,43000,1248874,
5316,-2692,11780,-4124,5525,4634,-19000,-19000,43000,1248877,
4316,-6984,13772,-702,-130,-166,-31000,-12000,48000,1249775,
4412,-6912,13892,-679,-192,-117,-31000,-12000,48000,1249787,
4376,-6928,13884,-696,-286,-158,-31000,-12000,48000,1249790,
4400,-6936,13848,-680,-205,-134,-31000,-12000,48000,1249792,
4372,-7064,13808,-663,-290,-126,-31000,-12000,48000,1249804,
4464,-6996,13968,-645,-255,-123,-31000,-12000,48000,1249807,
4436,-6980,13912,-640,-261,-92,-31000,-12000,48000,1249809,
4428,-7024,13956,-685,-113,-92,-31000,-12000,48000,1249822,
4324,-7084,13960,-634,-105,-90,-31000,-12000,48000,1249824,
4388,-7012,14040,-656,-63,-97,-31000,-12000,48000,1249826,
4360,-7104,13756,-610,-88,-85,-31000,-12000,48000,1249839,
4216,-7132,13872,-609,-37,-62,-31000,-12000,48000,1249841,
4188,-7128,13872,-605,-87,-68,-31000,-12000,48000,1249843,
4296,-7256,13752,-564,-98,-116,-31000,-12000,48000,1249856,
4324,-7188,13868,-489,-81,-138,-31000,-12000,48000,1249858,
4328,-7276,13888,-521,-140,-139,-31000,-12000,48000,1249861,
4480,-7192,13916,-366,-20,-214,-31000,-12000,48000,1249873,
4548,-7204,13916,-403,-27,-176,-31000,-13000,48000,1249876,
4628,-7268,13852,-329,89,-200,-31000,-13000,48000,1249878,
4492,-7020,14144,-347,261,-205,-31000,-13000,48000,1249890,
4568,-7044,14024,-308,323,-205,-31000,-13000,48000,1249893,
4392,-7080,14084,-350,398,-219,-31000,-13000,48000,1249895,
4340,-6992,13828,-284,382,-240,-31000,-13000,48000,1249908,
4144,-6984,13836,-328,385,-212,-31000,-13000,48000,1249910,
4248,-6972,13868,-281,305,-212,-31000,-13000,48000,1249913,
4188,-6992,13888,-319,85,-203,-31000,-13000,48000,1249925,
4412,-6928,13896,-241,93,-188,-31000,-13000,48000,1249927,
4288,-6964,13916,-300,26,-191,-31000,-13000,48000,1249930,
4392,-7008,13884,-295,19,-186,-31000,-13000,48000,1249942,
4384,-7056,13984,-273,7,-180,-31000,-13000,48000,1249945,
4412,-7100,14012,-290,72,-185,-31000,-13000,48000,1249947,
4408,-7020,13908,-318,34,-186,-31000,-13000,48000,1249959,
4336,-7072,14040,-285,97,-204,-31000,-13000,48000,1249962,
4336,-7148,13944,-320,19,-208,-31000,-13000,48000,1249964,
4344,-7032,13964,-304,38,-225,-31000,-13000,48000,1249976,
4304,-6956,13880,-363,-52,-231,-31000,-13000,48000,1249979,
4232,-6968,14036,-292,4,-240,-31000,-13000,48000,1249981,
4304,-7064,14092,-391,-126,-254,-31000,-13000,48000,1249993,
4288,-6988,13944,-353,-144,-237,-31000,-13000,48000,1249996,
4316,-6984,14052,-393,-141,-269,-31000,-13000,48000,1249998,
4300,-6952,14020,-356,-187,-212,-31000,-13000,48000,1250010,
4308,-7004,14080,-434,-193,-232,-31000,-13000,48000,1250013,
4388,-6940,14100,-369,-185,-210,-31000,-13000,48000,1250015,
4364,-7096,14060,-447,-200,-208,-31000,-13000,48000,1250028,
4376,-7100,14148,-396,-199,-200,-31000,-13000,48000,1250030,
4424,-6996,13856,-391,-186,-205,-31000,-13000,48000,1250032,
4568,-7052,13944,-358,-172,-176,-31000,-13000,48000,1250045,
4524,-7032,13944,-406,-116,-185,-31000,-13000,48000,1250047,
4568,-7152,13948,-338,-133,-153,-31000,-13000,48000,1250050,
4524,-7040,13936,-396,100,-181,-31000,-13000,48000,1250062,
4484,-7032,14068,-378,79,-160,-31000,-13000,48000,1250064,
4440,-7024,14104,-378,119,-164,-31000,-13000,48000,1250067,
4404,-7192,13996,-355,91,-134,-31000,-13000,48000,1250079,
4420,-7100,14044,-325,154,-132,-31000,-13000,48000,1250082,
4420,-7116,14128,-347,54,-139,-31000,-13000,48000,1250084,
4428,-7064,14052,-309,177,-172,-31000,-13000,47000,1250097,
4300,-7116,14192,-329,100,-146,-31000,-13000,47000,1250099,
4352,-7032,14072,-303,163,-157,-31000,-13000,47000,1250101,
4412,-7024,14160,-353,102,-180,-31000,-13000,47000,1250114,
4388,-7068,14112,-307,162,-167,-31000,-13000,47000,1250116,
4476,-7160,14196,-370,101,-197,-31000,-13000,47000,1250118,
4428,-7108,14172,-314,178,-203,-31000,-13000,47000,1250131,
4440,-7180,14356,-395,125,-224,-31000,-13000,47000,1250133,
4480,-7060,14124,-293,161,-191,-31000,-13000,47000,1250136,
4500,-7000,14180,-370,84,-191,-31000,-13000,47000,1250148,
4524,-7012,14164,-316,131,-205,-31000,-13000,47000,1250150,
4456,-6984,14188,-373,64,-170,-31000,-13000,47000,1250153,
4600,-7020,14344,-357,126,-153,-31000,-13000,47000,1250165,
4564,-7044,14140,-434,80,-165,-31000,-13000,47000,1250167,
4544,-7072,14136,-370,69,-147,-31000,-13000,47000,1250170,
4664,-6952,14216,-465,28,-129,-31000,-13000,47000,1250182,
4628,-6908,14124,-431,50,-110,-31000,-13000,47000,1250184,
4672,-6904,14224,-469,74,-91,-31000,-13000,47000,1250187,
4544,-7008,14440,-535,97,-34,-31000,-13000,47000,1250199,
4620,-6976,14316,-499,76,-13,-31000,-13000,47000,1250202,
4648,-6980,14300,-521,106,-24,-31000,-13000,47000,1250204,
4600,-7004,14160,-580,-52,34,-31000,-13000,47000,1250216,
4516,-6936,14036,-558,-55,48,-31000,-13000,47000,1250219,
4540,-7072,14160,-599,-146,87,-31000,-13000,47000,1250221,
4684,-7064,14024,-546,-193,117,-31000,-13000,47000,1250233,
4672,-6976,14064,-587,-249,89,-31000,-13000,47000,1250236,
4640,-6984,14176,-558,-226,123,-31000,-13000,47000,1250238,
4748,-6980,13892,-586,-206,148,-31000,-13000,47000,1250251,
4776,-6952,14020,-598,-218,173,-31000,-13000,47000,1250253,
4628,-7028,14048,-543,-144,176,-31000,-13000,47000,1250255,
4472,-6952,14012,-614,-214,217,-31000,-13000,47000,1250268,
4512,-6940,13996,-564,-133,182,-31000,-13000,47000,1250270,
4532,-6980,14028,-605,-246,197,-31000,-13000,47000,1250272,
4448,-6852,13916,-546,-311,262,-31000,-13000,47000,1250285,
4412,-6772,13840,-562,-374,265,-31000,-13000,47000,1250287,
4492,-6872,13972,-539,-306,252,-31000,-13000,47000,1250289,
4348,-6776,13720,-528,-253,283,-31000,-13000,47000,1250302,
4412,-6780,13652,-522,-167,324,-31000,-13000,47000,1250304,
4500,-6744,13768,-544,-213,302,-31000,-13000,47000,1250307,
4152,-6688,13800,-495,-24,313,-31000,-13000,47000,1250319,
4176,-6632,13596,-521,-114,345,-31000,-13000,47000,1250321,
4028,-6672,13604,-450,-38,334,-31000,-13000,47000,1250324,
3952,-6536,13316,-453,-164,287,-31000,-13000,47000,1250336,
3892,-6556,13468,-364,-129,301,-31000,-13000,47000,1250339,
3912,-6528,13312,-403,-143,281,-31000,-13000,47000,1250341,
3676,-6300,13284,-296,-46,254,-31000,-13000,47000,1250354,
3628,-6336,13088,-356,-62,245,-31000,-13000,48000,1250356,
3548,-6272,13016,-302,-35,274,-31000,-13000,48000,1250358,
3168,-6032,12972,-291,-27,221,-31000,-13000,48000,1250371,
3040,-5956,12868,-177,55,187,-31000,-13000,48000,1250373,
3068,-5808,12916,-229,19,214,-31000,-13000,48000,1250375,
2512,-5604,12580,-92,-163,168,-31000,-13000,48000,1250388,
2368,-5424,12568,-80,-175,164,-31000,-13000,48000,1250390,
2324,-5320,12468,-59,-281,163,-31000,-13000,48000,1250392,
2024,-5088,12156,72,-485,58,-31000,-13000,48000,1250405,
1968,-5148,12184,170,-494,24,-31000,-13000,48000,1250407,
1956,-4972,12072,158,-491,53,-31000,-13000,48000,1250409,
1712,-4868,11948,378,-456,-140,-31000,-13000,48000,1250422,
1644,-5032,12100,359,-347,-202,-31000,-13000,48000,1250424,
1520,-5096,12128,403,-337,-268,-31000,-13000,48000,1250426,
1136,-5096,11952,582,-326,-648,-31000,-13000,47000,1250439,
1096,-5056,11888,652,-363,-729,-31000,-13000,47000,1250441,
1016,-5120,11928,679,-347,-810,-31000,-13000,47000,1250444,
948,-5020,11956,885,-577,-1308,-31000,-13000,47000,1250456,
884,-4984,11956,941,-575,-1367,-31000,-13000,47000,1250459,
892,-4896,11848,940,-740,-1427,-31000,-13000,47000,1250461,
800,-4560,11388,1144,-1158,-1943,-31000,-13000,47000,1250474,
704,-4484,11484,1105,-1302,-2056,-30000,-13000,47000,1250476,
708,-4520,11384,1202,-1308,-2122,-30000,-13000,47000,1250478,
528,-4168,11232,1322,-1905,-2551,-30000,-14000,47000,1250491,
416,-4148,11216,1433,-2002,-2629,-30000,-14000,47000,1250493,
576,-4104,11160,1423,-2134,-2728,-30000,-14000,47000,1250495,
708,-3988,11188,1622,-2806,-3228,-30000,-14000,47000,1250508,
732,-4028,11092,1621,-2911,-3342,-30000,-14000,47000,1250510,
832,-3988,11112,1698,-2961,-3412,-30000,-14000,47000,1250513,
1100,-3908,10896,1868,-3322,-3924,-29000,-15000,47000,1250525,
1168,-3800,10940,1952,-3365,-4031,-29000,-15000,47000,1250527,
1192,-3860,11228,1956,-3423,-4083,-29000,-15000,47000,1250530,
1344,-3480,10784,2137,-3632,-4531,-29000,-15000,46000,1250542,
1372,-3476,10660,2233,-3596,-4629,-29000,-15000,46000,1250545,
1576,-3628,11040,2440,-3831,-5031,-29000,-16000,46000,1250557,
1628,-3508,10952,2466,-3880,-5129,-29000,-16000,46000,1250560,
1684,-3488,11044,2527,-3917,-5230,-28000,-16000,46000,1250562,
1804,-3284,10888,2649,-4163,-5684,-28000,-17000,46000,1250574,
1832,-3136,10736,2660,-4171,-5762,-28000,-17000,45000,1250577,
1976,-3040,10720,2667,-4272,-5832,-28000,-17000,45000,1250579,
2104,-2936,10592,2709,-4327,-6318,-27000,-17000,45000,1250592,
2036,-2920,10596,2718,-4473,-6441,-27000,-18000,45000,1250594,
2276,-3416,10988,2960,-4641,-7067,-27000,-18000,45000,1250606,
2344,-3480,10912,3013,-4577,-7151,-27000,-18000,44000,1250609,
2496,-3580,11008,3034,-4739,-7290,-27000,-18000,44000,1250611,
2644,-3456,11224,3397,-5062,-7960,-26000,-19000,44000,1250624,
2720,-3360,11336,3477,-5053,-8095,-26000,-19000,44000,1250626,
2740,-3336,11280,3519,-5184,-8267,-26000,-19000,44000,1250628,
3324,-2688,11304,3788,-5434,-8888,-25000,-20000,43000,1250641,
3372,-2692,11408,3832,-5495,-9047,-25000,-20000,43000,1250643,
3348,-2436,11428,3860,-5574,-9144,-25000,-21000,43000,1250646,
3964,-2468,11772,3981,-5696,-9757,-24000,-21000,42000,1250658,
3952,-2356,11816,3996,-5825,-9882,-24000,-22000,42000,1250660,
4664,-2048,11792,4118,-5723,-10499,-23000,-23000,41000,1250673,
4644,-2084,11832,4061,-5826,-10635,-23000,-23000,41000,1250675,
4820,-1816,11780,4127,-5711,-10746,-23000,-23000,41000,1250678,
5260,-1440,11740,4064,-6006,-11340,-22000,-24000,40000,1250690,
5324,-1424,11972,4137,-6002,-11451,-22000,-24000,40000,1250693,
5468,-1380,11704,4048,-6089,-11559,-22000,-24000,40000,1250695,
6156,-2048,12424,4319,-6146,-12216,-21000,-25000,39000,1250707,
6336,-2128,12572,4334,-6151,-12311,-21000,-25000,38000,1250710,
7252,-1936,12844,4599,-5739,-12838,-20000,-26000,37000,1250722,
7400,-1712,12720,4576,-5670,-12983,-20000,-27000,37000,1250725,
7476,-1700,12588,4589,-5593,-13089,-19000,-27000,37000,1250727,
8132,-800,13152,4754,-4955,-13515,-18000,-28000,36000,1250740,
8236,-632,13140,4701,-4896,-13573,-18000,-28000,35000,1250742,
8220,-572,13108,4678,-4804,-13626,-18000,-28000,35000,1250744,
8676,-388,13120,4593,-4437,-13989,-17000,-29000,34000,1250757,
8728,-376,13164,4678,-4470,-13998,-17000,-29000,34000,1250759,
9240,-460,13672,4658,-4457,-14210,-15000,-30000,32000,1250771,
9176,-312,13648,4686,-4543,-14284,-15000,-30000,32000,1250774,
9276,-244,13468,4669,-4561,-14283,-15000,-30000,32000,1250776,
9840,88,13540,4664,-4867,-14409,-14000,-31000,30000,1250789,
9772,148,13672,4611,-4927,-14422,-13000,-31000,30000,1250791,
9960,136,13572,4638,-4974,-14453,-13000,-31000,30000,1250794,
10664,632,13552,4468,-5032,-14516,-12000,-32000,28000,1250806,
10808,792,13388,4493,-5001,-14521,-12000,-32000,28000,1250809,
10892,904,13548,4430,-5047,-14550,-11000,-32000,27000,1250811,
11276,1224,13856,4359,-4921,-14449,-10000,-33000,26000,1250824,
11096,1372,13808,4305,-5016,-14473,-10000,-33000,26000,1250826,
11280,1464,13780,4301,-4912,-14399,-9000,-34000,25000,1250829,
11584,1668,13680,4109,-4970,-14383,-8000,-34000,24000,1250841,
11636,1672,13812,4014,-4935,-14342,-8000,-34000,23000,1250844,
11784,1624,13704,4026,-4901,-14305,-7000,-35000,23000,1250846,
12244,1876,13748,3792,-4492,-14227,-6000,-35000,21000,1250859,
12256,1856,13720,3774,-4344,-14165,-6000,-35000,21000,1250861,
12144,2480,13748,3312,-4015,-13935,-4000,-36000,19000,1250874,
12160,2548,13872,3292,-4087,-13931,-4000,-36000,19000,1250876,
12020,2608,13824,3159,-4091,-13870,-4000,-36000,19000,1250879,
11644,2876,13200,2865,-4769,-13696,-3000,-37000,17000,1250891,
11540,2788,13196,2798,-4992,-13662,-2000,-37000,17000,1250894,
11500,2736,13148,2807,-5198,-13620,-2000,-37000,16000,1250896,
11784,2540,13232,2646,-6353,-13474,-1000,-38000,15000,1250909,
11832,2444,13244,2702,-6548,-13433,0,-38000,14000,1250911,
12004,2524,13256,2649,-6610,-13416,0,-38000,14000,1250913,
12764,2800,13260,2522,-6701,-13176,0,-38000,12000,1250926,
12836,2772,13252,2472,-6564,-13162,0,-39000,12000,1250928,
12844,2876,13328,2459,-6475,-13152,1000,-39000,12000,1250931,
12928,3284,12828,2205,-5727,-13013,2000,-39000,10000,1250943,
12964,3328,12804,2218,-5613,-13029,2000,-39000,10000,1250946,
12980,3232,12772,2180,-5466,-13030,2000,-39000,9000,1250948,
12896,2976,12668,2183,-5255,-12974,4000,-40000,8000,1250961,
12932,3156,12732,2199,-5149,-12885,4000,-40000,7000,1250963,
12884,3136,12604,2239,-5232,-12920,4000,-40000,7000,1250966,
12940,3188,12640,2352,-5404,-12891,6000,-41000,5000,1250978,
13068,3204,12704,2388,-5515,-12914,6000,-41000,5000,1250981,
12964,3040,12612,2426,-5514,-12825,6000,-41000,5000,1250983,
13140,3336,12592,2577,-5755,-12719,8000,-41000,3000,1250996,
13304,3224,12716,2628,-5627,-12685,8000,-41000,3000,1250998,
13344,3452,12712,2640,-5730,-12697,8000,-41000,2000,1251001,
13912,3492,12808,2728,-5401,-12562,10000,-42000,0,1251013,
13852,3584,12636,2691,-5385,-12609,10000,-42000,0,1251016,
14040,3552,12688,2761,-5229,-12554,10000,-42000,0,1251018,
14536,3616,12560,2694,-4452,-12649,12000,-42000,358000,1251031,
14496,3680,12564,2724,-4307,-12661,12000,-42000,358000,1251033,
14608,3680,12640,2735,-4084,-12633,12000,-42000,357000,1251035,
14832,3948,12876,2691,-3260,-12524,14000,-42000,356000,1251048,
14800,3968,13008,2605,-3201,-12564,14000,-42000,355000,1251050,
14852,4112,12960,2628,-2982,-12549,14000,-42000,355000,1251053,
14996,4576,13108,2492,-2609,-12329,16000,-42000,353000,1251065,
14728,4640,13176,2492,-2529,-12196,16000,-42000,353000,1251068,
14748,4900,13440,2357,-2542,-11896,17000,-42000,351000,1251080,
14780,4816,13532,2336,-2600,-11834,17000,-42000,351000,1251083,
14832,4916,13424,2332,-2700,-11763,18000,-42000,351000,1251085,
15036,5152,13648,2191,-2962,-11281,19000,-42000,349000,1251098,
15180,5228,13924,2212,-2928,-11157,19000,-42000,349000,1251100,
15260,5144,13800,2110,-2964,-11064,19000,-42000,349000,1251103,
15520,5596,13820,1974,-2730,-10451,21000,-42000,347000,1251116,
15600,5596,13904,1898,-2745,-10392,21000,-42000,347000,1251118,
15636,5756,13844,1885,-2599,-10243,21000,-42000,347000,1251120,
15632,5984,13732,1566,-2480,-9609,22000,-42000,346000,1251133,
15660,6012,13756,1555,-2388,-9487,22000,-42000,345000,1251135,
15868,6040,13968,1253,-2459,-8863,23000,-41000,344000,1251148,
15872,6112,14072,1261,-2362,-8710,23000,-41000,344000,1251151,
15888,6140,14084,1135,-2382,-8594,23000,-41000,344000,1251153,
16284,6336,14008,902,-2031,-7903,24000,-41000,343000,1251165,
16312,6468,14224,778,-1967,-7790,24000,-41000,342000,1251168,
16200,6512,14172,786,-1855,-7620,25000,-41000,342000,1251170,
16016,6644,14412,395,-1435,-6744,25000,-41000,341000,1251183,
15976,6668,14404,381,-1407,-6581,25000,-41000,341000,1251185,
15860,6640,14420,265,-1345,-6384,25000,-41000,341000,1251188,
15632,6824,14152,-70,-1547,-5492,26000,-41000,340000,1251200,
15584,6808,14324,-201,-1659,-5328,26000,-41000,340000,1251203,
15744,6804,14092,-200,-1692,-5148,26000,-41000,340000,1251205,
15588,6896,14072,-618,-2031,-4315,26000,-41000,339000,1251218,
15572,6892,14028,-656,-2007,-4166,26000,-41000,339000,1251220,
15668,6784,14104,-1025,-1821,-3402,27000,-41000,339000,1251233,
15668,6836,13936,-1051,-1707,-3216,27000,-41000,339000,1251235,
15564,6760,14032,-1158,-1686,-3096,27000,-41000,339000,1251237,
15424,6772,14100,-1453,-1178,-2281,27000,-41000,338000,1251250,
15332,6844,14220,-1501,-1131,-2152,27000,-41000,338000,1251252,
15252,6828,14128,-1571,-1039,-2008,27000,-41000,338000,1251255,
14932,6672,14024,-1827,-647,-1283,27000,-41000,338000,1251267,
14848,6696,14060,-1914,-583,-1147,27000,-41000,338000,1251270,
14788,6600,14072,-1942,-562,-1000,27000,-41000,338000,1251272,
14348,6548,14192,-2198,-320,-406,27000,-41000,338000,1251285,
14336,6416,14220,-2262,-325,-284,26000,-41000,338000,1251287,
14100,6532,14428,-2612,-138,269,26000,-41000,338000,1251300,
14168,6448,14356,-2718,-198,329,26000,-41000,338000,1251302,
14068,6420,14488,-2733,-66,441,26000,-41000,338000,1251305,
13780,6488,14584,-3213,158,891,26000,-41000,338000,1251317,
13672,6640,14652,-3302,242,951,26000,-41000,338000,1251320,
13636,6488,14724,-3413,219,1029,26000,-41000,338000,1251322,
13192,6356,14612,-3854,333,1363,25000,-41000,338000,1251334,
13180,6312,14740,-3970,244,1423,25000,-41000,338000,1251337,
13196,6344,14736,-4002,274,1473,25000,-41000,338000,1251339,
13012,6388,14868,-4465,114,1753,24000,-41000,339000,1251352,
12928,6416,14952,-4500,133,1779,24000,-41000,339000,1251354,
12912,6488,14964,-4649,41,1862,24000,-41000,339000,1251357,
12876,6496,15552,-4934,257,2043,23000,-41000,339000,1251369,
12896,6408,15676,-5075,281,2123,23000,-41000,339000,1251372,
12816,6288,15652,-5099,386,2173,23000,-41000,339000,1251374,
12844,6352,16076,-5576,645,2343,22000,-41000,339000,1251387,
12908,6344,16084,-5570,777,2363,22000,-41000,339000,1251389,
12856,6400,16292,-5705,857,2412,22000,-41000,340000,1251392,
12844,6372,16596,-6181,1586,2534,21000,-41000,340000,1251404,
12844,6312,16748,-6330,1698,2561,21000,-41000,340000,1251407,
12840,6304,16848,-6379,1869,2567,21000,-41000,340000,1251409,
12528,6216,17008,-7038,2320,2656,20000,-41000,341000,1251422,
12656,6280,17164,-7142,2434,2647,20000,-41000,341000,1251424,
12568,6328,17236,-7281,2423,2684,20000,-41000,341000,1251426,
12372,6516,17052,-7897,2490,2682,18000,-41000,341000,1251439,
12332,6412,17124,-8006,2450,2689,18000,-41000,341000,1251441,
12272,6436,17056,-8093,2471,2680,18000,-41000,341000,1251444,
12272,6464,17368,-8712,2561,2686,17000,-40000,342000,1251457,
12280,6448,17304,-8870,2541,2674,17000,-40000,342000,1251459,
12388,6416,17468,-8970,2561,2686,17000,-40000,342000,1251461,
12108,6332,17436,-9605,2648,2635,15000,-40000,342000,1251474,
12176,6236,17404,-9635,2661,2652,15000,-40000,342000,1251476,
12128,6244,17300,-9803,2598,2637,15000,-40000,342000,1251478,
11988,6140,17240,-10240,2488,2604,14000,-40000,343000,1251491,
12004,6120,17004,-10311,2449,2606,13000,-40000,343000,1251493,
12172,6044,16932,-10626,2464,2553,12000,-40000,343000,1251506,
12296,6024,17068,-10729,2493,2571,12000,-40000,343000,1251508,
12292,5900,16940,-10740,2561,2557,12000,-40000,343000,1251510,
12420,5760,16884,-11112,3179,2570,11000,-39000,344000,1251523,
12412,5632,16792,-11102,3413,2590,10000,-39000,344000,1251526,
12576,5644,16824,-11236,3560,2564,10000,-39000,344000,1251528,
12536,5432,16472,-11507,4552,2539,9000,-39000,344000,1251541,
12396,5372,16496,-11657,4704,2561,8000,-39000,344000,1251543,
12388,5376,16380,-11625,4905,2548,8000,-39000,344000,1251545,
12060,5272,16092,-12067,5618,2477,7000,-38000,345000,1251558,
12012,5268,16064,-12050,5755,2468,7000,-38000,345000,1251560,
11828,5288,16160,-12186,5807,2438,6000,-38000,345000,1251563,
11520,4932,15580,-12468,6150,2297,5000,-37000,345000,1251575,
11500,4868,15708,-12579,6160,2282,5000,-37000,345000,1251578,
11076,4552,15192,-12834,6247,2077,3000,-37000,345000,1251590,
10940,4440,15152,-12894,6179,2071,3000,-36000,346000,1251593,
10948,4292,15160,-12892,6173,1986,3000,-36000,346000,1251595,
10700,3824,14880,-13113,6001,1829,2000,-36000,346000,1251608,
10760,3908,14968,-13075,6028,1778,1000,-36000,346000,1251610,
10784,3720,14916,-13216,5980,1744,1000,-36000,346000,1251612,
10776,3588,14624,-13332,5928,1545,0,-35000,346000,1251625,
10656,3548,14520,-13464,5921,1472,0,-35000,346000,1251627,
10532,3560,14408,-13436,5918,1424,0,-35000,346000,1251630,
10132,3420,14084,-13677,5695,1234,-1000,-34000,346000,1251642,
10072,3264,13836,-13630,5672,1206,-1000,-34000,346000,1251644,
9888,3304,13796,-13734,5550,1156,-2000,-34000,346000,1251647,
9660,2796,13876,-13804,5167,977,-3000,-34000,346000,1251659,
9724,2604,13824,-13858,5077,945,-3000,-33000,346000,1251662,
9576,2528,13860,-13864,5042,903,-3000,-33000,346000,1251664,
9804,1820,13704,-13993,4997,670,-5000,-33000,346000,1251677,
9776,1772,13652,-14044,5058,706,-5000,-33000,346000,1251679,
9748,1680,13436,-14056,5165,630,-5000,-33000,346000,1251681,
9352,1580,12852,-14369,5337,433,-6000,-32000,346000,1251694,
9448,1520,12920,-14354,5355,371,-7000,-32000,346000,1251696,
9348,1396,12852,-14419,5340,349,-7000,-32000,346000,1251699,
8792,976,12640,-14401,5020,146,-8000,-32000,346000,1251711,
8668,884,12620,-14447,4901,111,-8000,-31000,346000,1251714,
8668,748,12476,-14412,4741,53,-9000,-31000,346000,1251716,
8436,384,12216,-14305,4137,-36,-10000,-31000,346000,1251729,
8432,396,12176,-14362,3987,-18,-10000,-31000,346000,1251731,
8380,168,12140,-14260,3919,-17,-10000,-31000,346000,1251734,
8476,-392,12144,-14216,3653,-82,-12000,-31000,346000,1251746,
8464,-488,11924,-14148,3656,-91,-12000,-30000,346000,1251749,
8600,-612,11952,-14199,3601,-116,-12000,-30000,346000,1251751,
8280,-964,11544,-14042,3485,-162,-13000,-30000,345000,1251764,
8168,-956,11420,-14064,3405,-191,-14000,-30000,345000,1251766,
7904,-1208,11192,-13816,2816,-324,-15000,-30000,345000,1251778,
7764,-1332,11084,-13810,2641,-348,-15000,-30000,345000,1251781,
7764,-1464,11092,-13718,2538,-367,-15000,-30000,345000,1251783,
7696,-1748,10984,-13458,1802,-490,-17000,-30000,345000,1251796,
7800,-1824,10780,-13470,1584,-502,-17000,-30000,345000,1251798,
7672,-1676,10704,-13337,1518,-525,-17000,-30000,345000,1251800,
7784,-2096,10588,-13112,1035,-665,-18000,-30000,345000,1251813,
7928,-2128,10704,-12978,1030,-654,-18000,-30000,345000,1251815,
8076,-2524,10256,-12835,828,-752,-20000,-30000,345000,1251828,
8076,-2572,10156,-12707,914,-754,-20000,-30000,345000,1251831,
8016,-2624,10328,-12703,851,-756,-20000,-30000,345000,1251833,
7968,-2992,9996,-12411,913,-851,-21000,-30000,345000,1251846,
7948,-2972,9824,-12432,866,-870,-21000,-30000,345000,1251848,
7864,-2888,9904,-12484,868,-914,-21000,-30000,345000,1251850,
7508,-3656,10068,-12270,492,-999,-23000,-30000,344000,1251863,
7584,-3612,10020,-12046,494,-1049,-23000,-30000,344000,1251866,
7644,-3696,9840,-11859,453,-1082,-23000,-30000,344000,1251868,
7452,-3776,9556,-11342,166,-1086,-24000,-30000,344000,1251880,
7412,-3844,9592,-11221,150,-1072,-24000,-30000,344000,1251883,
7536,-3824,9512,-11152,56,-1071,-24000,-30000,344000,1251885,
7556,-4168,9488,-10800,47,-1079,-25000,-30000,344000,1251898,
7412,-4236,9400,-10778,31,-1113,-26000,-30000,344000,1251900,
7476,-4640,9392,-10182,189,-1085,-26000,-30000,344000,1251913,
7516,-4732,9676,-10109,164,-1066,-27000,-30000,344000,1251915,
7592,-4736,9616,-9969,294,-1068,-27000,-30000,344000,1251918,
7308,-4728,9164,-9885,301,-1095,-28000,-30000,344000,1251930,
7264,-4696,8992,-9900,269,-1127,-28000,-30000,344000,1251933,
7200,-4784,9048,-9838,291,-1145,-28000,-30000,344000,1251935,
6780,-5060,8824,-9224,-157,-1189,-29000,-30000,344000,1251948,
6820,-5192,8740,-9063,-260,-1152,-29000,-30000,344000,1251950,
6884,-5188,8864,-8998,-397,-1182,-29000,-30000,344000,1251953,
7016,-5368,9280,-8582,-532,-1166,-30000,-30000,344000,1251966,
6972,-5400,9472,-8489,-512,-1148,-30000,-30000,344000,1251968,
7156,-5428,9284,-8510,-516,-1141,-30000,-30000,344000,1251970,
6888,-5560,9144,-8198,-594,-981,-31000,-30000,343000,1251983,
6936,-5632,9096,-8219,-672,-979,-31000,-30000,343000,1251986,
6928,-5552,9040,-8220,-570,-902,-31000,-30000,343000,1251988,
6956,-6056,8700,-7828,-1132,-901,-32000,-31000,343000,1252001,
6844,-5972,8644,-7618,-1108,-877,-32000,-31000,343000,1252003,
6928,-6028,8520,-7537,-1272,-839,-32000,-31000,343000,1252005,
6712,-5920,8496,-7110,-1578,-764,-33000,-31000,343000,1252018,
6636,-5756,8448,-7010,-1614,-754,-33000,-31000,343000,1252020,
6596,-5736,8372,-6695,-1974,-602,-34000,-31000,344000,1252033,
6572,-5856,8116,-6586,-1954,-589,-34000,-31000,344000,1252036,
6628,-5836,7964,-6574,-2085,-564,-34000,-31000,344000,1252038,
6588,-6252,7652,-6002,-2298,-427,-35000,-31000,344000,1252051,
6572,-6312,7708,-5966,-2324,-396,-35000,-31000,344000,1252053,
6624,-6448,7492,-5777,-2324,-383,-35000,-31000,344000,1252055,
6560,-6516,7156,-5083,-2268,-328,-36000,-32000,344000,1252068,
6532,-6560,7060,-4923,-2292,-300,-36000,-32000,344000,1252070,
6504,-6556,7072,-4785,-2287,-299,-36000,-32000,344000,1252072,
6604,-6836,6768,-4134,-2018,-350,-36000,-32000,344000,1252085,
6668,-6916,6688,-3916,-1933,-333,-37000,-32000,344000,1252087,
6852,-7360,7228,-2929,-1221,-403,-37000,-32000,344000,1252100,
7060,-7432,7284,-2762,-986,-424,-37000,-32000,344000,1252102,
6932,-7428,7372,-2689,-893,-406,-37000,-32000,344000,1252105,
7352,-7564,7484,-2224,376,-433,-37000,-32000,344000,1252117,
7276,-7684,7444,-2160,689,-445,-37000,-32000,344000,1252120,
7348,-7740,7440,-2031,1020,-455,-37000,-32000,344000,1252122,
7156,-7936,7692,-1551,2011,-551,-37000,-32000,344000,1252135,
7180,-8068,7668,-1451,2127,-591,-37000,-32000,344000,1252137,
7020,-8016,7648,-1368,2178,-614,-37000,-32000,344000,1252140,
6788,-7888,8104,-886,2266,-741,-37000,-32000,344000,1252152,
6672,-7852,8352,-765,2273,-723,-37000,-32000,344000,1252155,
6788,-7912,8388,-764,2142,-748,-37000,-32000,344000,1252157,
6824,-8144,9044,-487,1691,-744,-37000,-32000,343000,1252170,
6900,-8280,9128,-493,1472,-767,-37000,-32000,343000,1252172,
6956,-8328,9216,-403,1434,-776,-37000,-32000,343000,1252175,
7308,-8464,9224,-225,927,-759,-37000,-32000,343000,1252187,
7364,-8460,9248,-206,926,-747,-37000,-32000,343000,1252190,
7408,-8412,9204,-161,838,-769,-37000,-32000,343000,1252192,
7612,-8364,9548,-27,669,-737,-37000,-32000,343000,1252205,
7608,-8356,9664,101,758,-731,-37000,-32000,343000,1252207,
7648,-8372,9700,80,727,-731,-37000,-32000,343000,1252209,
7708,-8508,10280,145,384,-691,-37000,-32000,343000,1252222,
7708,-8436,10264,218,347,-669,-37000,-32000,343000,1252225,
7688,-8556,10316,147,196,-687,-37000,-32000,343000,1252227,
8104,-8656,10292,275,-184,-579,-37000,-32000,343000,1252240,
8128,-8584,10320,260,-287,-553,-37000,-32000,343000,1252242,
8000,-8664,10332,290,-248,-546,-37000,-32000,343000,1252244,
8372,-8720,10344,338,-587,-467,-37000,-32000,343000,1252257,
8352,-8660,10320,412,-582,-468,-37000,-32000,343000,1252259,
8432,-8560,10204,385,-694,-447,-37000,-32000,343000,1252262,
8800,-8404,10532,600,-744,-310,-37000,-32000,343000,1252274,
8876,-8456,10452,604,-767,-286,-37000,-32000,343000,1252277,
8984,-8520,10768,643,-642,-285,-37000,-32000,343000,1252279,
9180,-8456,10652,778,-248,-125,-37000,-32000,343000,1252292,
9220,-8492,10756,757,-99,-95,-37000,-32000,343000,1252294,
9288,-8512,10740,781,-47,-86,-37000,-32000,343000,1252297,
9168,-8508,10668,934,491,6,-37000,-32000,343000,1252309,
9092,-8508,10792,984,451,57,-37000,-32000,343000,1252312,
9064,-8404,10588,1054,544,71,-37000,-32000,343000,1252314,
9092,-8336,10716,1182,597,168,-37000,-32000,343000,1252327,
9000,-8260,10852,1237,670,197,-37000,-32000,343000,1252329,
8980,-8312,10840,1250,647,243,-37000,-32000,343000,1252331,
9104,-8312,11108,1384,692,368,-37000,-32000,343000,1252344,
9032,-8284,11056,1383,664,417,-37000,-32000,343000,1252347,
9104,-8244,11088,1388,709,431,-37000,-32000,343000,1252349,
9060,-8248,10888,1414,620,630,-36000,-32000,343000,1252362,
8948,-8192,11080,1433,655,628,-36000,-32000,343000,1252364,
8944,-8208,10976,1412,547,672,-36000,-32000,343000,1252366,
8816,-7952,11200,1438,175,844,-36000,-31000,343000,1252379,
8720,-7900,11044,1471,200,873,-36000,-31000,343000,1252381,
8772,-7920,11180,1456,73,886,-36000,-31000,343000,1252384,
8832,-7880,10912,1564,-315,1083,-36000,-31000,343000,1252396,
8852,-7760,10984,1528,-426,1149,-36000,-31000,343000,1252399,
8868,-7680,11064,1599,-478,1159,-36000,-31000,343000,1252401,
8992,-7668,10864,1698,-764,1356,-36000,-31000,343000,1252414,
8924,-7760,10960,1795,-712,1409,-36000,-31000,343000,1252416,
9060,-7796,10948,1808,-739,1456,-36000,-31000,343000,1252419,
9232,-7652,11040,1978,-632,1724,-36000,-31000,344000,1252431,
9216,-7576,10996,1977,-627,1789,-36000,-31000,344000,1252434,
9236,-7592,11004,2036,-512,1807,-36000,-31000,344000,1252436,
9168,-7428,10972,2163,-471,2111,-36000,-31000,344000,1252449,
9208,-7364,10852,2204,-427,2186,-36000,-31000,344000,1252451,
9088,-7340,10660,2213,-476,2251,-36000,-31000,344000,1252453,
9052,-7424,10656,2434,-679,2524,-36000,-31000,344000,1252466,
9044,-7404,10692,2477,-665,2540,-36000,-31000,344000,1252468,
9184,-7580,10656,2538,-768,2626,-36000,-31000,344000,1252471,
9060,-7372,10740,2719,-871,2871,-35000,-31000,345000,1252483,
9048,-7232,10824,2822,-913,2925,-35000,-31000,345000,1252486,
8980,-7316,10716,2815,-885,2950,-35000,-31000,345000,1252488,
8920,-7332,10636,3039,-952,3226,-35000,-31000,345000,1252501,
8932,-7372,10768,3032,-999,3298,-35000,-31000,345000,1252503,
8936,-7248,10620,3092,-994,3348,-35000,-31000,345000,1252506,
8728,-7012,10356,3213,-1054,3541,-35000,-31000,346000,1252518,
8760,-7020,10472,3290,-1119,3610,-35000,-31000,346000,1252521,
8748,-7076,10348,3287,-1090,3617,-35000,-31000,346000,1252523,
8584,-6956,10208,3514,-1385,3857,-35000,-31000,346000,1252536,
8576,-6920,10208,3492,-1481,3917,-35000,-31000,346000,1252538,
8648,-6996,10496,3828,-1724,4113,-35000,-31000,347000,1252551,
8648,-6968,10444,3843,-1736,4133,-35000,-31000,347000,1252553,
8612,-6920,10540,3916,-1795,4200,-35000,-31000,347000,1252556,
8912,-6984,10372,4095,-1613,4394,-35000,-31000,348000,1252568,
8840,-6828,10312,4133,-1610,4464,-35000,-30000,348000,1252571,
8852,-6732,10204,4218,-1475,4484,-35000,-30000,348000,1252573,
8660,-6404,10056,4380,-1356,4761,-34000,-30000,348000,1252586,
8684,-6316,10172,4416,-1258,4796,-34000,-30000,348000,1252588,
8600,-6316,10168,4405,-1331,4859,-34000,-30000,348000,1252591,
8040,-6276,10084,4566,-1714,5178,-34000,-30000,349000,1252603,
8072,-6188,9964,4517,-1915,5260,-34000,-30000,349000,1252606,
8008,-6296,10016,4647,-2067,5289,-34000,-30000,349000,1252608,
8200,-6728,10056,4975,-2804,5592,-34000,-30000,350000,1252621,
8308,-6812,10016,5120,-2882,5566,-34000,-30000,350000,1252623,
8680,-6676,10400,5330,-2991,5832,-34000,-30000,351000,1252636,
8652,-6640,10328,5440,-2923,5856,-34000,-30000,351000,1252638,
8732,-6520,10328,5393,-2867,5860,-34000,-30000,351000,1252640,
8876,-6572,10516,5633,-2402,5963,-34000,-30000,352000,1252653,
8892,-6460,10372,5631,-2339,5992,-34000,-30000,352000,1252656,
8756,-6468,10444,5705,-2265,6015,-33000,-30000,352000,1252658,
8452,-5936,10236,5738,-2250,6148,-33000,-30000,353000,1252670,
8372,-5796,10104,5815,-2304,6212,-33000,-30000,353000,1252673,
8328,-5744,10120,5765,-2396,6219,-33000,-30000,353000,1252675,
7824,-5964,10044,5951,-3215,6388,-33000,-30000,354000,1252688,
7756,-6076,10232,5941,-3367,6382,-33000,-30000,354000,1252690,
8188,-6888,10368,6371,-3934,6425,-33000,-30000,355000,1252703,
8296,-7008,10320,6384,-3994,6418,-33000,-30000,355000,1252705,
