Ax,Ay,Az,Gx,Gy,Gz,Roll,Pitch,Yaw,Timestamp,Target
-1000,-7188,15508,1443,1555,-3308,-35000,24000,331000,440947,
-824,-7300,15596,1624,1788,-3515,-35000,24000,331000,440950,
-216,-7308,15480,2289,2871,-4652,-35000,24000,331000,440962,
-240,-7292,15484,2439,3033,-4875,-35000,24000,330000,440965,
-144,-7268,15572,2570,3183,-5098,-35000,24000,330000,440967,
-268,-7308,15736,3191,4117,-6344,-35000,24000,330000,440980,
-396,-7336,15896,3229,4266,-6532,-35000,24000,329000,440982,
-484,-7284,16180,3409,4381,-6740,-35000,24000,329000,440984,
-1376,-7628,16556,3901,4596,-7565,-35000,24000,328000,440997,
-1680,-7700,16632,4041,4506,-7717,-35000,23000,328000,440999,
-1928,-7632,16604,4098,4358,-7843,-35000,23000,328000,441002,
-3060,-7908,16612,4491,3481,-8516,-35000,23000,327000,441015,
-3144,-7796,16580,4580,3275,-8623,-35000,23000,327000,441017,
-3400,-7908,16684,4670,3110,-8785,-35000,23000,327000,441019,
-4200,-7832,16860,4900,2208,-9100,-35000,23000,326000,441032,
-4300,-7888,16988,4981,2076,-9131,-34000,23000,326000,441034,
-4416,-7892,16992,5003,1914,-9114,-34000,22000,326000,441037,
-4776,-7924,17448,5280,1634,-9198,-34000,22000,325000,441050,
-4868,-8056,17472,5260,1626,-9194,-34000,22000,324000,441052,
-5128,-7968,17628,5347,1675,-9181,-34000,22000,324000,441054,
-5868,-8164,18252,5611,1599,-8920,-34000,21000,323000,441067,
-6188,-8228,18440,5728,1531,-8883,-34000,21000,323000,441070,
-6328,-8384,18484,5751,1451,-8735,-34000,21000,323000,441072,
-7288,-8472,18860,6147,821,-8273,-33000,21000,322000,441085,
-7580,-8388,18900,6212,688,-8161,-33000,21000,322000,441087,
-7740,-8452,18872,6346,512,-8087,-33000,21000,322000,441090,
-8064,-8340,19148,6885,-444,-7482,-33000,20000,322000,441102,
-8244,-8436,19044,7026,-657,-7364,-33000,20000,321000,441105,
-8200,-8304,19164,7082,-814,-7248,-32000,20000,321000,441107,
-8700,-8392,19244,7851,-1779,-6576,-32000,20000,321000,441120,
-8724,-8268,19192,7992,-1920,-6520,-32000,20000,321000,441122,
-8796,-8216,19136,8199,-2055,-6426,-32000,20000,321000,441125,
-8772,-7852,19208,8935,-2411,-5947,-31000,19000,320000,441137,
-8628,-7928,19024,9060,-2439,-5855,-31000,19000,320000,441140,
-8536,-7780,19180,9206,-2463,-5720,-30000,19000,320000,441142,
-8116,-7544,18748,9939,-2209,-5213,-30000,18000,320000,441155,
-8164,-7500,18880,10081,-2104,-5139,-29000,18000,320000,441157,
-8136,-7092,18460,10706,-1517,-4454,-28000,18000,320000,441170,
-8200,-6980,18524,10883,-1375,-4340,-28000,18000,319000,441172,
-8172,-6892,18508,10966,-1333,-4203,-28000,18000,319000,441175,
-8764,-6868,18052,11604,-1074,-3635,-27000,18000,319000,441188,
-8852,-6804,18124,11618,-1111,-3490,-27000,18000,319000,441190,
-9056,-6764,17940,11746,-1099,-3413,-26000,18000,319000,441192,
-9420,-6660,17824,12219,-1648,-2829,-25000,17000,319000,441205,
-9380,-6652,17800,12364,-1761,-2765,-25000,17000,319000,441208,
-9424,-6464,17820,12363,-1866,-2621,-25000,17000,319000,441210,
-9188,-6540,17180,12873,-2248,-2070,-24000,17000,319000,441223,
-9140,-6336,17104,12898,-2320,-1942,-23000,17000,319000,441225,
-8940,-5960,16360,13283,-2310,-1283,-22000,17000,319000,441238,
-8832,-5748,16372,13324,-2225,-1138,-22000,17000,319000,441240,
-8624,-5708,16188,13482,-2147,-1046,-22000,17000,319000,441243,
-8524,-5232,15852,13671,-1824,-376,-20000,17000,319000,441255,
-8628,-5296,15692,13641,-1786,-289,-20000,17000,319000,441258,
-8648,-5256,15876,13692,-1726,-156,-20000,17000,319000,441260,
-8892,-5024,15836,13827,-1708,519,-18000,17000,319000,441273,
-8904,-5136,15732,13657,-1725,707,-18000,17000,319000,441275,
-8956,-5096,15684,13894,-1726,799,-18000,17000,319000,441278,
-9040,-4988,15124,13730,-2074,1522,-16000,16000,319000,441290,
-8956,-4924,15172,13842,-2201,1685,-16000,16000,319000,441293,
-8928,-4856,14688,13649,-2293,1807,-16000,16000,319000,441295,
-8240,-4212,14396,13646,-2642,2592,-14000,16000,320000,441312,
-8236,-4228,14256,13625,-2659,2701,-14000,16000,320000,441314,
-8124,-4212,14372,13586,-2650,2799,-13000,16000,320000,441317,
-7624,-3788,14088,13354,-2267,3372,-12000,16000,320000,441329,
-7708,-3748,14032,13307,-2144,3538,-12000,16000,320000,441332,
-7900,-3624,14104,13049,-1722,4156,-10000,16000,321000,441344,
-7996,-3704,14236,13079,-1668,4232,-10000,16000,321000,441347,
-8060,-3684,13912,12962,-1609,4399,-10000,16000,321000,441349,
-7976,-3496,13608,12808,-1548,5019,-9000,16000,321000,441362,
-7936,-3304,13412,12745,-1603,5112,-8000,16000,321000,441364,
-7896,-3420,13316,12809,-1675,5190,-8000,16000,322000,441367,
-7388,-2692,13040,12447,-1907,5574,-7000,16000,322000,441379,
-7228,-2560,13080,12432,-1950,5625,-6000,16000,322000,441382,
-7112,-2440,13032,12299,-2007,5690,-6000,16000,322000,441384,
-6200,-2116,12388,11950,-2025,5963,-5000,16000,323000,441397,
-5988,-2092,12324,11848,-2003,6015,-5000,16000,323000,441400,
-5760,-1772,12144,11826,-1968,6053,-4000,16000,323000,441402,
-5312,-1152,11920,11215,-1880,6167,-3000,16000,324000,441415,
-5128,-1092,11920,11126,-1862,6151,-3000,16000,324000,441417,
-5024,-1096,11712,10929,-1791,6162,-3000,16000,324000,441420,
-4700,-864,11440,10222,-1584,6177,-1000,16000,325000,441432,
-4600,-736,11460,10081,-1579,6148,-1000,16000,325000,441435,
-4556,-784,11644,10002,-1596,6150,-1000,16000,325000,441437,
-4512,-776,11488,9197,-1418,6023,0,16000,326000,441450,
-4364,-876,11448,9138,-1468,5983,0,16000,326000,441452,
-4272,-828,11308,8928,-1462,5956,0,16000,326000,441454,
-3276,-816,11060,8328,-1657,5734,0,15000,326000,441467,
-3332,-780,11140,8181,-1595,5686,1000,15000,326000,441469,
-3144,-620,11016,8073,-1491,5621,1000,15000,327000,441472,
-2528,-296,10696,7385,-899,5431,2000,15000,327000,441484,
-2376,-184,10520,7282,-805,5405,2000,15000,327000,441487,
-2300,-92,10528,7091,-638,5321,2000,15000,327000,441489,
-2120,324,10072,6300,344,5032,3000,15000,328000,441502,
-2036,400,10120,6155,505,4989,3000,15000,328000,441504,
-2140,468,10340,6087,632,4895,3000,15000,328000,441507,
-2372,588,10368,5263,1186,4631,4000,15000,328000,441519,
-2372,604,10368,5159,1224,4558,4000,15000,329000,441522,
-2396,736,10372,4982,1246,4514,4000,15000,329000,441524,
-2464,1104,10288,4208,1265,4261,4000,15000,329000,441537,
-2496,1236,10396,4028,1251,4199,4000,15000,329000,441539,
-2524,1316,10272,3915,1252,4151,5000,15000,329000,441541,
-2396,1520,9980,2998,1317,3847,5000,16000,330000,441554,
-2368,1680,9980,2887,1314,3803,5000,16000,330000,441556,
-2416,1572,9972,2644,1357,3797,5000,16000,330000,441559,
-2252,1916,10128,1756,1564,3605,5000,16000,330000,441571,
-2220,1960,10308,1536,1643,3594,5000,16000,330000,441574,
-2464,1924,10456,1385,1757,3572,6000,16000,330000,441576,
-2648,1808,10732,401,2471,3466,6000,16000,331000,441589,
-2544,1912,10820,294,2536,3482,6000,16000,331000,441591,
-2604,1776,10888,102,2610,3457,6000,16000,331000,441594,
-2792,1640,11184,-671,3382,3426,6000,16000,331000,441606,
-2716,1584,11384,-861,3567,3457,6000,16000,331000,441609,
-2752,1616,11320,-899,3762,3479,6000,16000,331000,441611,
-2852,1820,11632,-1502,4336,3546,6000,17000,332000,441623,
-2824,1852,11640,-1580,4293,3555,6000,17000,332000,441626,
-3088,1844,11700,-1690,4209,3553,6000,17000,332000,441628,
-4200,1864,11852,-2269,3683,3365,6000,17000,332000,441641,
-4212,1800,12060,-2413,3559,3324,6000,17000,332000,441643,
-4316,1784,12060,-2475,3472,3262,6000,17000,332000,441646,
-3972,1820,12280,-2951,2508,3072,5000,17000,333000,441658,
-3816,1932,12492,-3021,2356,2983,5000,17000,333000,441661,
-3640,2076,12496,-3114,2208,2967,5000,18000,333000,441663,
-2940,2532,12936,-3504,2062,2652,5000,18000,333000,441676,
-2916,2556,12932,-3590,2126,2591,5000,18000,333000,441678,
-2824,2672,12884,-3634,2253,2482,5000,18000,333000,441680,
-2320,2516,13000,-3964,3026,2076,5000,18000,334000,441693,
-2380,2592,12992,-3986,3230,1989,5000,18000,334000,441695,
-2332,2548,13132,-4075,3401,1913,5000,18000,334000,441698,
-2072,2524,13220,-4367,4710,1476,4000,18000,334000,441710,
-2076,2644,13300,-4468,5000,1389,4000,18000,334000,441713,
-2012,2580,13244,-4517,5302,1319,4000,19000,334000,441715,
-2532,2404,13212,-4731,6361,881,4000,19000,334000,441728,
-2688,2408,13236,-4740,6512,785,4000,19000,334000,441730,
-2872,2360,13304,-4825,6580,715,4000,19000,334000,441732,
-4008,1992,12964,-5116,6796,307,3000,20000,334000,441745,
-4124,2008,12952,-5242,6717,283,3000,20000,334000,441747,
-4268,2008,12800,-5342,6721,155,3000,20000,334000,441750,
-4772,1724,12768,-5712,5955,-212,3000,21000,334000,441762,
-4972,1624,12828,-5801,5848,-281,3000,21000,334000,441765,
-5048,1588,12800,-5868,5636,-327,2000,21000,334000,441767,
-5224,1272,12904,-6288,4787,-542,2000,21000,334000,441780,
-5196,1204,12996,-6370,4712,-565,2000,22000,334000,441782,
-5144,1040,12988,-6454,4667,-610,2000,22000,334000,441785,
-5112,648,13164,-6968,4780,-672,1000,22000,334000,441801,
-5040,744,13112,-7069,4928,-693,1000,22000,334000,441804,
-5104,588,13196,-7145,5097,-671,0,22000,334000,441806,
-5068,556,12988,-7569,6151,-501,0,23000,334000,441819,
-5076,556,12864,-7642,6413,-498,0,23000,334000,441821,
-4928,492,12772,-7738,6597,-471,0,23000,334000,441823,
-4956,532,12732,-7848,6918,-464,0,23000,334000,441826,
-5084,448,12204,-8421,8572,-447,-1000,24000,334000,441838,
-5112,308,12316,-8546,8929,-469,-1000,24000,334000,441841,
-5264,228,12268,-8556,9161,-455,-1000,24000,334000,441843,
-5556,64,12384,-9079,10342,-378,-2000,25000,334000,441856,
-5644,152,12392,-9212,10407,-335,-2000,26000,334000,441858,
-5772,96,12388,-9316,10495,-356,-2000,26000,334000,441860,
-6776,84,12412,-9748,10413,-354,-3000,27000,334000,441873,
-7120,56,12360,-9870,10405,-423,-3000,27000,334000,441875,
-7260,28,12336,-9913,10265,-433,-3000,27000,334000,441878,
-7908,80,12364,-10426,9469,-559,-4000,28000,334000,441890,
-8008,40,12304,-10484,9228,-568,-5000,28000,334000,441893,
-8056,168,12336,-10610,9004,-588,-5000,29000,334000,441895,
-8316,-176,12476,-11030,7750,-716,-6000,29000,333000,441908,
-8300,-192,12612,-11168,7555,-792,-6000,29000,333000,441910,
-8336,-260,12736,-11199,7300,-793,-6000,30000,333000,441913,
-8220,-756,12996,-11555,6644,-909,-8000,30000,333000,441925,
-8204,-792,13032,-11609,6571,-865,-8000,30000,333000,441928,
-8152,-872,12968,-11671,6602,-887,-8000,30000,333000,441930,
-8008,-1028,13368,-11776,6619,-786,-9000,31000,333000,441943,
-8120,-988,13504,-11858,6733,-794,-10000,31000,333000,441945,
-8172,-912,13708,-11785,6731,-728,-10000,31000,333000,441948,
-9140,-1244,14196,-11899,6773,-524,-11000,32000,333000,441960,
-9136,-1156,14260,-11870,6681,-469,-11000,32000,333000,441963,
-9504,-1288,14264,-11947,6659,-402,-11000,32000,333000,441965,
-10376,-1364,14328,-12045,6102,-203,-13000,33000,332000,441978,
-10384,-1460,14492,-12080,6037,-201,-13000,33000,332000,441981,
-10424,-1404,14404,-12066,5830,-158,-13000,33000,332000,441983,
-10492,-1596,15240,-12026,4918,-129,-14000,33000,332000,441996,
-10436,-1496,15324,-12044,4684,-84,-15000,34000,332000,441998,
-10460,-1688,15468,-12067,4544,-93,-15000,34000,332000,442001,
-10480,-1900,16192,-11813,3441,43,-16000,34000,332000,442013,
-10396,-1816,16280,-11742,3261,76,-16000,34000,332000,442016,
-10356,-1940,16448,-11690,3043,121,-16000,34000,332000,442018,
-9988,-1980,16888,-11161,2017,243,-18000,34000,332000,442031,
-10176,-2016,16848,-11112,1814,255,-18000,34000,332000,442034,
-10224,-2044,16640,-11085,1660,310,-18000,34000,332000,442036,
-10608,-2516,16992,-10560,719,601,-19000,34000,332000,442049,
-10524,-2484,16744,-10461,514,639,-19000,34000,332000,442051,
-10588,-2604,16660,-10364,335,698,-19000,34000,332000,442054,
-9976,-2636,16632,-9793,-58,858,-20000,34000,332000,442067,
-9908,-2616,16696,-9724,-92,874,-20000,34000,332000,442069,
-9828,-2784,16632,-9637,-47,889,-20000,34000,332000,442071,
-9212,-2816,16852,-9106,395,1157,-21000,34000,333000,442084,
-9364,-2868,16876,-8977,528,1195,-21000,34000,333000,442087,
-9076,-3028,17112,-8894,707,1268,-21000,34000,333000,442089,
-8708,-3024,16972,-8370,1617,1557,-22000,35000,333000,442102,
-8728,-3184,16976,-8257,1771,1633,-22000,35000,333000,442104,
-8716,-3224,16940,-8187,1971,1688,-22000,35000,333000,442107,
-8924,-3344,16884,-7630,2394,1983,-23000,35000,333000,442120,
-9076,-3336,16952,-7509,2331,2070,-23000,35000,333000,442122,
-9056,-3208,16824,-7427,2341,2114,-23000,35000,333000,442124,
-9064,-3432,16428,-6989,2052,2289,-24000,35000,333000,442137,
-9028,-3364,16208,-6927,1900,2352,-24000,35000,333000,442140,
-9072,-3460,16160,-6830,1770,2330,-24000,35000,333000,442142,
-9072,-3388,15784,-6455,786,2411,-24000,35000,334000,442155,
-9188,-3404,15628,-6332,542,2421,-24000,36000,334000,442157,
-9028,-3392,15600,-6290,368,2409,-24000,36000,334000,442160,
-8732,-3376,15124,-6085,-539,2445,-25000,36000,334000,442172,
-8756,-3376,15228,-6072,-644,2442,-25000,36000,334000,442175,
-8616,-3244,15072,-5987,-796,2428,-25000,36000,334000,442177,
-7856,-3288,15260,-5861,-1157,2515,-25000,35000,335000,442190,
-7956,-3304,15324,-5817,-1177,2579,-25000,35000,335000,442193,
-7568,-3388,15484,-5818,-1176,2601,-25000,35000,335000,442195,
-7104,-3548,15892,-5656,-750,2707,-26000,35000,335000,442208,
-6928,-3452,15896,-5669,-621,2724,-26000,35000,335000,442210,
-6856,-3536,15904,-5568,-550,2720,-26000,35000,335000,442213,
-6736,-3632,15760,-5274,-251,2648,-26000,35000,336000,442225,
-6752,-3644,15884,-5202,-307,2607,-26000,35000,336000,442228,
-6740,-3716,15872,-5136,-293,2536,-26000,35000,336000,442230,
-6956,-3908,15492,-4707,-352,2188,-26000,35000,336000,442243,
-6936,-3872,15568,-4659,-343,2136,-26000,35000,336000,442246,
-6988,-3884,15588,-4493,-388,2055,-26000,35000,336000,442248,
-6852,-4064,15256,-4012,-569,1656,-26000,35000,336000,442261,
-6840,-4120,15340,-3906,-686,1566,-26000,35000,337000,442263,
-6708,-4184,15256,-3814,-810,1473,-27000,35000,337000,442266,
-7084,-4200,15080,-3215,-1496,841,-27000,35000,337000,442282,
-7156,-4292,15056,-3174,-1633,784,-27000,35000,337000,442285,
-7084,-4392,15044,-3077,-1728,673,-27000,35000,337000,442287,
-7408,-4820,14968,-2670,-2284,366,-27000,35000,337000,442300,
-7400,-4680,14880,-2569,-2341,340,-27000,35000,337000,442302,
-7536,-4780,14892,-2501,-2413,315,-27000,35000,337000,442305,
-7632,-5132,14576,-2154,-2423,182,-27000,34000,337000,442318,
-7664,-5068,14512,-2141,-2345,180,-27000,34000,337000,442320,
-7708,-5008,14428,-2101,-2288,160,-27000,34000,337000,442323,
-7680,-5036,14012,-1931,-2006,170,-27000,34000,338000,442335,
-7632,-5084,13824,-1854,-1946,140,-27000,34000,338000,442338,
-7800,-5244,13772,-1821,-1886,177,-27000,34000,338000,442340,
-8160,-5192,13564,-1702,-1445,273,-27000,34000,338000,442353,
-8164,-5224,13500,-1732,-1373,319,-27000,34000,338000,442355,
-8160,-5216,13400,-1694,-1250,327,-27000,34000,338000,442358,
-8384,-5288,13332,-1683,-913,483,-27000,34000,338000,442371,
-8404,-5352,13440,-1647,-894,522,-27000,34000,338000,442373,
-8400,-5360,13220,-1628,-900,521,-27000,34000,338000,442376,
-8624,-5292,13332,-1627,-980,610,-27000,34000,338000,442388,
-8796,-5444,13280,-1655,-1004,578,-27000,34000,338000,442391,
-8684,-5488,13144,-1618,-1043,568,-27000,34000,338000,442393,
-8596,-5288,12964,-1598,-1300,544,-27000,34000,338000,442406,
-8472,-5372,12812,-1534,-1345,533,-27000,34000,338000,442409,
-8336,-5336,12928,-1580,-1389,551,-27000,34000,338000,442411,
-8064,-5036,12936,-1560,-1319,425,-27000,33000,339000,442424,
-8060,-5100,12932,-1590,-1275,406,-27000,33000,339000,442426,
-8124,-5036,13072,-1585,-1209,345,-27000,33000,339000,442429,
-7856,-5012,12952,-1573,-740,221,-27000,33000,339000,442441,
-7924,-4968,13028,-1506,-702,209,-28000,33000,339000,442444,
-7888,-4996,13104,-1570,-578,213,-28000,33000,339000,442446,
-7776,-4908,13100,-1500,48,184,-28000,33000,339000,442459,
-7832,-4932,13292,-1535,139,174,-28000,33000,339000,442461,
-7880,-4960,13244,-1467,279,160,-28000,33000,339000,442464,
-8132,-4936,13132,-1383,513,128,-28000,33000,339000,442477,
-8212,-5020,13140,-1312,525,144,-28000,33000,339000,442479,
-8272,-5024,13296,-1315,503,134,-28000,33000,339000,442482,
-8372,-5020,13492,-1209,213,84,-28000,33000,339000,442494,
-8492,-4964,13420,-1200,152,55,-28000,33000,339000,442497,
-8476,-5012,13528,-1108,41,32,-28000,33000,339000,442499,
-8428,-5048,13532,-1000,-246,-34,-28000,33000,339000,442512,
-8444,-5032,13564,-991,-321,-24,-28000,33000,339000,442514,
-8368,-4960,13556,-1012,-312,-39,-28000,33000,339000,442517,
-8192,-4924,13512,-888,-287,-55,-28000,33000,339000,442530,
-8104,-4836,13756,-894,-172,-36,-28000,33000,339000,442532,
-7992,-4972,13704,-813,-142,-53,-28000,33000,339000,442535,
-7952,-4852,13604,-707,255,0,-28000,33000,339000,442547,
-7904,-4952,13720,-738,330,31,-28000,33000,339000,442550,
-8020,-5004,13596,-744,438,43,-28000,33000,339000,442552,
-8192,-4980,13540,-653,655,126,-28000,33000,339000,442565,
-8272,-4900,13548,-671,692,157,-28000,33000,339000,442567,
-8244,-4936,13528,-607,666,190,-28000,33000,339000,442570,
-8384,-4904,13692,-560,535,271,-28000,33000,339000,442582,
-8552,-5056,13636,-609,441,313,-28000,33000,339000,442585,
-8576,-5036,13560,-586,388,322,-28000,33000,339000,442587,
-8552,-4996,13316,-572,-208,413,-28000,33000,339000,442600,
-8572,-5060,13332,-541,-290,400,-28000,33000,339000,442602,
-8540,-4992,13480,-525,-420,424,-28000,33000,339000,442605,
-8256,-4844,13320,-557,-836,439,-28000,33000,339000,442618,
-8324,-4892,13240,-588,-894,445,-28000,33000,339000,442620,
-8184,-4912,13220,-613,-871,441,-28000,33000,339000,442623,
-7868,-4900,13428,-642,-783,485,-28000,33000,339000,442635,
-7848,-4892,13384,-596,-689,460,-28000,33000,339000,442638,
-7912,-4880,13232,-630,-686,486,-28000,33000,340000,442640,
-7796,-5008,13320,-630,-226,491,-28000,33000,340000,442653,
-7664,-4840,13332,-652,-141,497,-28000,33000,340000,442655,
-7732,-4948,13284,-680,-25,492,-28000,33000,340000,442658,
-7904,-4948,13124,-685,216,492,-28000,33000,340000,442671,
-8008,-4968,13076,-632,228,468,-28000,33000,340000,442673,
-7952,-4960,13152,-665,245,486,-28000,33000,340000,442676,
-8188,-4820,13116,-641,102,427,-28000,33000,340000,442688,
-8256,-4864,13000,-672,85,437,-28000,33000,340000,442691,
-8144,-4900,13140,-637,38,393,-28000,33000,340000,442693,
-8192,-4912,12992,-699,-212,318,-28000,33000,340000,442706,
-8208,-4956,12864,-648,-275,305,-28000,33000,340000,442708,
-8184,-4952,12864,-690,-299,310,-28000,33000,340000,442711,
-7992,-4844,13036,-653,-288,259,-28000,33000,340000,442724,
-7968,-4876,12888,-686,-270,237,-28000,33000,340000,442726,
-7868,-4872,12972,-623,-234,224,-28000,33000,340000,442728,
-7876,-4900,12768,-659,-104,212,-28000,33000,340000,442741,
-7832,-4876,13096,-644,-126,220,-28000,33000,340000,442744,
-7872,-4880,12840,-663,-56,233,-28000,33000,340000,442746,
-7864,-4904,12972,-681,135,221,-28000,33000,340000,442759,
-7912,-4788,12828,-693,202,229,-28000,33000,340000,442761,
-7908,-4872,12800,-653,190,221,-28000,33000,340000,442764,
-7976,-4860,12744,-683,364,169,-28000,33000,340000,442776,
-7940,-4928,12948,-669,342,187,-28000,33000,340000,442779,
-7936,-4816,12800,-688,361,195,-28000,33000,340000,442781,
-8068,-4992,12880,-651,331,157,-28000,33000,340000,442798,
-8032,-4852,13004,-690,277,166,-28000,33000,340000,442800,
-8072,-4908,13140,-698,287,147,-28000,33000,340000,442803,
-7920,-4964,12964,-746,237,123,-28000,33000,340000,442815,
-7972,-4952,12888,-700,262,70,-28000,33000,340000,442818,
-7820,-4904,12800,-710,253,70,-28000,33000,340000,442820,
-7896,-4916,13204,-702,406,1,-28000,33000,340000,442833,
-7708,-4980,13236,-701,441,17,-28000,33000,340000,442836,
-7904,-4972,13176,-719,566,1,-28000,33000,340000,442838,
-7940,-5056,13252,-741,811,16,-28000,33000,340000,442851,
-7828,-5020,13208,-656,846,-13,-28000,33000,340000,442853,
-7888,-4972,13120,-686,860,43,-28000,33000,340000,442856,
-7988,-5016,13208,-611,969,57,-28000,33000,340000,442868,
-7980,-5088,13140,-667,939,69,-28000,33000,340000,442871,
-8132,-5072,13092,-620,938,32,-28000,33000,340000,442873,
-8400,-5056,13324,-623,475,89,-28000,33000,340000,442886,
-8444,-5148,13268,-609,325,53,-28000,33000,340000,442888,
-8544,-5028,13388,-625,190,72,-28000,33000,340000,442891,
-8460,-5020,13240,-639,-397,77,-28000,33000,340000,442903,
-8456,-5120,13296,-638,-448,62,-28000,33000,340000,442906,
-8424,-5032,13248,-599,-514,44,-28000,33000,340000,442908,
-7964,-4992,13292,-634,-576,116,-28000,33000,340000,442921,
-7896,-4908,13072,-606,-571,117,-28000,33000,340000,442924,
-7928,-4812,13220,-696,-501,155,-28000,33000,340000,442926,
-7644,-4880,13304,-636,-22,193,-28000,33000,340000,442939,
-7680,-4868,13344,-674,104,206,-28000,33000,340000,442941,
-7708,-4868,13432,-665,254,201,-28000,33000,340000,442944,
-7888,-5048,13360,-660,711,281,-28000,33000,341000,442956,
-7868,-5068,13332,-626,689,278,-28000,33000,341000,442959,
-7932,-5112,13296,-660,731,311,-28000,33000,341000,442961,
-8408,-5180,13252,-560,423,316,-28000,33000,341000,442974,
-8428,-5128,13304,-585,328,304,-28000,33000,341000,442977,
-8500,-5036,13408,-545,194,296,-28000,33000,341000,442979,
-8648,-5224,13236,-539,-405,225,-28000,33000,341000,442992,
-8540,-5036,13180,-496,-549,207,-28000,33000,341000,442994,
-8440,-5088,13168,-543,-646,185,-28000,33000,341000,442997,
-8108,-5112,13148,-458,-855,129,-28000,33000,341000,443009,
-7976,-5040,13300,-456,-785,86,-28000,33000,341000,443012,
-7880,-5060,13308,-418,-762,97,-28000,33000,341000,443014,
-7524,-4940,13164,-411,-198,129,-28000,33000,341000,443027,
-7456,-4944,13276,-383,-82,148,-28000,33000,341000,443029,
-7504,-4896,13100,-416,66,164,-28000,33000,341000,443032,
-7380,-4848,13016,-360,738,191,-28000,33000,341000,443045,
-7524,-4856,13052,-357,835,200,-28000,33000,341000,443047,
-7548,-4908,13008,-297,844,187,-28000,33000,341000,443049,
-8040,-4804,12996,-330,673,129,-28000,33000,341000,443062,
-8152,-4756,13032,-346,505,118,-28000,33000,341000,443065,
-8252,-4868,13032,-362,398,84,-28000,33000,341000,443067,
-8300,-4732,12940,-379,-359,-48,-28000,33000,341000,443080,
-8264,-4844,13336,-418,-420,-120,-28000,33000,341000,443082,
-8244,-4628,13408,-383,-595,-141,-28000,33000,341000,443085,
-8048,-4780,13248,-379,-868,-237,-28000,33000,341000,443098,
-7884,-4848,13340,-393,-909,-210,-28000,33000,341000,443100,
-7836,-4776,13284,-412,-904,-243,-28000,33000,341000,443102,
-7564,-4864,13540,-356,-526,-248,-28000,33000,341000,443115,
-7560,-4832,13288,-339,-367,-257,-28000,33000,341000,443118,
-7508,-4928,13376,-288,-279,-242,-28000,33000,341000,443120,
-7600,-5052,13312,-209,495,-199,-28000,33000,341000,443133,
-7480,-5028,13444,-213,566,-158,-28000,33000,341000,443135,
-7620,-5016,13268,-205,685,-155,-28000,33000,341000,443138,
-7992,-5040,13320,-94,786,-95,-28000,33000,341000,443150,
-8160,-5052,13456,-107,813,-137,-28000,33000,341000,443153,
-8208,-5124,13368,-54,695,-117,-28000,33000,341000,443155,
-8428,-5076,13392,6,379,-120,-28000,33000,341000,443168,
-8420,-5108,13412,6,216,-103,-28000,33000,341000,443170,
-8476,-5132,13408,0,137,-97,-28000,33000,341000,443173,
-8244,-5084,13356,16,-171,-124,-28000,33000,341000,443186,
-8156,-4976,13184,12,-150,-123,-28000,33000,341000,443188,
-8028,-5100,13280,47,-192,-135,-28000,33000,341000,443191,
-7828,-5052,13232,47,-46,-133,-28000,33000,341000,443203,
-7792,-5036,13168,25,-51,-98,-28000,33000,341000,443206,
-7828,-4976,13108,-10,20,-102,-28000,33000,341000,443208,
-8052,-5012,13008,-23,270,16,-28000,33000,341000,443221,
-7904,-5048,13040,-20,377,15,-28000,33000,341000,443223,
-8016,-4980,13096,17,378,20,-28000,33000,341000,443226,
-8096,-4992,13044,-49,498,6,-27000,33000,341000,443239,
-8028,-5024,12780,-84,474,11,-27000,33000,341000,443241,
-8128,-4956,12972,-101,495,34,-27000,33000,341000,443243,
-8028,-5028,12992,-148,398,65,-27000,33000,341000,443256,
-8148,-5048,12960,-130,365,49,-27000,33000,341000,443259,
-8180,-5112,12992,-121,277,47,-27000,33000,341000,443261,
-7968,-5008,12864,-174,50,32,-27000,33000,341000,443274,
-7964,-4960,12768,-225,47,27,-27000,33000,341000,443276,
-7920,-4916,12988,-193,73,-14,-27000,33000,341000,443279,
-7860,-4740,12764,-324,144,-21,-27000,33000,341000,443291,
-7788,-4796,12812,-300,140,-1,-27000,33000,341000,443294,
-7756,-4784,13008,-333,148,14,-27000,33000,341000,443296,
-7772,-4856,12812,-409,403,-20,-27000,33000,341000,443309,
-7824,-4848,13044,-458,445,-16,-27000,33000,341000,443311,
-7780,-4792,12840,-509,639,-37,-27000,33000,341000,443324,
-7844,-4848,12900,-544,698,-58,-27000,33000,341000,443326,
-7880,-4764,12880,-534,641,-47,-27000,33000,341000,443329,
-8204,-4872,13008,-559,611,-49,-27000,33000,341000,443342,
-8204,-4956,12924,-619,558,-35,-27000,33000,341000,443344,
-8216,-4980,12908,-624,534,-41,-27000,33000,341000,443347,
-8292,-4968,13028,-651,288,-42,-28000,33000,341000,443359,
-8308,-4912,12912,-620,287,-79,-28000,33000,341000,443362,
-8148,-4964,13052,-647,242,-44,-28000,33000,341000,443364,
-8168,-4940,13292,-622,274,-6,-28000,33000,341000,443377,
-8080,-4984,13064,-663,298,4,-28000,33000,341000,443379,
-8144,-4940,13104,-659,347,-11,-28000,33000,341000,443382,
-8204,-5060,13220,-633,434,61,-28000,33000,341000,443394,
-8104,-4944,13272,-603,476,42,-28000,33000,341000,443397,
-8236,-4940,13288,-613,444,72,-28000,33000,341000,443399,
-8220,-4944,13332,-571,431,72,-28000,33000,341000,443412,
-8324,-4792,13288,-628,407,131,-28000,33000,341000,443414,
-8400,-4852,13248,-600,438,90,-28000,33000,341000,443417,
-8352,-4816,13304,-581,249,138,-28000,33000,341000,443430,
-8384,-4920,13364,-537,238,173,-28000,33000,341000,443432,
-8244,-4836,13328,-562,180,166,-28000,33000,341000,443435,
-8072,-4800,13244,-521,147,178,-28000,33000,341000,443447,
-8184,-4716,13284,-546,124,192,-28000,33000,341000,443450,
-8084,-4724,13304,-512,198,177,-28000,33000,341000,443452,
-8072,-4636,13244,-560,217,222,-28000,33000,341000,443465,
-8176,-4868,13100,-476,210,233,-28000,33000,341000,443467,
-8160,-4852,13128,-558,180,246,-28000,33000,341000,443470,
-8164,-4732,13364,-532,181,237,-28000,33000,341000,443483,
-8028,-4828,13252,-546,191,262,-28000,33000,341000,443485,
-8148,-4768,13268,-529,192,206,-28000,33000,341000,443488,
-8024,-4776,13188,-569,245,180,-28000,33000,341000,443500,
-7908,-4840,13284,-509,237,177,-28000,33000,341000,443503,
-7972,-4868,13432,-549,267,229,-28000,33000,341000,443505,
-7908,-4888,13188,-552,352,209,-28000,33000,341000,443518,
-7872,-4912,13316,-546,402,212,-28000,33000,341000,443520,
-8024,-4832,13260,-507,412,169,-28000,33000,341000,443523,
-8000,-4812,13072,-543,464,187,-28000,33000,341000,443535,
-8008,-4924,13060,-499,436,173,-28000,33000,341000,443538,
-8076,-4936,13164,-534,425,211,-28000,33000,341000,443540,
-8068,-4940,13008,-533,289,213,-28000,33000,342000,443553,
-8152,-4900,13144,-531,268,204,-28000,33000,342000,443556,
-8036,-4828,13124,-477,226,149,-28000,33000,342000,443558,
-8072,-4936,13056,-550,8,184,-28000,33000,342000,443571,
-8096,-4796,12944,-531,-44,163,-28000,33000,342000,443573,
-8164,-4888,13052,-576,-103,192,-28000,33000,342000,443576,
-8028,-4880,13104,-602,-137,185,-28000,33000,342000,443588,
-7912,-4908,13068,-635,-63,176,-28000,33000,342000,443591,
-7940,-4840,13160,-562,-99,172,-28000,33000,342000,443593,
-7792,-4908,13100,-654,149,133,-28000,33000,342000,443606,
-7776,-4952,13060,-623,144,164,-28000,33000,342000,443608,
-7804,-4908,13044,-663,193,152,-28000,33000,342000,443611,
-7880,-4948,13132,-661,409,212,-28000,33000,342000,443623,
-7960,-5024,13040,-641,448,172,-28000,33000,342000,443626,
-8060,-4928,13064,-600,430,184,-28000,33000,342000,443628,
-8264,-5044,13176,-582,340,152,-28000,33000,342000,443641,
-8328,-5000,13128,-587,279,158,-28000,33000,342000,443643,
-8372,-5068,13244,-589,260,154,-28000,33000,342000,443646,
-8148,-5208,13188,-529,83,130,-28000,33000,342000,443659,
-8172,-5092,12980,-509,57,104,-28000,33000,342000,443661,
-8256,-5124,13012,-499,60,106,-28000,33000,342000,443664,
-7988,-5084,12984,-419,71,84,-28000,33000,342000,443676,
-7988,-5172,13072,-440,106,117,-28000,33000,342000,443679,
-7928,-5020,13036,-438,140,107,-28000,33000,342000,443681,
-7712,-4988,12960,-398,375,53,-28000,33000,342000,443694,
-7860,-5096,12928,-393,456,30,-28000,33000,342000,443696,
-7916,-4976,13140,-376,484,76,-28000,33000,342000,443699,
-7956,-4900,12932,-342,691,43,-28000,33000,342000,443711,
-7916,-4984,13004,-375,704,43,-28000,33000,342000,443714,
-7924,-4996,13036,-397,713,28,-28000,33000,342000,443716,
-8000,-4896,13000,-401,651,-12,-28000,33000,342000,443729,
-8168,-5028,13008,-356,663,-56,-28000,33000,342000,443732,
-8028,-4964,13072,-365,597,-61,-28000,33000,342000,443734,
-8112,-4936,12988,-345,404,-98,-28000,33000,342000,443747,
-8240,-5048,12984,-384,324,-67,-28000,33000,342000,443749,
-8224,-4948,13120,-385,320,-104,-28000,33000,342000,443752,
-8232,-4920,13080,-375,-50,-110,-28000,33000,342000,443765,
-8148,-5056,13164,-372,-132,-94,-28000,33000,342000,443767,
-8160,-5072,13196,-389,-176,-90,-28000,33000,342000,443769,
-8128,-4944,13368,-364,-270,-115,-28000,33000,342000,443782,
-8136,-5012,13088,-358,-235,-107,-28000,33000,342000,443785,
-8064,-5052,13220,-339,-196,-92,-28000,33000,342000,443787,
-7892,-4956,13300,-342,-56,-51,-28000,33000,342000,443800,
-7892,-5020,13340,-288,-51,-68,-28000,33000,342000,443802,
-7836,-5048,13324,-335,-4,-58,-28000,33000,342000,443805,
-7972,-4928,13384,-282,236,-17,-28000,33000,342000,443821,
-8024,-5016,13432,-215,212,-31,-28000,33000,342000,443824,
-8048,-4896,13508,-291,224,-2,-28000,33000,342000,443826,
-8448,-4964,13532,-206,-30,28,-27000,33000,342000,443839,
-8428,-5016,13344,-232,-81,13,-27000,33000,342000,443841,
-8484,-5080,13324,-192,-129,-8,-27000,33000,342000,443844,
-8528,-4952,13496,-193,-622,-3,-27000,33000,342000,443856,
-8420,-4968,13376,-123,-739,20,-27000,33000,342000,443859,
-8480,-4980,13456,-185,-786,1,-27000,33000,342000,443861,
-8176,-4896,13476,-130,-968,-40,-27000,33000,342000,443874,
-8180,-4876,13456,-145,-940,-23,-27000,33000,342000,443877,
-8124,-4780,13456,-90,-918,-29,-27000,33000,342000,443879,
-7776,-4808,13512,-114,-549,3,-27000,33000,342000,443892,
-7932,-4780,13316,-49,-490,37,-27000,33000,342000,443894,
-7748,-4824,13364,-91,-397,47,-27000,33000,342000,443897,
-7792,-4916,13488,-65,117,94,-27000,33000,342000,443909,
-7752,-4828,13392,-67,196,95,-27000,33000,342000,443912,
-7892,-4744,13252,-39,277,72,-27000,33000,342000,443914,
-8124,-4820,13288,-53,539,93,-27000,33000,342000,443927,
-8156,-4800,13232,-15,491,124,-27000,33000,342000,443930,
-8044,-4864,13276,-51,527,126,-27000,33000,342000,443932,
-8312,-4860,13256,-48,293,137,-27000,33000,342000,443945,
-8244,-4808,13236,-78,272,144,-27000,33000,342000,443947,
-8248,-4720,13204,-21,209,116,-27000,33000,342000,443950,
-8196,-4744,12968,-108,-74,89,-27000,33000,342000,443962,
-8168,-4676,13136,-108,-147,88,-27000,33000,342000,443965,
-8116,-4624,13116,-137,-165,68,-27000,33000,342000,443967,
-7844,-4572,13228,-156,-176,59,-27000,33000,343000,443980,
-7892,-4676,13040,-190,-122,50,-27000,33000,343000,443982,
-7828,-4624,13064,-140,-70,58,-27000,32000,343000,443985,
-7488,-4636,12972,-203,322,38,-27000,33000,343000,443997,
-7528,-4608,12984,-161,358,55,-27000,33000,343000,444000,
-7532,-4612,13100,-225,444,90,-27000,33000,343000,444002,
-7604,-4596,12876,-275,701,81,-27000,33000,343000,444015,
-7664,-4632,12972,-297,799,35,-27000,33000,343000,444017,
-7732,-4620,12992,-249,817,35,-27000,33000,343000,444020,
-7816,-4752,13016,-329,801,2,-27000,33000,343000,444033,
-7984,-4736,12944,-300,739,-12,-27000,33000,343000,444035,
-7928,-4824,12900,-353,718,-17,-27000,33000,343000,444037,
-8040,-4716,12940,-341,355,3,-27000,33000,343000,444050,
-8220,-4860,12808,-384,273,7,-27000,33000,343000,444053,
-8296,-4824,12964,-343,205,-25,-27000,33000,343000,444055,
-8176,-4868,12968,-401,-86,-57,-27000,33000,343000,444068,
-8108,-4916,13008,-395,-199,-52,-27000,33000,343000,444070,
-8048,-4872,13076,-478,-197,-46,-27000,33000,343000,444073,
-7784,-4872,13220,-482,-112,-79,-27000,33000,343000,444085,
-7768,-4808,13224,-489,-40,-102,-27000,33000,343000,444088,
-7748,-4908,13068,-423,-3,-74,-27000,33000,343000,444090,
-7720,-4976,13064,-453,391,-82,-27000,33000,343000,444103,
-7740,-5032,13212,-475,424,-39,-27000,33000,343000,444106,
-7732,-5044,13168,-485,486,-44,-27000,33000,343000,444108,
-7840,-4964,13048,-483,732,-71,-27000,33000,343000,444121,
-7820,-4952,13176,-453,804,-63,-27000,33000,343000,444123,
-7988,-4860,13104,-434,783,-50,-27000,33000,343000,444126,
-8120,-4908,13312,-401,649,-65,-27000,33000,343000,444138,
-8196,-4848,13200,-436,543,-54,-27000,33000,343000,444141,
-8196,-4912,13216,-450,527,-76,-27000,33000,343000,444143,
-8172,-4888,13168,-407,176,-125,-27000,33000,343000,444156,
-8228,-4848,13280,-388,154,-141,-27000,33000,343000,444159,
-8196,-4836,13252,-405,62,-146,-27000,33000,343000,444161,
-7924,-4824,13328,-413,-34,-135,-27000,33000,343000,444174,
-7940,-4800,13264,-439,-24,-136,-27000,33000,343000,444176,
-7984,-4772,13252,-464,24,-145,-27000,33000,343000,444179,
-7900,-4804,13268,-469,270,-91,-27000,33000,343000,444191,
-7872,-4808,13348,-444,341,-108,-27000,33000,343000,444194,
-7824,-4836,13308,-473,351,-74,-27000,33000,343000,444196,
-7940,-4908,13176,-394,573,0,-27000,33000,343000,444209,
-8096,-4740,13212,-446,553,8,-27000,33000,343000,444211,
-8148,-4924,13188,-437,601,15,-27000,33000,343000,444214,
-8344,-4880,13248,-418,385,64,-27000,33000,343000,444227,
-8316,-4908,13204,-354,346,45,-27000,33000,343000,444229,
-8308,-4860,13296,-373,273,65,-27000,33000,343000,444231,
-8272,-4944,13320,-336,85,49,-27000,33000,343000,444244,
-8252,-4908,13484,-370,64,30,-27000,33000,343000,444247,
-8248,-4876,13304,-301,66,32,-27000,33000,343000,444249,
-8044,-4936,13324,-276,102,46,-27000,33000,343000,444262,
-8120,-4924,13288,-249,68,62,-27000,33000,343000,444264,
-8128,-5104,13340,-253,76,96,-27000,33000,343000,444267,
-8084,-4800,13276,-190,204,77,-27000,33000,343000,444279,
-8052,-4864,13260,-226,263,75,-27000,33000,343000,444282,
-7896,-4804,13320,-152,324,63,-27000,33000,343000,444284,
-7944,-4844,13288,-196,590,61,-27000,33000,343000,444297,
-7892,-4956,13376,-129,613,59,-27000,33000,343000,444299,
-7952,-4920,13132,-151,645,89,-27000,33000,343000,444302,
-7920,-4724,13032,-130,732,69,-27000,33000,343000,444315,
-7924,-4680,13328,-165,772,61,-27000,33000,343000,444317,
-8044,-4676,13268,-118,758,37,-27000,33000,343000,444320,
-8188,-4744,13172,-178,584,5,-27000,33000,343000,444332,
-8276,-4764,13112,-139,480,49,-27000,33000,343000,444335,
-8288,-4668,13120,-195,139,-3,-27000,33000,343000,444347,
-8152,-4896,13208,-230,64,11,-27000,33000,343000,444350,
-8204,-4804,13040,-249,54,21,-27000,33000,343000,444352,
-8032,-4712,13032,-305,-65,24,-27000,33000,343000,444365,
-8004,-4592,13036,-302,-26,11,-27000,33000,343000,444367,
-7952,-4676,12976,-324,-56,29,-27000,33000,343000,444370,
-8036,-4740,13180,-357,44,49,-27000,33000,343000,444383,
-8020,-4636,13204,-400,94,83,-27000,33000,343000,444385,
-8060,-4716,13072,-435,196,89,-27000,33000,343000,444388,
-8108,-4668,13108,-460,281,109,-27000,33000,343000,444400,
-8088,-4752,13140,-463,342,123,-27000,33000,343000,444403,
-8212,-4792,13024,-448,257,156,-27000,33000,343000,444405,
-8280,-4876,12988,-460,229,186,-27000,33000,343000,444418,
-8336,-4832,13108,-472,202,209,-27000,33000,343000,444420,
-8312,-4800,12992,-506,210,218,-27000,33000,343000,444423,
-8184,-4840,13212,-509,0,228,-27000,33000,343000,444435,
-8292,-4820,13096,-482,0,199,-27000,33000,343000,444438,
-8300,-4848,13088,-497,-57,202,-27000,33000,343000,444440,
-8128,-4796,13268,-481,-23,215,-27000,33000,343000,444453,
-8068,-4768,13140,-519,-33,196,-27000,33000,343000,444455,
-7952,-4852,13176,-512,29,174,-27000,33000,343000,444458,
-7944,-4880,13064,-507,232,196,-27000,33000,343000,444471,
-7820,-4848,13116,-503,353,160,-27000,33000,343000,444473,
-7988,-4752,13140,-488,318,194,-27000,33000,343000,444476,
-7988,-4560,13028,-474,549,171,-27000,33000,343000,444488,
-7836,-4688,13172,-533,546,181,-27000,33000,343000,444491,
-7912,-4736,13148,-515,575,148,-27000,33000,343000,444493,
-8168,-4824,13140,-504,510,161,-27000,33000,343000,444506,
-8092,-4812,13116,-479,513,112,-27000,33000,343000,444508,
-8124,-4844,13128,-465,447,133,-27000,33000,343000,444511,
-8040,-4776,13184,-470,281,88,-27000,33000,343000,444524,
-8092,-4828,13112,-508,191,101,-27000,33000,343000,444526,
-7960,-4768,13144,-530,207,60,-27000,33000,343000,444528,
-8016,-4724,13156,-552,99,69,-27000,33000,343000,444541,
-7964,-4760,13164,-519,140,22,-27000,33000,343000,444544,
-7948,-4740,13076,-539,85,46,-27000,33000,343000,444546,
-7972,-4912,13192,-530,156,29,-27000,33000,343000,444559,
-7912,-4888,13096,-583,181,26,-27000,33000,343000,444561,
-7828,-4748,13020,-616,246,24,-27000,33000,343000,444564,
-7740,-4848,13112,-587,397,22,-27000,33000,343000,444576,
-7936,-4800,13152,-571,458,-2,-27000,33000,343000,444579,
-7892,-4832,13032,-569,424,45,-27000,33000,343000,444581,
-7952,-4940,13132,-535,367,-6,-27000,33000,343000,444594,
-8064,-4864,13116,-608,317,36,-27000,33000,343000,444596,
-8212,-4952,13136,-565,313,-8,-27000,33000,343000,444599,
-8200,-4912,13188,-563,100,-17,-27000,33000,343000,444612,
-8204,-4860,12944,-517,78,-88,-27000,33000,343000,444614,
-8076,-4868,13296,-560,38,-45,-27000,33000,343000,444616,
-7892,-4680,13160,-491,65,-101,-27000,33000,343000,444629,
-7836,-4696,13268,-541,93,-70,-27000,33000,343000,444632,
-7908,-4788,13068,-531,180,-114,-27000,33000,343000,444634,
-7852,-4764,13220,-536,483,-127,-27000,33000,343000,444647,
-7836,-4672,13216,-479,541,-134,-27000,33000,343000,444649,
-7764,-4796,13208,-503,571,-113,-27000,33000,343000,444652,
-7928,-4680,13264,-474,733,-93,-27000,33000,343000,444664,
-8096,-4768,13356,-537,723,-85,-27000,33000,343000,444667,
-8224,-4792,13212,-465,725,-72,-27000,33000,343000,444669,
-8428,-4840,13276,-502,360,-88,-27000,33000,343000,444682,
-8512,-4844,13324,-450,258,-84,-27000,33000,343000,444684,
-8412,-4792,13356,-472,189,-77,-27000,33000,343000,444687,
-8336,-4796,13320,-454,-190,-79,-27000,33000,343000,444700,
-8288,-4712,13260,-478,-180,-83,-27000,33000,343000,444702,
-8308,-4780,13236,-451,-165,-87,-27000,33000,343000,444705,
-8052,-4704,13320,-480,-37,-35,-27000,33000,343000,444717,
-7944,-4684,13356,-463,-16,-61,-27000,33000,343000,444720,
-8100,-4660,13304,-488,54,-46,-27000,33000,343000,444722,
-8064,-4680,13312,-466,382,17,-27000,33000,343000,444735,
-8072,-4764,13152,-499,436,51,-27000,33000,343000,444737,
-8164,-4724,13284,-460,497,43,-27000,33000,343000,444740,
-8384,-4808,13232,-464,531,99,-27000,33000,343000,444752,
-8404,-4776,13044,-413,432,146,-27000,33000,343000,444755,
-8468,-4800,13364,-428,404,144,-27000,33000,343000,444757,
-8672,-4968,13160,-355,-49,163,-27000,33000,343000,444770,
-8624,-4896,13148,-398,-80,155,-27000,33000,343000,444773,
-8612,-4776,13252,-339,-139,143,-27000,33000,343000,444775,
-8300,-4800,13116,-339,-345,134,-27000,33000,343000,444788,
-8236,-4784,13132,-322,-377,184,-27000,33000,343000,444790,
-8160,-4840,13112,-346,-333,177,-27000,33000,343000,444793,
-7916,-4808,13148,-329,-128,187,-27000,33000,343000,444805,
-7764,-4796,13136,-376,0,204,-27000,33000,343000,444808,
-7904,-4852,13052,-320,29,191,-27000,33000,344000,444810,
-7848,-4688,13160,-359,500,213,-27000,33000,344000,444823,
-7920,-4772,12944,-380,498,238,-27000,33000,344000,444826,
-7828,-4768,13040,-419,577,229,-27000,33000,344000,444828,
-8208,-4764,12960,-396,634,140,-27000,33000,344000,444845,
-8132,-4676,12832,-415,550,189,-27000,33000,344000,444847,
-8236,-4852,13064,-449,522,177,-27000,33000,344000,444849,
-8228,-4764,13040,-460,171,129,-27000,33000,344000,444862,
-8240,-4992,13152,-473,123,102,-27000,33000,344000,444865,
-8244,-4900,13068,-421,38,98,-27000,33000,344000,444867,
-7988,-4856,12980,-428,-18,6,-27000,33000,344000,444880,
-8044,-4908,13148,-431,-32,60,-27000,33000,344000,444882,
-7940,-4932,12976,-498,-2,58,-27000,33000,344000,444885,
-7812,-4896,13164,-452,298,68,-27000,33000,344000,444897,
-7720,-4952,13128,-428,402,51,-27000,33000,344000,444900,
-7740,-4924,13104,-410,426,49,-27000,33000,344000,444902,
-7932,-4864,13108,-361,665,59,-27000,33000,344000,444915,
-7992,-4904,13228,-370,644,84,-27000,33000,344000,444917,
-8048,-4996,13240,-392,685,71,-27000,33000,344000,444920,
-8172,-4936,13204,-338,515,65,-27000,33000,344000,444933,
-8180,-4876,13196,-350,507,35,-27000,33000,344000,444935,
-8300,-4900,13228,-310,414,5,-27000,33000,344000,444937,
-8032,-4736,13168,-303,251,-24,-27000,33000,344000,444950,
-8144,-4788,13084,-332,224,13,-27000,33000,344000,444953,
-8124,-4844,13220,-349,204,4,-27000,33000,344000,444955,
-7892,-4752,13164,-415,275,-29,-27000,33000,344000,444968,
-7964,-4812,13020,-396,311,-87,-27000,33000,344000,444970,
-7960,-4772,13188,-423,301,-75,-27000,33000,344000,444973,
-8032,-4768,13268,-528,386,-145,-27000,33000,344000,444985,
-8056,-4780,13176,-577,388,-112,-27000,33000,344000,444988,
-8164,-4792,13240,-565,460,-159,-27000,33000,344000,444990,
-8012,-4736,13044,-620,456,-116,-27000,33000,344000,445003,
-8068,-4768,13128,-646,422,-117,-27000,33000,344000,445006,
-8012,-4688,13240,-696,395,-99,-27000,33000,344000,445008,
-8188,-4924,13276,-602,376,-125,-27000,33000,344000,445021,
-8120,-4812,13300,-589,372,-118,-27000,33000,344000,445023,
-8108,-4812,13244,-570,371,-143,-27000,33000,344000,445026,
-8268,-4856,13264,-476,190,-171,-27000,33000,344000,445039,
-8228,-4864,13132,-414,153,-182,-27000,33000,344000,445041,
-8280,-4860,13244,-422,79,-172,-27000,33000,344000,445044,
-8200,-4812,13172,-379,-151,-190,-27000,33000,344000,445056,
-8248,-4916,13144,-381,-167,-175,-27000,33000,344000,445059,
-8268,-4740,13292,-339,-168,-205,-27000,33000,344000,445061,
-8056,-4800,13320,-280,-193,-213,-27000,33000,344000,445074,
-8040,-4692,13232,-225,-214,-195,-27000,33000,344000,445076,
-7980,-4868,13332,-261,-182,-181,-27000,33000,344000,445079,
-7928,-4692,13196,-184,100,-190,-27000,33000,344000,445092,
-7896,-4728,13272,-202,184,-157,-27000,33000,344000,445094,
-7864,-4716,13200,-153,268,-160,-27000,33000,344000,445097,
-7952,-4808,13104,-137,590,-148,-27000,33000,344000,445109,
-7980,-4740,13196,-106,650,-148,-27000,33000,344000,445112,
-7920,-4772,13180,-116,687,-116,-27000,33000,344000,445114,
-8212,-4824,13024,-28,683,-83,-27000,33000,344000,445127,
-8332,-4788,13096,-36,681,-55,-27000,33000,344000,445130,
-8384,-4784,13168,6,615,-79,-27000,33000,344000,445132,
-8584,-4860,12936,23,307,-83,-27000,33000,344000,445145,
-8592,-4768,13072,58,190,-70,-27000,33000,344000,445147,
-8536,-4680,13184,30,146,-68,-27000,33000,344000,445150,
-8308,-4676,13140,-5,-20,-73,-27000,33000,344000,445162,
-8280,-4660,13104,-11,16,-87,-27000,33000,344000,445165,
-8300,-4644,13012,10,46,-99,-27000,33000,344000,445167,
-8004,-4736,12888,-40,330,-81,-27000,33000,344000,445180,
-8040,-4584,13016,-57,368,-60,-27000,33000,344000,445182,
-8000,-4740,13100,-106,449,-55,-27000,33000,344000,445185,
-8220,-4720,13060,-112,768,-57,-27000,33000,344000,445198,
-8236,-4612,12860,-144,807,-47,-27000,33000,344000,445200,
-8268,-4660,12884,-134,775,-35,-27000,33000,344000,445203,
-8468,-4796,12848,-219,705,-48,-27000,33000,344000,445215,
-8476,-4712,12876,-219,650,-27,-27000,33000,344000,445218,
-8512,-4772,13056,-294,632,-31,-27000,33000,344000,445220,
-8428,-4868,12968,-325,378,-9,-27000,33000,344000,445233,
-8428,-4836,13000,-347,384,-46,-27000,33000,344000,445235,
-8444,-4816,12792,-292,309,-13,-27000,33000,344000,445238,
-8324,-4808,12836,-380,306,-3,-27000,33000,344000,445250,
-8164,-4860,12780,-454,292,10,-27000,33000,344000,445253,
-8112,-4804,12836,-478,313,-7,-27000,33000,344000,445255,
-8084,-4836,12876,-552,370,25,-27000,33000,344000,445268,
-8264,-4828,12728,-551,407,32,-27000,33000,344000,445271,
-8108,-4844,12784,-562,363,39,-27000,33000,344000,445273,
-8204,-4828,12680,-609,380,83,-27000,33000,344000,445286,
-8176,-4920,12868,-653,355,84,-27000,33000,344000,445288,
-8212,-4888,12840,-692,364,102,-27000,33000,344000,445291,
-8264,-4828,12808,-782,195,119,-27000,33000,344000,445303,
-8184,-4888,12948,-772,187,107,-27000,33000,344000,445306,
-8288,-4952,12820,-771,126,98,-27000,33000,344000,445308,
-8244,-5012,13008,-815,83,106,-27000,33000,344000,445321,
-8124,-4888,12908,-881,57,121,-27000,33000,344000,445323,
-8084,-4920,12960,-879,74,111,-27000,33000,344000,445326,
-8080,-4940,12920,-912,9,127,-27000,33000,344000,445339,
-8024,-4924,12980,-863,15,88,-27000,33000,344000,445341,
-8044,-4908,13020,-955,7,24,-27000,33000,344000,445354,
-8060,-4880,12852,-916,-28,27,-27000,33000,344000,445356,
-8012,-4980,13160,-956,-45,25,-27000,33000,344000,445359,
-8044,-4908,13152,-930,-65,-54,-27000,33000,344000,445372,
-8088,-4848,13260,-944,-2,-103,-27000,33000,344000,445374,
-8056,-4920,13280,-875,-28,-75,-27000,33000,344000,445376,
-7928,-4832,13444,-829,70,-164,-27000,33000,344000,445389,
-7872,-4892,13216,-808,33,-152,-27000,33000,344000,445392,
-7952,-4876,13312,-816,123,-175,-27000,33000,344000,445394,
-7820,-4860,13408,-681,303,-199,-27000,33000,344000,445407,
-7832,-4820,13436,-687,397,-212,-27000,33000,344000,445409,
-7864,-4884,13592,-621,394,-199,-27000,33000,344000,445412,
-7980,-4776,13612,-498,502,-222,-27000,33000,344000,445424,
-8056,-4784,13532,-514,480,-222,-27000,33000,344000,445427,
-8024,-4812,13644,-510,531,-257,-27000,33000,344000,445429,
-8180,-4728,13476,-375,399,-215,-27000,33000,344000,445442,
-8264,-4720,13428,-361,367,-238,-27000,33000,344000,445445,
-8232,-4652,13608,-341,297,-218,-27000,33000,344000,445447,
-8184,-4636,13516,-251,87,-248,-27000,33000,344000,445460,
-8320,-4640,13528,-311,66,-227,-27000,33000,344000,445462,
-8208,-4540,13440,-300,32,-245,-27000,33000,344000,445465,
-8184,-4540,13656,-269,-37,-229,-27000,33000,344000,445477,
-8048,-4512,13568,-235,-31,-236,-27000,33000,344000,445480,
-8152,-4524,13472,-251,-70,-213,-27000,33000,344000,445482,
-8188,-4620,13548,-196,41,-178,-27000,33000,344000,445495,
-8044,-4580,13464,-199,91,-186,-27000,33000,344000,445498,
-8168,-4540,13584,-175,126,-188,-27000,33000,344000,445500,
-8348,-4612,13576,-162,263,-121,-27000,33000,344000,445513,
-8392,-4608,13468,-89,220,-99,-27000,33000,344000,445515,
-8368,-4692,13468,-110,221,-76,-27000,33000,344000,445518,
-8588,-4784,13360,-35,16,29,-27000,33000,344000,445530,
-8636,-4764,13124,-21,-12,30,-27000,33000,344000,445533,
-8684,-4744,13068,28,-67,20,-27000,33000,344000,445535,
-8588,-4556,13300,-2,-277,69,-27000,33000,344000,445548,
-8420,-4548,13128,42,-341,91,-27000,33000,344000,445551,
-8416,-4756,13100,-24,-327,124,-27000,33000,344000,445553,
-8172,-4584,13056,-9,-313,136,-27000,33000,344000,445566,
-8208,-4588,13180,-44,-246,165,-27000,33000,344000,445568,
-8284,-4588,13000,14,-228,180,-27000,33000,344000,445571,
-7992,-4464,12872,-88,126,193,-27000,33000,344000,445583,
-8000,-4612,12856,-61,162,215,-27000,33000,344000,445586,
-7952,-4468,12848,-126,233,213,-27000,33000,344000,445588,
-8020,-4624,12724,-162,470,221,-27000,33000,344000,445601,
-8128,-4596,12808,-189,536,211,-27000,33000,344000,445604,
-8100,-4588,12780,-139,517,210,-27000,33000,344000,445606,
-8140,-4628,12732,-190,501,173,-27000,33000,344000,445619,
-8252,-4672,12668,-216,422,222,-27000,33000,344000,445621,
-8204,-4648,12836,-242,397,222,-27000,33000,344000,445624,
-8200,-4712,12824,-292,94,251,-27000,33000,344000,445636,
-8244,-4752,12656,-292,40,215,-27000,33000,344000,445639,
-8260,-4728,12744,-287,-71,250,-27000,33000,344000,445641,
-8184,-4752,12796,-321,-287,215,-27000,33000,344000,445654,
-8136,-4760,12872,-381,-296,230,-27000,33000,344000,445657,
-8152,-4804,12856,-404,-262,189,-27000,33000,344000,445659,
-7664,-4632,12924,-475,-116,192,-27000,33000,344000,445672,
-7828,-4684,12900,-449,-14,184,-27000,33000,344000,445674,
-7696,-4724,12992,-456,22,193,-26000,33000,344000,445677,
-7700,-4784,12860,-515,346,218,-27000,33000,344000,445690,
-7692,-4652,13036,-555,419,205,-27000,33000,344000,445692,
-7696,-4724,13040,-531,497,231,-27000,33000,344000,445694,
-7944,-4676,12928,-595,504,191,-27000,33000,344000,445707,
-7884,-4708,12992,-549,465,155,-27000,33000,344000,445710,
-7932,-4636,13088,-588,344,113,-27000,33000,344000,445722,
-8036,-4664,13152,-562,257,112,-27000,33000,344000,445725,
-7864,-4636,13108,-598,254,109,-27000,33000,344000,445727,
-7840,-4748,13076,-562,157,34,-27000,33000,344000,445740,
-7752,-4736,13260,-531,176,21,-27000,33000,344000,445742,
-7820,-4836,13180,-484,164,14,-27000,33000,344000,445745,
-7988,-4788,13376,-427,229,-34,-27000,33000,344000,445758,
-8004,-4860,13376,-424,195,-16,-27000,33000,344000,445760,
-8092,-4880,13412,-422,236,-19,-27000,33000,344000,445763,
-8032,-4792,13316,-357,292,-30,-27000,33000,345000,445775,
-8100,-4776,13408,-363,352,-59,-27000,33000,345000,445778,
-8136,-4804,13440,-297,349,-71,-27000,33000,345000,445780,
-8180,-4740,13384,-264,433,-69,-27000,33000,345000,445793,
-8168,-4740,13376,-276,432,-30,-27000,33000,345000,445795,
-8248,-4812,13456,-272,465,-70,-27000,33000,345000,445798,
-8316,-4868,13336,-247,485,-44,-27000,33000,344000,445810,
-8200,-4820,13436,-226,519,-45,-27000,33000,344000,445813,
-8340,-4804,13468,-214,459,-37,-27000,33000,344000,445815,
-8364,-4724,13192,-190,446,-54,-27000,33000,344000,445828,
-8368,-4764,13272,-218,447,-7,-27000,33000,344000,445831,
-8412,-4804,13296,-278,442,-33,-27000,33000,344000,445833,
-8496,-4852,13200,-300,189,-10,-27000,33000,345000,445846,
-8524,-4804,13300,-271,175,-22,-26000,33000,345000,445848,
-8512,-4872,13160,-267,119,20,-26000,33000,345000,445851,
-8448,-4792,13148,-248,-46,42,-26000,33000,345000,445863,
-8360,-4764,13216,-295,-26,55,-26000,33000,345000,445866,
-8280,-4760,13024,-283,12,59,-26000,33000,345000,445868,
-8128,-4756,13040,-299,169,49,-26000,33000,345000,445881,
-7952,-4712,13180,-246,203,81,-26000,33000,345000,445884,
-8044,-4668,13268,-290,231,121,-26000,33000,345000,445886,
-8140,-4636,13028,-286,516,131,-26000,33000,345000,445899,
-7992,-4700,12964,-317,543,167,-26000,33000,345000,445901,
-8152,-4744,13184,-292,598,139,-26000,33000,345000,445904,
-8176,-4736,13000,-336,582,133,-26000,33000,345000,445916,
-8252,-4628,12904,-298,546,110,-26000,33000,345000,445919,
-8316,-4736,13032,-333,477,135,-26000,33000,345000,445921,
-8308,-4588,12884,-352,185,119,-26000,33000,345000,445934,
-8300,-4668,12916,-383,186,117,-26000,33000,345000,445936,
-8268,-4688,12976,-351,146,99,-26000,33000,345000,445939,
-8176,-4736,12900,-428,38,60,-26000,33000,345000,445952,
-8132,-4780,12940,-376,33,61,-26000,33000,345000,445954,
-8136,-4804,12948,-431,34,50,-26000,33000,345000,445957,
-8140,-4888,12904,-433,130,39,-26000,33000,345000,445969,
-8100,-4956,12996,-449,168,53,-26000,33000,345000,445972,
-8028,-4920,13072,-424,213,10,-26000,33000,345000,445974,
-8016,-4948,12984,-460,329,35,-26000,33000,345000,445987,
-8180,-4828,12892,-417,324,26,-26000,33000,345000,445989,
-8100,-4824,12944,-452,348,45,-26000,33000,345000,445992,
-8204,-4772,13000,-451,382,45,-26000,33000,345000,446004,
-8276,-4888,13028,-481,407,36,-26000,33000,345000,446007,
-8128,-4808,13092,-451,429,32,-26000,33000,345000,446009,
-8204,-4888,13092,-490,435,60,-26000,33000,345000,446022,
-8152,-4720,13092,-449,391,38,-26000,33000,345000,446024,
-8136,-4888,13016,-478,382,49,-26000,33000,345000,446027,
-8256,-4780,13144,-492,295,69,-26000,33000,345000,446040,
-8256,-4804,13120,-536,268,45,-26000,33000,345000,446042,
-8248,-4820,13052,-514,292,45,-26000,33000,345000,446045,
-8284,-4812,13036,-549,143,72,-26000,33000,345000,446057,
-8220,-4828,13156,-512,122,46,-26000,33000,345000,446060,
-8196,-4812,13180,-587,88,64,-26000,33000,345000,446062,
-8048,-4736,13172,-561,114,103,-26000,33000,345000,446075,
-7992,-4632,13128,-568,126,86,-26000,33000,345000,446077,
-8052,-4724,13056,-559,167,83,-26000,33000,345000,446080,
-8040,-4624,13216,-577,348,118,-26000,33000,345000,446092,
-8036,-4584,13220,-530,364,150,-26000,33000,345000,446095,
-8056,-4712,13164,-577,402,150,-26000,33000,345000,446097,
-8188,-4604,13072,-548,403,150,-26000,33000,345000,446110,
-8176,-4604,13228,-560,412,138,-26000,33000,345000,446112,
-8164,-4656,13320,-517,402,101,-26000,33000,345000,446115,
-8260,-4676,13148,-485,228,98,-26000,33000,345000,446128,
-8220,-4680,13300,-451,126,117,-26000,33000,345000,446130,
-8328,-4708,13236,-500,110,145,-26000,33000,345000,446132,
-8280,-4740,13296,-422,-62,95,-26000,33000,345000,446145,
-8300,-4704,13256,-422,-61,81,-26000,33000,345000,446148,
-8196,-4700,13360,-384,-70,36,-26000,33000,345000,446150,
-7904,-4652,13264,-339,132,24,-26000,33000,345000,446163,
-7856,-4700,13180,-308,145,57,-26000,33000,345000,446165,
-7972,-4700,13032,-330,239,44,-26000,33000,345000,446168,
-7852,-4512,12924,-296,564,22,-26000,33000,345000,446180,
-7916,-4452,13052,-308,639,-7,-26000,33000,345000,446183,
-7976,-4632,13072,-282,636,4,-26000,33000,345000,446185,
-8096,-4704,13076,-306,646,-88,-26000,33000,345000,446198,
-8212,-4600,12964,-333,591,-69,-26000,33000,345000,446201,
-8240,-4572,13072,-340,619,-98,-26000,33000,345000,446203,
-8384,-4624,12988,-379,293,-119,-26000,33000,345000,446216,
-8372,-4604,12912,-359,269,-151,-26000,33000,345000,446218,
-8496,-4680,12812,-365,186,-145,-26000,33000,345000,446221,
-7944,-4584,12948,-424,112,-164,-26000,33000,345000,446237,
-8056,-4608,12996,-398,154,-225,-26000,33000,345000,446240,
-7996,-4696,12944,-428,179,-188,-26000,33000,345000,446242,
-7900,-4460,12984,-491,458,-197,-26000,33000,345000,446255,
-7904,-4636,12972,-514,485,-172,-26000,33000,345000,446257,
-7964,-4668,13068,-512,557,-198,-26000,33000,345000,446260,
-7872,-4772,12880,-596,537,-258,-27000,33000,345000,446273,
-7920,-4784,12980,-555,477,-276,-27000,33000,345000,446275,
-7784,-4696,13084,-558,457,-283,-27000,33000,345000,446277,
-7760,-4820,13088,-549,209,-439,-27000,33000,345000,446290,
-7848,-4864,13008,-578,198,-452,-27000,33000,345000,446293,
-7816,-4788,13160,-536,182,-509,-27000,33000,345000,446295,
-7612,-5072,13372,-503,62,-694,-27000,33000,345000,446308,
-7560,-5092,13324,-467,62,-723,-27000,33000,345000,446310,
-7364,-5052,13240,-503,58,-741,-27000,33000,345000,446313,
-7072,-4988,13172,-430,301,-957,-27000,33000,345000,446325,
-7012,-4988,13224,-433,415,-1001,-27000,33000,345000,446328,
-7008,-4988,13200,-375,480,-1020,-27000,33000,345000,446330,
-6828,-4856,13308,-350,978,-1240,-27000,33000,345000,446343,
-6672,-4788,13256,-331,1025,-1265,-27000,33000,345000,446346,
-6680,-4856,13444,-373,1081,-1362,-27000,33000,344000,446348,
-6468,-4776,13536,-234,1184,-1723,-27000,33000,344000,446361,
-6540,-4860,13780,-167,1210,-1812,-27000,33000,344000,446363,
-6680,-4852,13880,-142,1133,-1878,-27000,33000,344000,446366,
-6820,-5236,14312,81,760,-2220,-27000,33000,344000,446378,
-7020,-5348,14308,99,627,-2296,-27000,33000,344000,446381,
-7016,-5384,14372,151,477,-2396,-27000,33000,344000,446383,
-6760,-5712,14900,558,-328,-2938,-27000,33000,344000,446396,
-6556,-5692,14868,683,-414,-3077,-27000,33000,344000,446399,
-6388,-5732,14868,754,-494,-3131,-27000,32000,343000,446401,
-5548,-5648,15260,1376,-396,-3633,-27000,32000,343000,446414,
-5412,-5552,15360,1431,-267,-3684,-27000,32000,343000,446416,
-5412,-5640,15632,1590,-119,-3790,-27000,32000,343000,446419,
-5056,-5828,16104,2259,679,-4200,-27000,32000,343000,446431,
-5224,-5728,16472,2439,821,-4302,-27000,32000,343000,446434,
-5156,-5792,16456,2558,971,-4376,-27000,32000,342000,446436,
-5572,-5800,17072,3399,1501,-4803,-27000,32000,342000,446449,
-5816,-5744,17104,3514,1511,-4854,-27000,32000,342000,446452,
-5816,-5812,17124,3692,1547,-4994,-27000,32000,342000,446454,
-6324,-5784,17724,4508,1489,-5460,-27000,31000,341000,446467,
-6288,-5860,17816,4713,1405,-5522,-27000,31000,341000,446469,
-6508,-5908,17924,4848,1375,-5614,-27000,31000,341000,446472,
-6904,-5872,18400,5678,1217,-5866,-27000,31000,340000,446485,
-7016,-5796,18368,5849,1193,-5945,-26000,31000,340000,446487,
-7048,-5824,18300,6075,1109,-5964,-26000,31000,340000,446490,
-7296,-5420,18568,6843,838,-6206,-26000,31000,339000,446503,
-7376,-5388,18376,6948,749,-6173,-26000,31000,339000,446505,
-7392,-5276,18560,7086,716,-6208,-26000,31000,339000,446507,
-7856,-5072,18652,7726,563,-6146,-25000,30000,338000,446520,
-7888,-5172,18812,7887,590,-6175,-25000,30000,338000,446523,
-7944,-4952,18764,8048,507,-6123,-25000,30000,338000,446525,
-8084,-4648,18844,8705,262,-5892,-25000,30000,338000,446538,
-8272,-4544,18948,8806,154,-5787,-24000,30000,338000,446540,
-8368,-4668,18940,8943,119,-5750,-24000,30000,337000,446543,
-8988,-4356,19012,9555,-312,-5332,-24000,30000,337000,446556,
-8992,-4412,18988,9739,-371,-5292,-23000,29000,337000,446558,
-9072,-4464,19080,9817,-559,-5141,-23000,29000,337000,446560,
-9444,-4068,19144,10452,-1319,-4839,-22000,29000,336000,446573,
-9604,-4012,19160,10506,-1543,-4777,-22000,29000,336000,446576,
-9740,-3944,19192,10640,-1712,-4733,-22000,29000,336000,446578,
-10100,-3792,19096,11104,-2875,-4276,-21000,29000,336000,446591,
-10232,-3804,19056,11291,-3082,-4206,-21000,28000,336000,446593,
-10228,-3668,18992,11375,-3294,-4083,-21000,28000,336000,446596,
-10388,-3644,18716,11982,-4204,-3695,-20000,28000,336000,446608,
-10296,-3604,18704,12022,-4321,-3614,-19000,28000,336000,446611,
-10360,-3432,18400,12575,-4901,-3256,-18000,27000,335000,446623,
-10320,-3256,18524,12609,-4970,-3144,-18000,27000,335000,446626,
-10324,-3184,18476,12784,-5010,-3092,-18000,27000,335000,446628,
-10824,-3424,18788,13242,-5128,-2599,-16000,26000,335000,446641,
-10932,-3616,18960,13388,-5143,-2473,-16000,26000,335000,446643,
-11216,-3692,19140,13416,-5126,-2342,-16000,26000,335000,446646,
-11844,-4244,19152,14072,-5009,-1654,-15000,26000,335000,446658,
-11904,-4200,18972,14134,-4987,-1526,-14000,26000,335000,446661,
-12224,-4172,18768,14543,-4807,-827,-13000,25000,335000,446673,
-12276,-4308,18856,14677,-4770,-704,-13000,25000,335000,446676,
-12416,-4296,18880,14858,-4739,-599,-12000,25000,335000,446678,
-13300,-4276,18660,15509,-4391,35,-11000,25000,335000,446691,
-13436,-4268,18648,15667,-4385,159,-10000,25000,335000,446693,
-13424,-4228,18632,15810,-4298,323,-10000,25000,335000,446696,
-13152,-3388,17072,16598,-4469,1036,-8000,24000,336000,446708,
-12984,-3260,16988,16788,-4465,1129,-8000,24000,336000,446711,
-12872,-3212,16692,17051,-4431,1271,-8000,24000,336000,446713,
-11892,-2064,14508,17313,-3743,2198,-6000,24000,336000,446726,
-11676,-1680,13952,17182,-3817,2462,-6000,24000,336000,446728,
-11612,-1364,13780,17116,-3859,2747,-5000,24000,336000,446731,
-11348,-552,12424,16746,-4076,3854,-3000,24000,337000,446744,
-11388,-560,12440,16698,-4119,4043,-3000,24000,337000,446746,
-11456,-592,11300,16062,-4618,5286,-1000,23000,337000,446762,
-11452,-612,11212,15936,-4696,5502,0,23000,338000,446765,
-11392,-484,11260,15883,-4804,5686,0,23000,338000,446767,
-10652,24,11528,15484,-4927,6622,1000,23000,338000,446780,
-10456,84,11412,15390,-4907,6756,1000,23000,339000,446782,
-10448,300,11496,15274,-4878,6903,1000,23000,339000,446784,
-9976,660,11452,14917,-4653,7646,3000,22000,339000,446797,
-9824,860,11620,14837,-4636,7804,3000,22000,340000,446799,
-9740,1012,11736,14786,-4585,7986,4000,22000,340000,446802,
-9372,1516,11504,14339,-4155,8782,5000,22000,341000,446814,
-9328,1440,11468,14165,-4106,8949,6000,22000,341000,446817,
-9232,1504,11332,14035,-4045,9067,6000,21000,341000,446819,
-9084,1820,11372,13497,-3647,9736,8000,21000,342000,446832,
-8916,2016,11356,13439,-3606,9852,8000,21000,342000,446834,
-8924,2032,11480,13410,-3547,9962,8000,21000,342000,446837,
-8852,2284,10780,12828,-2897,10529,10000,21000,343000,446849,
-8908,2244,10856,12733,-2856,10617,10000,21000,343000,446852,
-8680,2260,10736,12629,-2747,10727,11000,20000,344000,446854,
-8340,2712,10588,12065,-2280,11225,12000,20000,345000,446867,
-8204,2812,10372,11924,-2148,11362,12000,20000,345000,446869,
-8104,2968,10056,11855,-2031,11437,13000,20000,345000,446871,
-7496,3144,9572,11096,-1389,11924,14000,20000,346000,446884,
-7440,3404,9344,10986,-1274,12001,15000,20000,347000,446886,
-7284,3488,9340,10772,-1166,12100,15000,20000,347000,446889,
-7024,3912,9340,9969,-401,12676,16000,19000,348000,446901,
-7080,3792,9268,9758,-234,12753,17000,19000,348000,446904,
-7072,3956,9044,9608,-10,12911,17000,19000,349000,446906,
-6816,4084,8632,8672,613,13478,18000,19000,350000,446919,
-6836,4168,8908,8557,645,13590,18000,19000,350000,446921,
-6708,4180,8992,8343,667,13644,19000,19000,350000,446924,
-6752,4352,8968,7487,1263,14061,20000,19000,352000,446936,
-6880,4384,8840,7323,1430,14147,20000,19000,352000,446939,
-6928,4456,8904,7206,1584,14249,20000,19000,352000,446941,
-6568,4488,8456,6229,2121,14730,21000,18000,354000,446954,
-6392,4592,8312,6105,2172,14808,22000,18000,354000,446956,
-6204,4688,8360,5891,2219,14905,22000,18000,354000,446958,
-5640,5220,8496,4935,2742,15310,23000,18000,356000,446971,
-5584,5336,8460,4744,2903,15373,23000,18000,356000,446973,
-5468,5272,8540,4611,3070,15417,23000,18000,357000,446976,
-5320,5396,8076,3588,3949,15550,24000,18000,358000,446988,
-5340,5400,8008,3418,4050,15582,24000,18000,359000,446991,
-5244,5476,7852,3156,4110,15600,24000,18000,359000,446993,
-5100,5640,7800,1983,4313,15886,25000,17000,0,447006,
-5212,5564,7696,1778,4427,15947,25000,17000,1000,447008,
-5208,5600,7716,1565,4433,15979,25000,17000,1000,447010,
-5036,5408,7928,313,4694,16231,26000,17000,3000,447023,
-5116,5196,7760,93,4659,16260,26000,17000,3000,447026,
-5104,5156,7788,-143,4684,16330,26000,17000,3000,447028,
-4652,4900,7760,-1220,4878,16371,27000,17000,5000,447041,
-4460,4868,7576,-1446,4930,16391,27000,17000,5000,447043,
-4496,4876,7700,-1593,4970,16403,27000,17000,6000,447045,
-4016,4744,7764,-2633,5598,16315,27000,16000,8000,447058,
-3968,4844,7516,-2835,5744,16247,27000,16000,8000,447060,
-3908,4812,7500,-3051,5927,16237,27000,16000,8000,447063,
-3648,4848,7624,-4103,6742,16073,27000,16000,10000,447075,
-3680,4836,7584,-4374,6918,16063,27000,16000,10000,447078,
-3684,4828,7708,-4532,7032,16020,27000,16000,11000,447080,
-3500,4692,7716,-5796,7725,15901,27000,16000,12000,447093,
-3444,4708,7752,-6002,7734,15859,27000,16000,13000,447095,
-3316,4716,7872,-6294,7852,15844,27000,16000,13000,447098,
-2456,4504,8376,-7440,8171,15527,27000,16000,15000,447110,
-2280,4488,8316,-7665,8385,15470,27000,16000,15000,447113,
-2060,4532,8468,-7836,8478,15374,27000,16000,16000,447115,
-936,4728,8216,-8922,9519,14904,27000,16000,17000,447128,
-624,4828,8236,-9156,9750,14717,27000,16000,18000,447130,
-452,4700,8148,-9394,10068,14616,27000,16000,18000,447133,
332,5224,7632,-10480,11306,13722,26000,17000,20000,447145,
380,5456,7348,-10755,11531,13553,26000,17000,20000,447148,
484,5376,7548,-10920,11599,13348,26000,17000,20000,447150,
152,5048,7900,-12272,12241,12472,25000,17000,22000,447163,
-44,5056,8048,-12486,12227,12285,25000,17000,22000,447165,
-72,4876,8164,-12732,12336,12147,25000,17000,23000,447168,
-428,4024,9924,-13659,11311,11177,24000,18000,24000,447180,
-412,3960,10176,-13844,11085,10945,24000,18000,25000,447183,
-160,3488,11908,-14598,9643,9765,23000,18000,26000,447195,
68,3360,12144,-14665,9509,9536,23000,18000,26000,447198,
80,3272,12332,-14763,9404,9328,23000,18000,26000,447200,
740,2956,13000,-15112,9408,8068,21000,19000,27000,447213,
684,2864,13168,-15131,9463,7845,21000,19000,28000,447215,
752,2820,13036,-15228,9616,7577,21000,19000,28000,447217,
240,2540,12932,-15547,9914,6257,20000,19000,29000,447230,
32,2348,12780,-15614,9944,6006,19000,19000,29000,447232,
-84,2408,12704,-15693,9888,5829,19000,20000,29000,447235,
-808,2400,12632,-16348,9495,5142,18000,20000,30000,447247,
-1004,2444,12580,-16525,9314,5048,18000,20000,30000,447250,
-1032,2408,12648,-16747,9217,4931,17000,20000,30000,447252,
-1432,1956,13628,-17510,8106,4483,16000,21000,31000,447265,
-1396,1912,14212,-17680,7905,4366,16000,21000,31000,447267,
-1428,1808,14488,-17767,7632,4258,15000,21000,31000,447269,
-912,640,16064,-18165,6649,3688,14000,22000,32000,447282,
-724,628,16120,-18192,6539,3578,13000,22000,32000,447284,
-524,428,16396,-18229,6555,3465,13000,22000,32000,447287,
120,124,16972,-18025,6807,2809,11000,22000,32000,447299,
380,24,17188,-17994,6971,2607,11000,22000,32000,447302,
476,-8,17180,-17865,6959,2490,11000,22000,32000,447304,
16,-468,17064,-17637,7509,1350,9000,23000,33000,447317,
-108,-496,16788,-17577,7541,1190,9000,23000,33000,447319,
-132,-584,16812,-17607,7602,967,8000,23000,33000,447322,
-604,-424,16228,-17503,7063,76,7000,24000,33000,447334,
-512,-500,16200,-17556,6986,-81,6000,24000,33000,447337,
-444,-480,16084,-17557,6734,-199,6000,24000,33000,447339,
-864,-716,17040,-17705,5702,-939,4000,24000,33000,447352,
-1292,-956,17628,-17645,5496,-1047,4000,24000,33000,447354,
-1468,-1196,17888,-17714,5454,-1172,4000,24000,33000,447356,
-1940,-2372,18144,-17418,4890,-1591,2000,25000,33000,447369,
-1856,-2568,18312,-17415,4798,-1668,1000,25000,33000,447371,
-1676,-2664,17964,-17261,4642,-1717,1000,25000,32000,447374,
-764,-2108,17560,-17035,4723,-2064,0,25000,32000,447387,
-552,-1916,17196,-16952,4786,-2159,0,25000,32000,447389,
-288,-1704,17020,-16967,4924,-2274,0,25000,32000,447391,
544,-800,15632,-17068,5582,-3149,-2000,26000,32000,447404,
552,-664,15516,-17194,5788,-3386,-3000,26000,32000,447406,
572,-612,15164,-17194,5885,-3597,-3000,26000,32000,447409,
308,-876,14004,-17568,6247,-4783,-5000,26000,31000,447421,
188,-1052,14012,-17574,6129,-4968,-5000,26000,31000,447424,
48,-1096,13928,-17655,6106,-5192,-6000,26000,31000,447426,
-636,-1976,14424,-17985,5713,-6243,-8000,27000,30000,447439,
-772,-2200,14812,-18053,5483,-6446,-8000,27000,30000,447441,
-1032,-2332,15308,-18025,5188,-6657,-8000,27000,30000,447443,
-3200,-4532,16876,-18073,4149,-7710,-11000,27000,29000,447456,
-3512,-4848,16884,-17986,3890,-7799,-11000,27000,29000,447458,
-3964,-5428,16972,-17980,3722,-7952,-12000,27000,28000,447461,
-4052,-7116,16788,-17445,1906,-8481,-14000,27000,28000,447474,
-4096,-7100,16588,-17457,1595,-8599,-14000,27000,27000,447476,
-4028,-7008,16492,-17306,1360,-8701,-15000,27000,27000,447478,
-2748,-6356,15276,-17030,508,-9328,-17000,27000,26000,447491,
-2540,-6092,15180,-16898,388,-9425,-17000,26000,26000,447494,
-2368,-5888,15140,-16873,338,-9578,-18000,26000,26000,447496,
-1808,-5748,14648,-16725,583,-10535,-20000,26000,25000,447509,
-1776,-5904,14716,-16730,704,-10738,-20000,26000,24000,447511,
-1608,-6088,14736,-16689,779,-10954,-21000,26000,24000,447513,
-1464,-6732,14676,-16279,1274,-11833,-23000,25000,23000,447526,
-1400,-7068,14948,-16128,1339,-11968,-23000,25000,23000,447529,
-1244,-7604,15096,-15699,1974,-12778,-25000,25000,21000,447541,
-1296,-7684,15536,-15554,1876,-12930,-26000,25000,21000,447544,
-1384,-7904,16004,-15424,1885,-13115,-26000,25000,21000,447546,
-3180,-9264,17672,-14855,2211,-13931,-28000,24000,19000,447559,
-3344,-9492,17804,-14740,2239,-14102,-28000,24000,19000,447561,
-3524,-9976,17988,-14513,2177,-14179,-29000,24000,19000,447564,
-3884,-11132,18304,-13492,1117,-14897,-31000,23000,17000,447576,
-3904,-11260,18172,-13248,819,-14958,-31000,23000,17000,447579,
-3852,-11264,18136,-13077,711,-15117,-31000,23000,17000,447581,
-3320,-11016,17372,-11939,397,-15927,-33000,22000,15000,447594,
-3176,-10900,17280,-11816,504,-16111,-33000,22000,15000,447596,
-2336,-10984,17432,-10630,1274,-16692,-35000,21000,14000,447609,
-2196,-10984,17580,-10376,1549,-16898,-35000,21000,13000,447611,
-2300,-11112,17604,-10107,1755,-16921,-36000,21000,13000,447614,
-2744,-11968,17748,-8812,3288,-17426,-37000,20000,11000,447627,
-3012,-12152,17968,-8558,3509,-17450,-37000,20000,11000,447629,
-3016,-12184,18004,-8337,3721,-17597,-38000,19000,11000,447631,
-4520,-12764,18812,-6965,4499,-17615,-39000,19000,9000,447645,
-4800,-12848,18608,-6657,4561,-17609,-39000,18000,9000,447647,
-5296,-13404,18760,-5493,4860,-17706,-40000,18000,7000,447660,
-5408,-13368,18712,-5183,4750,-17611,-40000,17000,7000,447662,
-5436,-13312,18788,-5020,4762,-17611,-40000,17000,6000,447665,
-5800,-13328,18984,-3832,5042,-17343,-41000,17000,5000,447677,
-5868,-13344,19044,-3615,5224,-17289,-41000,16000,4000,447680,
-6188,-13564,18524,-2327,5803,-16734,-42000,16000,3000,447692,
-6212,-13460,18648,-2018,5976,-16719,-42000,16000,2000,447695,
-6288,-13388,18572,-1761,6042,-16554,-42000,15000,2000,447697,
-6656,-13116,18280,-448,6977,-16077,-43000,15000,1000,447710,
-6832,-13040,18308,-249,7165,-15878,-43000,15000,0,447712,
-6744,-12912,18188,-17,7414,-15788,-43000,15000,0,447715,
-6980,-12584,18004,1183,8253,-15034,-43000,14000,358000,447728,
-7004,-12596,17952,1447,8402,-14975,-43000,14000,358000,447730,
-7300,-12404,18024,1652,8462,-14796,-43000,14000,358000,447732,
-7820,-12188,17872,2721,8928,-13996,-43000,14000,356000,447745,
-8060,-12104,17860,2934,8937,-13857,-43000,14000,356000,447747,
-8132,-12192,17720,3192,8980,-13705,-43000,14000,355000,447750,
-8764,-11776,17552,4159,8786,-12750,-43000,14000,354000,447763,
-8836,-11744,17432,4383,8669,-12550,-43000,13000,354000,447765,
-8984,-11504,17320,4511,8538,-12415,-43000,13000,353000,447767,
-9336,-11056,16736,5316,7837,-11372,-43000,13000,352000,447780,
-9320,-10948,16592,5432,7726,-11156,-43000,13000,352000,447782,
-9256,-10528,15724,6059,7179,-10034,-43000,13000,350000,447795,
-9140,-10428,15596,6126,7175,-9874,-43000,13000,350000,447797,
-9152,-10180,15408,6269,7139,-9625,-42000,13000,350000,447800,
-8520,-9620,14764,6600,7209,-8519,-42000,13000,349000,447813,
-8552,-9620,14572,6599,7133,-8311,-42000,13000,349000,447815,
-8500,-9516,14464,6635,7159,-8092,-42000,13000,349000,447817,
-8692,-9232,13856,6817,6971,-7058,-41000,13000,348000,447830,
-8820,-9176,13680,6841,6969,-6902,-41000,13000,347000,447832,
-8868,-9108,13616,6859,6865,-6684,-41000,13000,347000,447835,
-8792,-8724,13304,6863,6211,-5722,-41000,14000,346000,447848,
-8816,-8688,13248,6794,5970,-5482,-41000,14000,346000,447850,
-8764,-8628,13096,6786,5813,-5326,-40000,14000,346000,447852,
-8304,-8400,12772,6548,4928,-4358,-40000,14000,345000,447865,
-8124,-8360,12640,6550,4831,-4211,-40000,14000,345000,447867,
-8048,-8296,12592,6516,4605,-3999,-40000,14000,345000,447870,
-7764,-8308,12188,6206,4120,-3099,-39000,14000,345000,447883,
-7772,-8276,11864,6120,3974,-2868,-39000,14000,345000,447885,
-7624,-8272,11916,6027,3905,-2726,-39000,14000,345000,447887,
-7204,-7956,11480,5556,3539,-1998,-39000,14000,344000,447900,
-7060,-7908,11536,5452,3579,-1906,-39000,14000,344000,447903,
-6884,-7944,11600,5394,3488,-1785,-38000,15000,344000,447905,
-6652,-7916,11488,4832,3475,-1122,-38000,15000,344000,447918,
-6584,-7980,11364,4670,3430,-977,-38000,15000,344000,447920,
-6584,-7888,11224,4538,3456,-864,-38000,15000,344000,447923,
-6416,-7800,11284,3940,3116,-291,-38000,15000,343000,447935,
-6456,-7664,11392,3842,3085,-212,-37000,15000,343000,447938,
-6384,-7716,11448,3784,2908,-143,-37000,15000,343000,447940,
-6128,-7724,11688,3207,2413,204,-37000,16000,343000,447953,
-6052,-7672,11676,3093,2282,252,-37000,16000,343000,447955,
-5936,-7788,11636,2972,2189,344,-37000,16000,343000,447958,
-5680,-7684,11672,2483,1494,638,-37000,16000,343000,447970,
-5636,-7716,11592,2443,1387,656,-37000,16000,343000,447973,
-5544,-7684,11640,2374,1208,691,-37000,16000,343000,447975,
-5092,-7628,11888,2035,738,726,-36000,16000,343000,447988,
-5052,-7672,11856,1931,626,765,-36000,16000,343000,447990,
-5012,-7664,11880,1860,625,764,-36000,16000,343000,447993,
-4424,-7520,11880,1551,492,767,-36000,16000,343000,448006,
-4376,-7540,11972,1474,563,745,-36000,16000,343000,448008,
-4180,-7412,12080,1449,569,724,-36000,16000,343000,448010,
-3944,-7316,12404,1077,998,713,-36000,16000,343000,448023,
-3900,-7328,12376,1000,1055,749,-36000,16000,343000,448025,
-3892,-7476,12492,917,1172,732,-36000,16000,343000,448028,
-3980,-7476,12696,588,1513,804,-36000,16000,343000,448041,
-4120,-7432,12764,545,1588,807,-36000,16000,343000,448043,
-4164,-7476,12716,531,1556,813,-36000,17000,343000,448045,
-4408,-7668,12936,264,1453,749,-36000,17000,343000,448058,
-4412,-7632,12784,195,1348,764,-36000,17000,343000,448060,
-4456,-7632,12836,164,1259,733,-36000,17000,343000,448063,
-4444,-7748,13004,-28,977,730,-36000,17000,343000,448075,
-4320,-7784,13028,-77,981,740,-36000,17000,343000,448078,
-4236,-7728,12980,-84,922,726,-36000,17000,343000,448080,
-3984,-7740,13176,-248,961,745,-36000,17000,343000,448093,
-4040,-7664,13132,-310,929,749,-36000,17000,343000,448095,
-4012,-7728,13228,-355,927,796,-36000,17000,343000,448098,
-4092,-7864,13392,-498,1042,778,-36000,17000,343000,448110,
-4092,-7848,13520,-501,1097,791,-36000,17000,343000,448113,
-4004,-7752,13452,-510,1054,795,-36000,17000,343000,448115,
-4176,-7712,13600,-606,1104,794,-36000,17000,343000,448128,
-4100,-7716,13676,-622,1034,783,-36000,17000,343000,448131,
-4116,-7808,13728,-678,963,740,-36000,17000,343000,448143,
-4164,-7748,13824,-698,947,727,-36000,17000,343000,448146,
-4104,-7700,13580,-726,983,686,-36000,17000,343000,448148,
-4196,-7644,13780,-746,805,635,-36000,18000,343000,448161,
-4184,-7636,13844,-765,831,616,-36000,18000,343000,448163,
-4248,-7584,13872,-747,794,594,-36000,18000,343000,448166,
-4204,-7716,13800,-725,758,519,-36000,18000,343000,448178,
-4108,-7664,14024,-777,734,551,-36000,18000,343000,448181,
-4164,-7712,13736,-773,746,531,-36000,18000,343000,448183,
-4176,-7700,14052,-774,837,501,-36000,18000,343000,448196,
-4164,-7736,14052,-779,898,458,-36000,18000,343000,448198,
-3956,-7732,13908,-737,871,462,-36000,18000,343000,448200,
