Ax,Ay,Az,Gx,Gy,Gz,Roll,Pitch,Yaw,Timestamp,Target
11160,908,12196,-528,60,-120,-2000,-40000,78000,1228282,
11140,768,12216,-474,67,-114,-2000,-40000,78000,1228294,
11132,708,12152,-502,55,-120,-2000,-40000,78000,1228296,
11128,840,12108,-469,53,-89,-2000,-40000,78000,1228299,
11220,812,12112,-487,102,-111,-2000,-40000,78000,1228311,
11260,736,12004,-442,190,-122,-2000,-40000,78000,1228314,
11168,852,12140,-466,131,-85,-2000,-40000,78000,1228316,
11252,776,12056,-478,186,-122,-2000,-40000,78000,1228329,
11144,908,12240,-435,194,-94,-2000,-40000,78000,1228331,
11124,768,12252,-447,241,-112,-2000,-40000,78000,1228333,
11092,844,12284,-464,128,-127,-2000,-40000,78000,1228346,
11088,808,12328,-460,184,-136,-2000,-40000,78000,1228348,
11076,884,12228,-492,110,-137,-2000,-40000,78000,1228351,
11112,796,12192,-514,63,-134,-2000,-40000,78000,1228363,
11108,848,12416,-451,92,-123,-2000,-40000,78000,1228365,
11072,772,12236,-525,48,-136,-2000,-40000,77000,1228368,
111900,14404,-602,159,-207,-29000,-10000,94000,1230618,0,
3504,-6372,14208,-982,-393,3,-29000,-10000,94000,1230480,
3576,-6564,14196,-1021,-369,12,-29000,-10000,94000,1230482,
3592,-6516,14156,-995,-380,37,-29000,-10000,94000,1230484,
11152,784,12160,-524,12,-128,-2000,-40000,77000,1228415,
10968,728,12116,-481,74,-122,-2000,-40000,77000,1228417,
11020,940,12128,-557,60,-89,-2000,-40000,77000,1228419,
10980,812,12188,-481,107,-137,-2000,-40000,77000,1228432,
11080,660,12208,-528,99,-143,-2000,-40000,77000,1228434,
11188,852,12268,-441,87,-150,-2000,-40000,77000,1228437,
11236,844,12196,-503,82,-166,-2000,-40000,77000,1228449,
11244,816,12320,-462,149,-133,-2000,-40000,77000,1228451,
11232,744,12212,-490,167,-134,-2000,-40000,77000,1228454,
11256,772,12312,-462,256,-126,-2000,-40000,77000,1228466,
11164,860,12360,-508,244,-131,-2000,-40000,77000,1228469,
11240,836,12276,-461,239,-120,-2000,-40000,77000,1228471,
10944,740,12252,-472,241,-145,-2000,-40000,77000,1228484,
11024,672,12232,-491,156,-171,-2000,-40000,77000,1228486,
11056,764,12152,-481,168,-130,-2000,-40000,77000,1228488,
11044,812,12204,-471,64,-181,-2000,-40000,77000,1228501,
10968,800,12224,-466,87,-178,-2000,-40000,77000,1228503,
11204,900,12428,-467,26,-154,-2000,-40000,77000,1228506,
11196,824,12220,-475,142,-139,-2000,-40000,77000,1228518,
11220,760,12408,-506,80,-149,-2000,-40000,77000,1228520,
11220,800,12176,-476,142,-166,-2000,-40000,77000,1228523,
11136,716,12176,-481,160,-161,-2000,-40000,77000,1228535,
11136,820,12076,-460,235,-166,-2000,-40000,77000,1228538,
11056,720,12064,-496,107,-204,-2000,-40000,77000,1228540,
11228,908,12216,-459,144,-189,-2000,-40000,77000,1228553,
11160,916,12212,-496,92,-190,-2000,-40000,77000,1228555,
11124,808,12180,-466,143,-167,-2000,-40000,77000,1228557,
11188,760,12320,-527,87,-181,-2000,-40000,77000,1228570,
11196,876,12304,-433,163,-172,-2000,-40000,77000,1228572,
11116,848,12172,-523,116,-171,-2000,-40000,77000,1228574,
11112,796,12220,-478,108,-161,-2000,-40000,77000,1228587,
11096,832,12256,-516,22,-185,-2000,-40000,77000,1228589,
11148,744,12156,-472,105,-172,-2000,-40000,77000,1228592,
11068,804,12196,-502,35,-166,-2000,-40000,77000,1228604,
11104,856,12264,-489,109,-195,-2000,-40000,77000,1228607,
11032,856,12180,-508,6,-158,-2000,-40000,77000,1228609,
11152,744,12336,-460,118,-163,-2000,-40000,77000,1228621,
11168,876,12260,-516,76,-178,-2000,-40000,77000,1228624,
11128,804,12252,-457,135,-149,-2000,-40000,77000,1228626,
11128,652,12208,-482,156,-189,-2000,-40000,77000,1228639,
11036,652,12248,-460,149,-184,-2000,-40000,77000,1228641,
11040,640,12192,-472,151,-175,-2000,-40000,77000,1228643,
11104,784,12224,-453,131,-184,-2000,-40000,76000,1228656,
11120,700,12336,-472,121,-191,-2000,-40000,76000,1228658,
11084,728,12176,-437,119,-152,-2000,-40000,76000,1228660,
11228,884,12100,-473,148,-161,-2000,-40000,76000,1228673,
11124,792,12124,-460,189,-164,-2000,-40000,76000,1228675,
11176,812,12140,-443,233,-152,-2000,-40000,76000,1228677,
11108,896,12164,-468,217,-136,-2000,-40000,76000,1228690,
11212,884,12180,-445,202,-124,-2000,-40000,76000,1228692,
11064,780,12232,-458,244,-142,-2000,-40000,76000,1228695,
11116,840,12144,-472,183,-125,-2000,-40000,76000,1228707,
11028,796,12200,-468,193,-119,-2000,-40000,76000,1228710,
10968,820,12160,-473,138,-132,-2000,-40000,76000,1228712,
11108,868,12196,-497,103,-141,-2000,-40000,76000,1228725,
11112,752,12188,-453,93,-137,-2000,-40000,76000,1228727,
11152,836,12224,-486,74,-131,-2000,-40000,76000,1228729,
11120,784,12176,-481,143,-126,-2000,-40000,76000,1228742,
11172,832,12272,-477,83,-153,-2000,-40000,76000,1228744,
11196,820,12368,-450,156,-133,-2000,-40000,76000,1228747,
11108,816,12304,-499,133,-121,-2000,-40000,76000,1228759,
11096,796,12244,-465,201,-128,-2000,-40000,76000,1228761,
11216,800,12380,-477,188,-118,-2000,-40000,76000,1228764,
11128,704,12244,-477,138,-131,-2000,-40000,76000,1228776,
11100,796,12352,-447,201,-131,-2000,-40000,76000,1228779,
11044,664,12244,-487,120,-110,-2000,-40000,76000,1228781,
11140,844,12500,-454,148,-144,-2000,-40000,76000,1228794,
11144,808,12300,-451,143,-121,-2000,-40000,76000,1228796,
11168,784,12268,-472,155,-121,-2000,-40000,76000,1228798,
11176,924,12248,-472,123,-147,-2000,-40000,76000,1228811,
11016,784,12344,-479,152,-153,-2000,-40000,76000,1228813,
11072,788,12272,-529,75,-146,-2000,-40000,76000,1228816,
11100,828,12268,-498,75,-176,-2000,-40000,76000,1228828,
11080,828,12348,-482,29,-148,-2000,-40000,76000,1228831,
11132,816,12276,-484,73,-148,-2000,-40000,76000,1228833,
11012,840,12116,-505,63,-183,-2000,-40000,76000,1228846,
11056,744,12192,-515,13,-141,-2000,-40000,76000,1228848,
11012,768,12096,-488,75,-183,-2000,-40000,76000,1228850,
11212,832,12308,-514,23,-151,-2000,-40000,76000,1228863,
11148,812,12248,-470,119,-141,-2000,-40000,76000,1228865,
11176,816,12296,-505,62,-125,-2000,-40000,76000,1228867,
11240,696,12260,-465,206,-165,-2000,-40000,76000,1228880,
11156,752,12232,-499,151,-138,-2000,-40000,76000,1228882,
11116,748,12164,-462,204,-140,-2000,-40000,76000,1228885,
11096,728,12292,-503,138,-135,-2000,-40000,76000,1228897,
10996,796,12112,-440,195,-160,-2000,-40000,76000,1228900,
11192,932,12248,-531,148,-152,-2000,-40000,76000,1228902,
11064,880,12280,-440,99,-146,-2000,-40000,76000,1228915,
11108,844,12200,-523,66,-151,-2000,-40000,76000,1228917,
11068,872,12144,-447,117,-134,-2000,-40000,76000,1228919,
11208,880,12164,-474,57,-158,-2000,-40000,76000,1228932,
11168,836,12044,-462,104,-130,-2000,-40000,76000,1228934,
11160,764,12336,-504,54,-147,-2000,-40000,75000,1228937,
11240,748,12244,-499,175,-144,-2000,-40000,75000,1228949,
11064,804,12132,-482,133,-115,-2000,-40000,75000,1228951,
11208,816,12132,-457,176,-138,-2000,-40000,75000,1228954,
11056,792,12220,-454,145,-152,-2000,-40000,75000,1228966,
11012,796,12084,-458,127,-135,-2000,-40000,75000,1228968,
11180,732,12264,-452,184,-107,-2000,-40000,75000,1228971,
11188,828,12188,-405,202,-159,-2000,-40000,75000,1228983,
11140,808,12104,-469,118,-135,-2000,-40000,75000,1228986,
11160,764,12260,-417,184,-139,-2000,-40000,75000,1228988,
11272,788,12460,-467,165,-140,-2000,-40000,75000,1229001,
11148,772,12336,-418,203,-129,-2000,-40000,75000,1229003,
11072,776,12276,-455,202,-143,-2000,-40000,75000,1229005,
11032,840,12264,-422,129,-144,-2000,-40000,75000,1229018,
11100,796,12292,-470,105,-140,-2000,-40000,75000,1229020,
11100,836,12348,-421,123,-128,-2000,-40000,75000,1229022,
11132,740,12224,-409,164,-127,-2000,-40000,75000,1229035,
11204,832,12200,-452,139,-138,-2000,-40000,75000,1229037,
11256,688,12064,-382,190,-138,-2000,-40000,75000,1229040,
11216,672,12192,-356,282,-141,-2000,-40000,75000,1229052,
11132,640,12288,-302,347,-165,-2000,-40000,75000,1229055,
11184,708,12448,-316,314,-159,-2000,-40000,75000,1229057,
11260,760,12428,-279,375,-161,-2000,-40000,75000,1229070,
11288,836,12304,-226,479,-139,-2000,-40000,75000,1229072,
11344,748,12420,-242,425,-172,-2000,-40000,75000,1229074,
11284,816,12480,-159,559,-121,-2000,-40000,75000,1229087,
11280,764,12500,-175,543,-157,-2000,-40000,75000,1229089,
11200,900,12392,-175,511,-178,-2000,-40000,75000,1229092,
11224,848,12596,-94,570,-145,-2000,-40000,75000,1229104,
11228,940,12416,-73,515,-174,-2000,-40000,75000,1229107,
11308,836,12440,-52,586,-191,-2000,-40000,75000,1229109,
11528,828,12364,17,570,-160,-2000,-40000,75000,1229121,
11544,952,12488,74,660,-145,-2000,-40000,75000,1229124,
11432,952,12348,71,603,-150,-2000,-40000,75000,1229126,
11564,796,12420,300,810,-125,-1000,-40000,75000,1229139,
11592,848,12616,302,853,-121,-1000,-40000,75000,1229141,
11700,752,12620,387,923,-105,-1000,-40000,75000,1229143,
11664,660,13088,594,1258,-136,-1000,-40000,75000,1229156,
11656,804,13104,630,1354,-124,-1000,-39000,75000,1229158,
11752,860,13076,665,1382,-135,-1000,-39000,75000,1229160,
11700,1100,13296,762,1820,-57,-1000,-39000,75000,1229173,
11904,1204,13052,758,1910,-71,-1000,-39000,75000,1229175,
12076,1212,13196,771,2102,-26,-1000,-39000,75000,1229178,
11744,1440,13484,752,2064,60,-1000,-39000,75000,1229190,
11784,1644,13680,882,2024,92,-1000,-39000,75000,1229192,
11500,2324,13492,1042,1657,24,-1000,-39000,75000,1229195,
10908,1612,13844,1173,368,499,-1000,-39000,75000,1229207,
11132,1704,13720,1243,64,539,-1000,-39000,75000,1229209,
11012,1584,13316,1246,-284,618,-1000,-39000,75000,1229212,
10768,1496,13908,1551,-1339,883,-1000,-39000,75000,1229224,
11008,1404,13708,1632,-1613,915,-1000,-39000,75000,1229227,
11048,1336,13800,1783,-1692,956,-1000,-39000,75000,1229229,
12140,1376,14088,2072,-1406,1091,0,-39000,75000,1229242,
12444,1520,14248,2147,-1163,1086,0,-39000,75000,1229244,
12656,1564,14364,2125,-901,1078,0,-39000,75000,1229246,
13168,2044,14696,2258,1179,1102,0,-39000,75000,1229259,
12968,2124,14712,2158,1462,1138,0,-39000,75000,1229261,
12968,2124,14760,2152,1796,1196,0,-39000,75000,1229264,
12076,2080,15160,1953,2746,1269,0,-39000,75000,1229276,
11836,2112,15056,2020,2823,1337,0,-39000,75000,1229278,
11700,1864,14784,1877,2781,1346,0,-39000,75000,1229281,
10984,1272,15316,1752,1987,1539,0,-39000,75000,1229293,
11100,1076,15124,1666,1868,1541,0,-39000,75000,1229296,
11376,944,15016,1730,1766,1633,0,-38000,75000,1229298,
12500,828,15232,1469,1759,2053,0,-38000,76000,1229311,
12580,872,15372,1486,2003,2171,0,-38000,76000,1229313,
12848,856,15380,1354,2164,2220,0,-38000,76000,1229315,
13092,820,15368,1377,2414,2338,0,-38000,76000,1229318,
13264,792,15540,1062,3084,2762,0,-38000,76000,1229330,
13344,864,15648,1079,3271,2805,0,-38000,76000,1229333,
13536,888,15800,1009,3365,2837,0,-38000,76000,1229335,
13240,1148,15416,665,4416,3229,0,-37000,77000,1229348,
13044,1228,15468,493,4535,3286,0,-37000,77000,1229350,
12820,1108,15356,477,4696,3345,0,-37000,77000,1229352,
12356,784,15868,8,4690,3542,0,-37000,77000,1229365,
12588,568,15848,-130,4646,3610,0,-37000,77000,1229367,
12728,684,16024,-164,4675,3702,-1000,-37000,77000,1229369,
12992,664,16060,-290,4626,3781,-1000,-37000,77000,1229372,
13696,796,17232,-791,5528,4270,-1000,-36000,78000,1229384,
13700,848,17152,-989,5590,4338,-1000,-36000,78000,1229387,
13584,856,17184,-1049,5685,4431,-1000,-36000,78000,1229389,
13076,652,17176,-1671,5393,4844,-2000,-35000,79000,1229402,
13156,708,17360,-1702,5319,4918,-2000,-35000,79000,1229404,
13096,732,17264,-1820,5223,4968,-2000,-35000,79000,1229406,
13096,580,16976,-2183,4780,5382,-2000,-35000,79000,1229419,
13064,480,16900,-2278,4751,5443,-2000,-35000,80000,1229421,
13072,540,16888,-2362,4685,5565,-2000,-34000,80000,1229423,
12996,324,16544,-2658,4512,5896,-3000,-34000,80000,1229436,
12992,256,16604,-2722,4505,5963,-3000,-34000,80000,1229438,
13096,180,16468,-2789,4499,5996,-3000,-34000,81000,1229441,
13040,-8,16156,-3027,4710,6333,-4000,-33000,81000,1229453,
13140,28,16068,-3093,4829,6341,-4000,-33000,81000,1229456,
12932,84,15944,-3136,4864,6394,-4000,-33000,82000,1229458,
12844,-156,15564,-3361,5266,6572,-5000,-33000,82000,1229471,
12660,-96,15404,-3375,5459,6638,-5000,-33000,82000,1229473,
12792,-264,15420,-3437,5527,6672,-5000,-32000,82000,1229475,
12456,-160,15064,-3604,6060,6822,-6000,-32000,83000,1229488,
12468,-132,14988,-3672,6236,6800,-6000,-32000,83000,1229490,
12432,-188,15020,-3695,6294,6863,-6000,-32000,83000,1229493,
12188,-268,14444,-3855,6825,6928,-7000,-31000,84000,1229505,
12048,-456,14584,-3854,6928,6943,-7000,-31000,84000,1229508,
11936,-480,14384,-3868,7070,6948,-7000,-31000,84000,1229510,
11324,-788,14136,-3894,7430,7062,-8000,-30000,85000,1229523,
11180,-864,14136,-3925,7417,7096,-8000,-30000,85000,1229525,
11200,-904,13916,-3893,7433,7117,-8000,-30000,85000,1229527,
10760,-1076,13804,-3901,7292,7134,-9000,-29000,86000,1229540,
10524,-948,14008,-3926,7211,7158,-9000,-29000,86000,1229542,
10268,-1000,13960,-3889,7242,7139,-9000,-29000,86000,1229545,
10024,-1032,13444,-4049,6771,7143,-10000,-28000,87000,1229557,
9904,-1060,13548,-3965,6778,7155,-10000,-28000,87000,1229559,
9916,-1264,13460,-4081,6767,7136,-10000,-27000,87000,1229572,
9732,-1264,13472,-4067,6884,7115,-10000,-27000,88000,1229574,
9904,-1312,13404,-4112,6840,7095,-11000,-27000,88000,1229576,
9340,-1320,13144,-4094,7157,7003,-11000,-26000,88000,1229589,
9324,-1356,13092,-4189,7123,7026,-11000,-26000,88000,1229591,
9176,-1352,13096,-4115,7247,7003,-11000,-26000,88000,1229594,
8712,-1504,12860,-4203,7204,6789,-12000,-25000,89000,1229606,
8580,-1592,12860,-4129,7239,6773,-12000,-25000,89000,1229608,
8436,-1612,12904,-4173,7195,6778,-12000,-25000,89000,1229611,
8224,-1976,12800,-4009,7207,6611,-13000,-24000,90000,1229623,
8208,-1968,13012,-4077,7218,6606,-13000,-24000,90000,1229626,
8008,-2064,12968,-4007,7258,6533,-13000,-24000,90000,1229628,
7596,-2096,12860,-4036,7162,6300,-14000,-23000,90000,1229640,
7476,-2060,12760,-3974,7220,6269,-14000,-23000,90000,1229643,
7064,-2244,12700,-4036,6822,6032,-14000,-22000,91000,1229655,
6828,-2324,12688,-3980,6861,5935,-14000,-22000,91000,1229658,
6824,-2380,12668,-4013,6758,5891,-14000,-22000,91000,1229660,
6500,-2588,12648,-3865,6454,5496,-15000,-21000,91000,1229672,
6376,-2688,12728,-3932,6340,5458,-15000,-21000,91000,1229675,
6304,-2788,12656,-3852,6368,5404,-15000,-21000,91000,1229677,
5956,-2820,12604,-3798,5799,5022,-16000,-20000,92000,1229689,
5944,-2788,12688,-3721,5708,4987,-16000,-20000,92000,1229692,
5896,-2788,12528,-3726,5614,4890,-16000,-20000,92000,1229694,
5600,-2944,12764,-3641,5174,4646,-16000,-19000,92000,1229707,
5620,-2936,12896,-3614,5085,4603,-16000,-19000,92000,1229709,
5588,-2996,13048,-3572,4879,4309,-17000,-19000,93000,1229721,
5524,-3084,12924,-3605,4833,4254,-17000,-19000,93000,1229724,
5472,-3000,12848,-3571,4879,4216,-17000,-18000,93000,1229726,
5628,-3088,12972,-3584,4700,3974,-17000,-18000,93000,1229738,
5488,-3136,12924,-3533,4789,3944,-17000,-18000,93000,1229741,
5552,-3184,13012,-3575,4733,3914,-17000,-18000,93000,1229743,
5180,-3240,13188,-3595,4752,3699,-18000,-17000,93000,1229756,
5152,-3212,13124,-3587,4725,3714,-18000,-17000,93000,1229758,
5188,-3212,13104,-3547,4683,3640,-18000,-17000,93000,1229760,
4940,-3368,13204,-3580,4341,3422,-18000,-17000,93000,1229773,
4864,-3380,13156,-3581,4235,3415,-18000,-16000,93000,1229775,
5016,-3448,13072,-3539,4240,3368,-18000,-16000,93000,1229777,
4648,-3428,13248,-3552,3897,3269,-19000,-16000,94000,1229790,
4812,-3452,13480,-3569,3813,3236,-19000,-16000,94000,1229792,
4736,-3436,13464,-3614,3472,3023,-19000,-15000,94000,1229805,
4760,-3444,13264,-3607,3518,2993,-19000,-15000,94000,1229807,
4884,-3404,13404,-3657,3416,2941,-19000,-15000,94000,1229809,
4668,-3644,13424,-3732,3475,2818,-20000,-15000,94000,1229822,
4572,-3720,13656,-3705,3548,2780,-20000,-15000,94000,1229824,
4564,-3696,13536,-3767,3536,2728,-20000,-15000,94000,1229826,
3676,-6812,14224,-625,62,-187,-29000,-10000,94000,1230621,
3772,-6756,14292,-543,65,-167,-29000,-10000,94000,1230633,
3712,-6768,14524,-598,42,-148,-29000,-10000,94000,1230636,
3740,-6708,14400,-535,53,-146,-30000,-10000,94000,1230638,
3848,-6788,14260,-619,45,-104,-30000,-10000,94000,1230650,
3804,-6632,14272,-574,33,-93,-30000,-10000,94000,1230653,
3656,-6760,14240,-624,30,-98,-30000,-10000,94000,1230655,
3776,-6648,14316,-616,1,-47,-30000,-10000,94000,1230667,
3760,-6704,14068,-609,-1,-46,-30000,-10000,94000,1230670,
3704,-6716,14208,-593,34,-59,-30000,-10000,94000,1230672,
3804,-6744,14268,-621,24,-37,-30000,-10000,94000,1230685,
3864,-6672,14264,-581,76,-36,-30000,-10000,94000,1230687,
3780,-6720,14176,-663,35,-22,-30000,-10000,94000,1230689,
3732,-6816,14232,-633,249,-49,-30000,-10000,94000,1230702,
3776,-6840,14256,-669,261,-53,-30000,-10000,94000,1230704,
3784,-6808,14156,-691,284,-43,-30000,-10000,94000,1230706,
3676,-6872,14320,-656,269,-34,-30000,-10000,94000,1230719,
3536,-6776,14092,-648,262,-51,-30000,-10000,94000,1230721,
3560,-6756,14172,-700,192,-58,-30000,-10000,94000,1230723,
3648,-6680,14140,-673,128,-55,-30000,-10000,94000,1230736,
3516,-6712,14228,-703,65,-34,-30000,-10000,94000,1230738,
3480,-6640,14164,-693,106,-35,-30000,-10000,94000,1230740,
3392,-6828,14220,-787,-114,-82,-30000,-10000,94000,1230753,
3448,-6788,14176,-728,-107,-81,-30000,-10000,94000,1230755,
3420,-6792,13968,-775,-201,-98,-30000,-10000,94000,1230757,
3588,-6892,13988,-741,-285,-139,-30000,-10000,94000,1230770,
3460,-6872,13996,-819,-399,-170,-30000,-10000,94000,1230772,
3536,-6928,13924,-753,-391,-160,-30000,-10000,94000,1230774,
3636,-6848,14016,-703,-404,-162,-30000,-10000,94000,1230787,
3676,-6784,14132,-758,-477,-146,-30000,-10000,94000,1230789,
3612,-6836,14160,-720,-393,-174,-30000,-10000,94000,1230791,
3772,-6768,14056,-739,-343,-155,-30000,-11000,94000,1230804,
3740,-6872,14104,-708,-276,-148,-30000,-11000,94000,1230806,
3744,-6876,14044,-748,-358,-130,-30000,-11000,94000,1230809,
3708,-6884,13984,-661,-237,-143,-30000,-11000,94000,1230821,
3716,-6840,14008,-693,-303,-160,-30000,-11000,94000,1230824,
3676,-6932,14180,-635,-269,-139,-30000,-11000,94000,1230826,
3764,-6948,14032,-641,-253,-170,-30000,-11000,94000,1230838,
3820,-6852,14084,-573,-186,-177,-30000,-11000,94000,1230841,
3828,-6964,14104,-621,-179,-191,-30000,-11000,94000,1230843,
3812,-6980,14064,-523,-67,-215,-30000,-11000,94000,1230855,
3744,-6944,14096,-532,-58,-185,-30000,-11000,94000,1230858,
3752,-7040,14148,-493,-100,-188,-30000,-11000,94000,1230860,
3636,-6852,14104,-428,36,-186,-30000,-11000,94000,1230872,
3828,-6944,14104,-428,38,-193,-30000,-11000,94000,1230875,
3828,-6940,14156,-440,101,-183,-30000,-11000,94000,1230877,
3656,-7040,14176,-396,96,-163,-30000,-11000,94000,1230889,
3776,-6960,14120,-352,107,-170,-30000,-11000,94000,1230892,
3824,-6996,14200,-361,122,-170,-30000,-11000,94000,1230894,
3676,-7000,14068,-333,57,-204,-30000,-11000,94000,1230907,
3752,-7000,14112,-291,173,-197,-30000,-11000,94000,1230909,
3720,-6984,14328,-335,107,-224,-30000,-11000,94000,1230911,
3684,-6944,14256,-282,246,-238,-30000,-11000,94000,1230924,
3780,-6884,14284,-306,205,-256,-30000,-11000,94000,1230926,
3796,-6936,14388,-313,298,-262,-30000,-11000,94000,1230938,
3732,-6916,14404,-381,246,-217,-30000,-11000,94000,1230941,
3656,-6860,14404,-337,224,-245,-30000,-11000,94000,1230943,
3592,-6936,14344,-390,116,-238,-30000,-11000,94000,1230955,
3604,-6936,14388,-320,165,-236,-30000,-11000,94000,1230958,
3588,-7060,14420,-359,136,-228,-30000,-11000,94000,1230960,
3804,-6972,14380,-342,6,-243,-30000,-11000,94000,1230972,
3760,-6932,14448,-294,23,-271,-30000,-11000,94000,1230975,
3904,-6940,14300,-357,71,-262,-30000,-11000,94000,1230977,
4000,-6904,14336,-401,148,-265,-30000,-11000,94000,1230990,
3880,-6888,14472,-400,201,-283,-30000,-11000,94000,1230992,
3904,-7004,14512,-397,182,-264,-30000,-11000,94000,1230994,
3852,-6912,14296,-470,192,-283,-30000,-11000,94000,1231007,
3728,-6924,14240,-426,243,-270,-30000,-11000,94000,1231009,
3804,-6856,14252,-430,197,-253,-30000,-11000,94000,1231011,
3668,-6764,14164,-497,27,-253,-30000,-11000,94000,1231024,
3728,-6808,14084,-486,20,-210,-30000,-11000,94000,1231026,
3764,-6828,14236,-499,-65,-252,-30000,-11000,94000,1231028,
3764,-6812,14260,-570,-215,-195,-30000,-11000,94000,1231041,
3668,-6704,14204,-518,-297,-188,-30000,-11000,94000,1231043,
3844,-6816,14240,-550,-214,-216,-30000,-11000,94000,1231045,
3916,-6920,14240,-584,-310,-199,-30000,-11000,94000,1231058,
3996,-6912,14128,-575,-253,-181,-30000,-11000,94000,1231060,
3940,-6880,14304,-590,-326,-187,-30000,-11000,94000,1231062,
3832,-6880,14096,-498,-89,-171,-30000,-11000,94000,1231075,
3940,-6752,14048,-550,-151,-192,-30000,-11000,94000,1231077,
3932,-6780,14128,-491,-76,-198,-30000,-11000,94000,1231079,
3820,-6784,13864,-440,-8,-235,-30000,-11000,94000,1231092,
3848,-6776,14028,-473,15,-208,-30000,-11000,93000,1231094,
3724,-6844,13984,-433,-8,-212,-30000,-11000,93000,1231096,
3808,-6756,13824,-321,36,-242,-30000,-11000,93000,1231109,
3804,-6904,13928,-347,-36,-241,-30000,-11000,93000,1231111,
3732,-6792,13964,-265,89,-268,-30000,-11000,93000,1231113,
3768,-6716,14052,-194,162,-256,-30000,-11000,93000,1231126,
3880,-6732,13912,-188,220,-287,-30000,-11000,93000,1231128,
3752,-6756,13872,-188,218,-298,-30000,-11000,93000,1231130,
3820,-6620,13868,-142,362,-268,-30000,-11000,93000,1231143,
3728,-6600,13864,-134,319,-288,-30000,-11000,93000,1231145,
3636,-6600,13888,-91,383,-264,-30000,-11000,93000,1231148,
3540,-6444,13736,-71,275,-268,-30000,-11000,93000,1231160,
3460,-6464,13780,-49,307,-272,-30000,-11000,93000,1231162,
3492,-6416,13820,-64,244,-267,-30000,-11000,93000,1231165,
3436,-6264,13892,-12,220,-298,-30000,-11000,93000,1231177,
3328,-6264,13640,-15,220,-272,-30000,-11000,93000,1231179,
3324,-6352,13664,-19,244,-295,-30000,-11000,93000,1231182,
3164,-6160,13376,30,200,-282,-30000,-11000,93000,1231194,
3224,-6128,13432,-2,181,-283,-30000,-11000,93000,1231196,
3088,-6048,13440,42,186,-265,-30000,-11000,93000,1231199,
2932,-5860,13088,83,11,-270,-30000,-11000,93000,1231211,
2872,-5844,13116,104,35,-278,-30000,-11000,93000,1231214,
2840,-5800,12940,96,-40,-281,-30000,-11000,93000,1231216,
2512,-5620,12980,183,-138,-304,-30000,-11000,93000,1231228,
2460,-5576,12784,253,-159,-271,-30000,-11000,93000,1231231,
2488,-5604,12880,252,-207,-294,-30000,-11000,93000,1231233,
2284,-5452,12732,418,-206,-296,-30000,-11000,93000,1231245,
2268,-5352,12612,409,-225,-288,-30000,-11000,93000,1231248,
2208,-5464,12636,480,-181,-277,-30000,-11000,93000,1231250,
2012,-5312,12684,627,-112,-367,-30000,-11000,93000,1231262,
1912,-5216,12588,727,-61,-369,-30000,-11000,93000,1231265,
1900,-5236,12504,728,-25,-412,-30000,-11000,93000,1231267,
1356,-5180,12448,929,84,-551,-29000,-11000,93000,1231280,
1336,-5252,12500,946,83,-577,-29000,-11000,93000,1231282,
1144,-5128,12496,1007,40,-655,-29000,-11000,93000,1231284,
1044,-5008,12276,1183,-173,-901,-29000,-11000,93000,1231297,
964,-5076,12068,1244,-219,-939,-29000,-11000,93000,1231299,
988,-5156,12104,1306,-293,-1030,-29000,-11000,93000,1231301,
840,-4900,11740,1503,-503,-1390,-29000,-11000,93000,1231314,
808,-4656,11756,1580,-565,-1408,-29000,-11000,93000,1231316,
844,-4716,11832,1602,-605,-1487,-29000,-11000,93000,1231318,
632,-4364,11116,1769,-1040,-1901,-29000,-11000,93000,1231331,
712,-4336,11160,1822,-1082,-1991,-29000,-11000,93000,1231333,
552,-4284,11036,1834,-1268,-2043,-28000,-11000,93000,1231336,
512,-4056,10708,2098,-1739,-2399,-28000,-12000,92000,1231348,
536,-4040,10836,2118,-1923,-2524,-28000,-12000,92000,1231350,
588,-4180,11048,2213,-1979,-2595,-28000,-12000,92000,1231353,
920,-4320,11088,2601,-2400,-3095,-28000,-12000,92000,1231365,
952,-4212,11060,2692,-2415,-3139,-28000,-12000,92000,1231367,
1028,-4124,11104,2719,-2490,-3231,-28000,-12000,92000,1231370,
1172,-3900,10764,3101,-2347,-3634,-27000,-12000,92000,1231382,
1068,-3988,10824,3086,-2366,-3736,-27000,-13000,92000,1231385,
1184,-4124,10840,3597,-2207,-4102,-27000,-13000,92000,1231397,
1140,-3984,10724,3618,-2309,-4193,-27000,-13000,92000,1231400,
1028,-3872,10684,3758,-2343,-4243,-27000,-13000,91000,1231402,
984,-3456,10608,4146,-2838,-4762,-26000,-13000,91000,1231414,
1004,-3348,10584,4125,-2969,-4839,-26000,-13000,91000,1231417,
1004,-3364,10468,4217,-3104,-4943,-26000,-14000,91000,1231419,
1112,-3216,10544,4458,-3659,-5419,-25000,-14000,91000,1231431,
1252,-3208,10496,4517,-3834,-5528,-25000,-14000,91000,1231434,
1596,-2804,10476,4894,-4301,-6076,-25000,-15000,90000,1231446,
1524,-2816,10508,4933,-4436,-6230,-24000,-15000,90000,1231449,
1684,-2812,10596,5033,-4426,-6347,-24000,-15000,90000,1231451,
2140,-2804,10684,5293,-4673,-6920,-24000,-16000,90000,1231463,
2252,-2816,10628,5381,-4638,-7002,-24000,-16000,90000,1231466,
2288,-2756,10748,5439,-4759,-7118,-23000,-16000,89000,1231468,
2700,-2716,11088,5781,-4928,-7730,-23000,-17000,89000,1231480,
2852,-2728,11088,5891,-4900,-7816,-22000,-17000,89000,1231483,
3456,-2720,11624,6255,-4855,-8323,-22000,-17000,88000,1231495,
3524,-2544,11668,6378,-4777,-8376,-21000,-17000,88000,1231497,
3708,-2500,11644,6387,-4772,-8460,-21000,-18000,88000,1231500,
3880,-1168,11596,6711,-4641,-8864,-20000,-18000,87000,1231512,
4084,-908,11764,6641,-4694,-8924,-20000,-18000,87000,1231515,
3884,-832,11736,6686,-4721,-8967,-20000,-19000,87000,1231517,
4328,-820,11800,6565,-5191,-9279,-19000,-19000,86000,1231529,
4240,-920,12004,6685,-5259,-9339,-19000,-20000,86000,1231532,
4440,-976,12048,6690,-5397,-9392,-19000,-20000,86000,1231534,
5180,-1128,12872,7008,-5787,-9659,-18000,-21000,85000,1231546,
5372,-1212,12748,7013,-5716,-9716,-17000,-21000,85000,1231549,
6012,-972,13432,7158,-5681,-10032,-16000,-22000,84000,1231561,
6104,-788,13384,7082,-5630,-10079,-16000,-22000,84000,1231564,
6248,-608,13412,7109,-5764,-10148,-16000,-22000,84000,1231566,
6888,-108,13172,6983,-5463,-10365,-15000,-23000,83000,1231578,
7064,-80,13068,6919,-5447,-10471,-15000,-23000,83000,1231581,
7132,-80,13112,6991,-5312,-10529,-15000,-23000,83000,1231583,
7392,324,13180,6899,-5263,-10860,-13000,-24000,82000,1231596,
7420,308,13308,6946,-5256,-10908,-13000,-24000,82000,1231598,
7360,372,13268,6913,-5428,-10936,-13000,-24000,81000,1231600,
7552,364,13404,7004,-5998,-11166,-12000,-25000,80000,1231613,
7696,336,13500,6999,-6234,-11229,-12000,-25000,80000,1231615,
8304,32,14088,7220,-6586,-11373,-10000,-26000,79000,1231627,
8404,136,14068,7228,-6605,-11411,-10000,-26000,79000,1231630,
8648,8,14180,7298,-6622,-11381,-10000,-26000,79000,1231632,
9284,988,14336,7178,-6434,-11389,-9000,-27000,77000,1231645,
9424,1048,14324,7170,-6474,-11381,-8000,-27000,77000,1231647,
9568,1084,14448,7137,-6335,-11362,-8000,-27000,77000,1231649,
9944,1600,14324,6901,-6040,-11272,-7000,-28000,76000,1231662,
9948,1716,14456,6943,-5950,-11186,-7000,-28000,76000,1231664,
9968,1752,14612,6853,-5937,-11190,-6000,-28000,76000,1231666,
9948,2268,14524,6576,-6297,-11051,-5000,-29000,74000,1231678,
9928,2280,14572,6473,-6331,-11011,-5000,-29000,74000,1231681,
10064,2304,14552,6421,-6559,-11023,-5000,-29000,74000,1231683,
10408,2280,14500,5922,-7216,-10818,-3000,-30000,73000,1231696,
10496,2304,14580,5894,-7345,-10847,-3000,-30000,73000,1231698,
10888,2052,14768,5476,-7676,-10563,-2000,-31000,71000,1231710,
10984,2108,14616,5415,-7839,-10578,-2000,-31000,71000,1231713,
11108,2224,14672,5380,-7791,-10506,-2000,-31000,71000,1231715,
11360,2844,14588,4978,-7958,-10214,0,-32000,70000,1231728,
11352,3060,14484,4924,-7921,-10116,0,-32000,69000,1231730,
11348,3084,14604,4784,-8000,-10058,0,-33000,69000,1231732,
11360,3664,14392,4412,-8135,-9706,0,-33000,68000,1231745,
11356,3672,14404,4345,-8267,-9667,0,-34000,68000,1231747,
11432,3708,14388,4292,-8195,-9608,1000,-34000,68000,1231749,
11764,3436,14560,4051,-8376,-9356,2000,-34000,67000,1231762,
11804,3412,14656,4061,-8287,-9306,2000,-35000,66000,1231764,
11812,3320,14868,3988,-8336,-9338,2000,-35000,66000,1231767,
12368,3140,14816,3797,-7826,-9204,3000,-35000,65000,1231779,
12392,3212,14832,3726,-7839,-9218,3000,-36000,65000,1231782,
12492,3276,14640,3702,-7597,-9172,4000,-36000,64000,1231784,
12620,3636,14540,3360,-6985,-9175,5000,-36000,63000,1231797,
12716,3676,14300,3350,-6754,-9112,5000,-37000,63000,1231799,
12548,3756,14388,3242,-6701,-9113,5000,-37000,63000,1231801,
12396,3900,14044,3058,-6071,-9075,6000,-37000,62000,1231814,
12516,3952,14036,3001,-6147,-9143,6000,-37000,61000,1231816,
12448,3848,14216,3015,-6004,-9128,6000,-37000,61000,1231819,
12700,3360,14128,2903,-5883,-9231,8000,-38000,60000,1231831,
12688,3296,14356,2866,-5938,-9275,8000,-38000,60000,1231834,
12864,3192,14548,2921,-5898,-9240,8000,-38000,59000,1231836,
13156,3180,14712,2880,-6179,-9248,9000,-38000,58000,1231849,
13332,3328,14844,2930,-6185,-9189,9000,-38000,58000,1231851,
13368,3388,14956,2874,-6216,-9173,9000,-39000,58000,1231853,
13784,4004,14664,2735,-5893,-8882,11000,-39000,56000,1231866,
13720,4112,14640,2645,-5832,-8848,11000,-39000,56000,1231868,
13868,4288,14524,2608,-5714,-8760,11000,-39000,56000,1231871,
13912,4680,14212,2272,-5292,-8377,12000,-40000,55000,1231883,
13920,4576,14104,2250,-5086,-8289,12000,-40000,55000,1231886,
13972,4648,13980,2184,-5156,-8284,12000,-40000,54000,1231888,
14152,4284,13952,2120,-4893,-8022,13000,-40000,53000,1231901,
14084,4284,13976,2125,-4902,-8007,13000,-40000,53000,1231903,
14120,4176,14044,2134,-4787,-7961,14000,-40000,53000,1231905,
14400,4012,13956,2174,-4461,-7847,15000,-40000,52000,1231918,
14420,4104,14288,2152,-4298,-7793,15000,-40000,51000,1231920,
14608,4412,14652,2056,-3423,-7555,16000,-40000,50000,1231933,
14548,4564,14660,2021,-3152,-7439,16000,-40000,50000,1231935,
14540,4712,14572,1959,-3052,-7414,16000,-41000,50000,1231937,
14084,5052,14212,1698,-2187,-6970,17000,-41000,49000,1231950,
13948,5116,14136,1644,-2158,-6901,17000,-41000,49000,1231952,
13792,5152,14136,1620,-2013,-6785,17000,-41000,49000,1231955,
13444,5304,13968,1329,-2046,-6380,18000,-41000,48000,1231967,
13356,5324,14036,1343,-2006,-6294,18000,-41000,48000,1231969,
13308,5304,13692,1227,-2133,-6251,18000,-41000,48000,1231972,
13360,5120,13776,1093,-2316,-5951,19000,-41000,47000,1231984,
13228,5172,13820,975,-2420,-5908,19000,-41000,47000,1231987,
13260,5108,13844,980,-2443,-5881,19000,-41000,46000,1231989,
13376,5032,14132,736,-2478,-5722,19000,-41000,46000,1232002,
13492,5144,14128,703,-2476,-5668,20000,-41000,46000,1232004,
13448,5108,14320,662,-2480,-5617,20000,-41000,45000,1232006,
13492,5384,13844,417,-2138,-5451,20000,-41000,45000,1232019,
13476,5344,13812,377,-2121,-5425,20000,-41000,44000,1232021,
13416,5352,13824,348,-2004,-5391,20000,-41000,44000,1232024,
13316,5516,13804,111,-1735,-5075,21000,-41000,44000,1232036,
13308,5572,13912,94,-1776,-5009,21000,-41000,44000,1232039,
13312,5548,13780,52,-1676,-4948,21000,-41000,43000,1232041,
13244,5492,13752,-121,-1594,-4611,21000,-41000,43000,1232054,
13436,5504,13928,-187,-1616,-4548,22000,-41000,43000,1232056,
13528,5552,13864,-289,-1678,-4268,22000,-41000,42000,1232069,
13588,5672,13808,-307,-1601,-4250,22000,-41000,42000,1232071,
13584,5632,13788,-346,-1636,-4221,22000,-41000,42000,1232073,
13976,5736,13960,-398,-1234,-3866,22000,-41000,41000,1232086,
13880,5788,14220,-431,-1109,-3780,22000,-41000,41000,1232088,
13952,5832,14204,-495,-1053,-3718,22000,-41000,41000,1232091,
13900,6080,14472,-737,-412,-3270,23000,-41000,41000,1232103,
13800,6228,14416,-856,-419,-3170,23000,-40000,41000,1232106,
13760,6200,14424,-840,-308,-3093,23000,-40000,41000,1232108,
13464,6292,14292,-1201,-310,-2551,23000,-40000,40000,1232120,
13440,6332,14368,-1248,-271,-2448,23000,-40000,40000,1232123,
13432,6404,14592,-1326,-334,-2319,23000,-40000,40000,1232125,
13356,6540,14672,-1688,-341,-1812,23000,-40000,40000,1232138,
13384,6392,14732,-1690,-355,-1722,23000,-40000,40000,1232140,
13408,6300,14712,-1812,-331,-1684,23000,-40000,40000,1232143,
13260,6300,15028,-2144,-289,-1281,23000,-40000,40000,1232155,
13376,6284,15072,-2212,-203,-1227,23000,-40000,40000,1232158,
13416,6184,15156,-2301,-229,-1173,23000,-40000,40000,1232160,
13304,6212,15464,-2662,222,-821,22000,-40000,40000,1232172,
13292,6164,15392,-2774,251,-747,22000,-40000,40000,1232175,
13320,6344,15452,-2821,385,-674,22000,-40000,40000,1232177,
13188,6392,15736,-3244,909,-336,22000,-40000,40000,1232190,
13048,6448,15836,-3326,997,-246,22000,-40000,40000,1232192,
13064,6416,15964,-3413,1110,-205,22000,-40000,40000,1232195,
12728,6652,16372,-3954,1478,72,21000,-40000,40000,1232207,
12520,6628,16252,-4101,1516,120,21000,-40000,40000,1232210,
12556,6612,16308,-4166,1544,193,21000,-40000,40000,1232212,
12124,6656,16596,-4802,1395,444,21000,-40000,40000,1232224,
11900,6724,16576,-4857,1395,478,21000,-40000,40000,1232227,
11984,6608,16688,-4991,1335,512,21000,-40000,40000,1232229,
11884,6540,16820,-5527,1222,621,20000,-39000,40000,1232242,
11928,6540,16852,-5675,1252,641,20000,-39000,40000,1232244,
12012,6580,17120,-5762,1292,651,20000,-39000,40000,1232246,
11900,6588,17312,-6269,1741,649,19000,-39000,40000,1232259,
12012,6420,17624,-6321,1844,639,19000,-39000,40000,1232261,
11964,6564,17740,-6435,1999,668,19000,-39000,40000,1232264,
11996,6620,17840,-6937,2771,592,18000,-39000,40000,1232276,
11956,6664,17964,-6990,2965,540,18000,-39000,40000,1232278,
11876,6648,18080,-7103,3042,561,18000,-39000,40000,1232281,
11772,6668,18372,-7476,3954,485,17000,-38000,41000,1232293,
11664,6608,18320,-7646,4067,453,17000,-38000,41000,1232296,
11824,6736,18408,-7666,4325,427,17000,-38000,41000,1232298,
11528,6700,18564,-8198,5073,279,16000,-38000,41000,1232311,
11516,6648,18772,-8244,5252,265,15000,-38000,41000,1232313,
11480,6740,18896,-8402,5319,191,15000,-37000,41000,1232316,
11204,6880,18536,-8873,5886,37,14000,-37000,41000,1232328,
11224,6796,18748,-9062,5924,-20,14000,-37000,41000,1232331,
11192,6668,18644,-9077,6083,-78,14000,-37000,41000,1232333,
11100,6724,18576,-9684,6440,-299,13000,-36000,41000,1232346,
11092,6660,18660,-9809,6513,-387,13000,-36000,41000,1232348,
10992,6660,18672,-9865,6596,-425,13000,-36000,41000,1232350,
10980,6580,18656,-10534,6926,-671,12000,-35000,41000,1232363,
11020,6556,18608,-10591,7006,-699,11000,-35000,41000,1232365,
10968,6616,18436,-10744,7085,-759,11000,-35000,41000,1232367,
10528,6536,18028,-11371,7128,-998,10000,-34000,41000,1232380,
10516,6596,18068,-11526,7092,-1101,10000,-34000,41000,1232382,
10348,6524,18100,-11548,7114,-1144,10000,-34000,41000,1232385,
10172,6056,17768,-12174,6812,-1377,9000,-33000,41000,1232397,
10264,6036,17896,-12197,6776,-1393,8000,-33000,41000,1232400,
10076,5836,17352,-12779,6455,-1585,7000,-32000,41000,1232412,
10144,5872,17252,-12779,6435,-1604,7000,-32000,41000,1232415,
10044,5744,17224,-12927,6341,-1673,7000,-32000,41000,1232417,
10152,5536,16780,-13316,6104,-1788,6000,-31000,41000,1232430,
10044,5512,16644,-13276,6144,-1809,6000,-31000,41000,1232432,
10064,5432,16708,-13425,6078,-1830,5000,-31000,41000,1232434,
10156,5344,16480,-13762,6201,-1946,4000,-31000,41000,1232447,
10224,5272,16300,-13890,6227,-1985,4000,-30000,41000,1232449,
10156,5284,16212,-13915,6324,-2007,4000,-30000,41000,1232452,
9948,5052,15596,-14370,6553,-2099,3000,-30000,41000,1232464,
9816,4964,15664,-14410,6593,-2117,2000,-30000,40000,1232466,
9712,4808,15512,-14497,6559,-2164,2000,-29000,40000,1232469,
9284,4468,15284,-14765,6436,-2257,1000,-29000,40000,1232481,
9256,4468,15076,-14816,6347,-2278,1000,-29000,40000,1232484,
9108,4340,15176,-14843,6265,-2292,0,-29000,40000,1232486,
9124,3864,14816,-15028,5910,-2364,0,-28000,40000,1232498,
9048,3616,14940,-14956,5879,-2347,0,-28000,40000,1232501,
9008,3652,14820,-15053,5819,-2371,0,-28000,40000,1232503,
9076,3284,14816,-15006,5708,-2362,-1000,-27000,39000,1232515,
9060,3172,14756,-15079,5659,-2378,-2000,-27000,39000,1232518,
9140,3040,15012,-15044,5750,-2360,-2000,-27000,39000,1232520,
9468,2484,14984,-15105,6259,-2320,-3000,-27000,39000,1232532,
9436,2304,15180,-15044,6463,-2292,-3000,-27000,39000,1232535,
9384,2212,14648,-15275,7565,-2385,-5000,-26000,39000,1232547,
9144,2180,14692,-15371,7751,-2358,-5000,-26000,38000,1232550,
9104,2200,14472,-15353,7890,-2372,-5000,-26000,38000,1232552,
8240,2064,13672,-15792,8177,-2460,-6000,-25000,38000,1232564,
8180,1924,13728,-15745,8230,-2482,-7000,-25000,38000,1232567,
7868,1868,13604,-15826,8183,-2473,-7000,-25000,38000,1232569,
7108,1456,13188,-15910,7391,-2472,-8000,-24000,37000,1232581,
6996,1404,13044,-16019,7093,-2454,-8000,-24000,37000,1232584,
6884,1376,12956,-15927,6957,-2432,-9000,-24000,37000,1232586,
6588,1300,12452,-16158,5633,-2455,-10000,-23000,37000,1232598,
6496,1244,12352,-16148,5395,-2471,-10000,-23000,37000,1232601,
6060,888,11868,-16335,3812,-2540,-11000,-23000,36000,1232613,
5996,856,11976,-16194,3616,-2578,-12000,-23000,36000,1232616,
5956,556,11860,-16280,3234,-2578,-12000,-23000,36000,1232618,
6220,-132,12080,-15933,2154,-2648,-13000,-23000,36000,1232630,
6204,-244,12128,-15995,1960,-2655,-14000,-23000,36000,1232633,
6248,-208,11940,-15924,1898,-2667,-14000,-23000,36000,1232635,
6360,-616,11412,-15943,1597,-2726,-15000,-23000,36000,1232648,
6432,-820,11308,-15862,1628,-2747,-15000,-23000,35000,1232650,
6564,-864,11396,-15956,1552,-2751,-16000,-23000,35000,1232652,
6368,-1196,10748,-15678,1622,-2875,-17000,-23000,35000,1232665,
6408,-1320,10744,-15660,1585,-2891,-17000,-23000,35000,1232667,
6160,-1860,10472,-15345,1598,-3144,-18000,-23000,35000,1232679,
6112,-2132,10576,-15231,1635,-3157,-19000,-23000,35000,1232682,
6148,-2100,10492,-15245,1512,-3198,-19000,-23000,34000,1232684,
5788,-2624,10060,-14628,1349,-3347,-20000,-23000,34000,1232697,
5744,-2684,9936,-14603,1206,-3382,-20000,-23000,34000,1232699,
5780,-2776,9904,-14433,1218,-3414,-21000,-23000,34000,1232701,
5740,-3208,9664,-14007,888,-3631,-22000,-23000,34000,1232714,
5872,-3348,9800,-13938,801,-3638,-22000,-23000,33000,1232716,
5832,-3448,9740,-13280,634,-3719,-23000,-23000,33000,1232728,
5868,-3660,9660,-13279,541,-3752,-23000,-23000,33000,1232731,
5828,-3676,9768,-13146,606,-3775,-23000,-23000,33000,1232733,
5836,-4092,9768,-12721,544,-3819,-25000,-23000,33000,1232745,
5996,-4172,9804,-12646,496,-3808,-25000,-23000,32000,1232748,
5872,-4264,9872,-12559,528,-3843,-25000,-23000,32000,1232750,
5908,-4348,9744,-12070,245,-3863,-26000,-23000,32000,1232763,
5892,-4296,9488,-12015,149,-3833,-26000,-23000,32000,1232765,
5984,-4516,9620,-11949,77,-3827,-26000,-23000,32000,1232767,
5968,-4440,9424,-11521,-243,-3728,-27000,-24000,32000,1232780,
5988,-4636,9356,-11478,-358,-3742,-27000,-24000,31000,1232782,
5756,-4976,9460,-11089,-654,-3613,-28000,-24000,31000,1232794,
5792,-4980,9564,-10976,-730,-3565,-28000,-24000,31000,1232797,
5832,-5148,9492,-10931,-851,-3527,-29000,-24000,31000,1232799,
5940,-5532,9248,-10435,-1190,-3354,-30000,-24000,31000,1232812,
6036,-5412,9184,-10407,-1301,-3318,-30000,-24000,31000,1232814,
6008,-5576,9072,-10262,-1254,-3248,-30000,-24000,31000,1232816,
6220,-5624,8592,-9809,-1246,-3092,-31000,-25000,31000,1232829,
6280,-5624,8836,-9616,-1142,-3037,-31000,-25000,30000,1232831,
6008,-5960,8504,-9293,-1070,-2819,-32000,-25000,30000,1232844,
5976,-5944,8252,-9170,-979,-2771,-32000,-25000,30000,1232846,
5912,-5964,8368,-9165,-1075,-2733,-32000,-25000,30000,1232848,
5604,-6340,8092,-8642,-1550,-2579,-33000,-25000,30000,1232861,
5596,-6392,8104,-8522,-1677,-2528,-33000,-25000,30000,1232863,
5536,-6456,8228,-8296,-1772,-2539,-33000,-25000,30000,1232865,
5736,-6876,8196,-7470,-2248,-2401,-34000,-26000,30000,1232878,
5932,-6980,8188,-7298,-2222,-2374,-34000,-26000,30000,1232880,
5940,-6932,7944,-7255,-2256,-2359,-34000,-26000,30000,1232883,
6424,-7020,7772,-6730,-1782,-2278,-35000,-26000,30000,1232895,
6352,-7012,7764,-6675,-1664,-2259,-35000,-26000,30000,1232897,
6232,-7100,7312,-5973,-903,-2210,-35000,-26000,30000,1232910,
6112,-7112,7332,-5914,-886,-2184,-36000,-27000,30000,1232912,
5988,-7112,7308,-5719,-788,-2236,-36000,-27000,30000,1232914,
5780,-7336,7172,-5003,-848,-2182,-36000,-27000,30000,1232927,
5744,-7304,7020,-4792,-709,-2164,-36000,-27000,30000,1232929,
5772,-7384,6940,-4740,-788,-2159,-36000,-27000,30000,1232932,
5920,-7628,7408,-3838,-456,-2046,-37000,-27000,29000,1232944,
5880,-7596,7332,-3780,-466,-2023,-37000,-27000,29000,1232946,
5912,-7740,7500,-3616,-352,-1955,-37000,-27000,29000,1232949,
6408,-8228,8096,-3075,240,-1843,-37000,-27000,29000,1232961,
6444,-8340,7996,-2981,408,-1818,-37000,-27000,29000,1232963,
6412,-8432,8196,-2884,483,-1788,-37000,-27000,29000,1232966,
6412,-8492,8148,-2542,1237,-1622,-37000,-27000,29000,1232978,
6424,-8624,8196,-2465,1307,-1627,-37000,-27000,29000,1232981,
6084,-8400,8072,-2033,1438,-1481,-38000,-27000,29000,1232993,
6088,-8336,8176,-1996,1370,-1492,-38000,-27000,29000,1232995,
6020,-8432,8172,-1855,1354,-1425,-38000,-27000,29000,1232998,
6112,-8480,8760,-1426,817,-1395,-38000,-27000,29000,1233010,
6040,-8656,8680,-1324,667,-1391,-38000,-27000,29000,1233013,
5964,-8644,9128,-1289,568,-1396,-38000,-27000,29000,1233015,
6344,-8960,9616,-1032,290,-1376,-38000,-27000,28000,1233027,
6304,-9028,9588,-1041,289,-1366,-38000,-27000,28000,1233030,
6448,-8888,9556,-1018,258,-1374,-38000,-27000,28000,1233032,
6544,-8976,9700,-753,280,-1368,-38000,-27000,28000,1233044,
6424,-8880,9768,-677,211,-1323,-38000,-27000,28000,1233047,
6480,-8816,9836,-651,240,-1318,-38000,-27000,28000,1233049,
6620,-9028,10364,-590,-110,-1345,-38000,-27000,28000,1233062,
6728,-9008,10580,-514,-114,-1353,-38000,-27000,28000,1233064,
6860,-9112,10564,-569,-249,-1341,-38000,-27000,28000,1233066,
7124,-9036,10804,-375,-417,-1257,-38000,-28000,28000,1233079,
7132,-9060,10668,-441,-500,-1260,-38000,-28000,28000,1233081,
7220,-9280,10768,-321,-738,-1179,-38000,-28000,28000,1233093,
7268,-9352,10752,-348,-886,-1195,-38000,-28000,28000,1233096,
7352,-9424,10856,-245,-893,-1154,-38000,-28000,28000,1233098,
7628,-9192,11268,-117,-1115,-1152,-38000,-28000,28000,1233110,
7740,-9104,11276,-64,-1120,-1116,-38000,-28000,28000,1233113,
7768,-9164,11144,-108,-1065,-1110,-38000,-28000,28000,1233115,
8252,-8984,11164,-41,-618,-988,-38000,-28000,28000,1233128,
8300,-8868,11108,-22,-426,-965,-38000,-28000,28000,1233130,
8224,-8832,11208,-37,-367,-957,-38000,-28000,28000,1233132,
8188,-8720,11196,146,303,-786,-38000,-28000,28000,1233145,
8092,-8664,11292,113,291,-777,-38000,-28000,28000,1233147,
8016,-8772,11472,172,329,-741,-38000,-28000,28000,1233149,
8052,-8812,11456,315,315,-670,-38000,-28000,28000,1233161,
8044,-8792,11404,375,266,-668,-38000,-28000,28000,1233164,
8084,-8748,11264,402,225,-677,-38000,-28000,28000,1233166,
8104,-8736,11412,551,300,-447,-38000,-28000,28000,1233179,
8288,-8748,11348,527,389,-442,-38000,-28000,28000,1233181,
8080,-8756,11428,530,372,-415,-38000,-28000,28000,1233183,
8236,-8676,11396,611,793,-365,-37000,-28000,27000,1233196,
8164,-8692,11540,613,800,-400,-37000,-28000,27000,1233198,
8196,-8660,11696,664,904,-353,-37000,-28000,27000,1233200,
8060,-8640,11748,619,1043,-295,-37000,-28000,27000,1233213,
7928,-8624,11868,680,1052,-247,-37000,-28000,27000,1233215,
7976,-8592,11632,660,1117,-262,-37000,-28000,27000,1233217,
7692,-8564,11596,687,935,-102,-37000,-28000,27000,1233230,
7772,-8504,11740,667,807,-102,-37000,-28000,27000,1233232,
7780,-8528,11748,730,783,-66,-37000,-28000,27000,1233234,
7720,-8260,11624,769,347,85,-37000,-28000,27000,1233247,
7888,-8352,11760,736,308,111,-37000,-28000,27000,1233249,
7864,-8344,11664,714,204,149,-37000,-28000,27000,1233251,
7952,-8412,11820,889,207,321,-37000,-28000,27000,1233264,
8076,-8452,11856,829,157,349,-37000,-28000,27000,1233266,
8092,-8428,11980,918,222,379,-37000,-28000,27000,1233268,
8096,-8292,11880,813,450,528,-37000,-28000,27000,1233281,
8248,-8220,12052,885,511,535,-37000,-28000,27000,1233283,
8176,-8256,11952,854,546,551,-37000,-28000,27000,1233285,
7956,-8288,11880,890,869,669,-37000,-28000,27000,1233298,
7956,-8252,11772,812,832,704,-37000,-28000,27000,1233300,
7896,-8296,11912,910,871,698,-37000,-28000,27000,1233302,
7644,-8276,12024,920,674,764,-37000,-28000,27000,1233315,
7588,-8232,11752,981,693,754,-37000,-28000,27000,1233317,
7452,-8288,11856,938,617,765,-36000,-27000,27000,1233319,
7548,-8308,11772,1049,485,828,-36000,-27000,27000,1233332,
7656,-8216,11804,1077,522,807,-36000,-27000,27000,1233334,
7684,-8212,11792,1084,472,843,-36000,-27000,27000,1233336,
7616,-8108,11604,1135,448,913,-36000,-27000,27000,1233349,
7732,-8132,11856,1187,504,940,-36000,-27000,27000,1233351,
7684,-8028,11764,1154,401,980,-36000,-27000,27000,1233354,
7500,-7908,11804,1270,438,1160,-36000,-27000,27000,1233366,
7536,-7876,11688,1274,401,1198,-36000,-27000,27000,1233368,
7652,-7792,11720,1295,451,1227,-36000,-27000,27000,1233371,
7668,-7960,11756,1435,266,1467,-36000,-27000,27000,1233383,
7676,-7892,11708,1470,335,1486,-36000,-27000,27000,1233386,
7652,-7944,11636,1462,239,1559,-36000,-27000,28000,1233388,
7732,-7868,11564,1580,269,1790,-36000,-27000,28000,1233400,
7660,-7780,11520,1575,190,1845,-36000,-27000,28000,1233403,
7688,-7780,11616,1659,258,1941,-36000,-27000,28000,1233405,
7632,-7744,11560,1722,150,2226,-36000,-27000,28000,1233417,
7660,-7668,11488,1787,202,2258,-36000,-27000,28000,1233420,
7648,-7568,11588,1758,164,2321,-36000,-27000,28000,1233422,
7624,-7736,11328,1936,141,2622,-36000,-27000,28000,1233434,
7556,-7696,11376,1935,101,2660,-36000,-26000,28000,1233437,
7624,-7596,11328,1983,47,2744,-36000,-26000,28000,1233439,
7624,-7580,11368,2171,-37,3036,-35000,-26000,28000,1233452,
7580,-7468,11364,2189,-141,3097,-35000,-26000,29000,1233454,
7624,-7512,11408,2244,-81,3152,-35000,-26000,29000,1233456,
7688,-7388,11312,2348,-238,3519,-35000,-26000,29000,1233469,
7636,-7424,11124,2383,-283,3597,-35000,-26000,29000,1233471,
7532,-7276,11176,2462,-285,3642,-35000,-26000,29000,1233473,
7432,-7164,10988,2612,-660,4105,-35000,-26000,29000,1233485,
7424,-7156,10840,2701,-693,4170,-35000,-26000,29000,1233488,
7468,-7060,10824,2712,-781,4263,-35000,-26000,30000,1233490,
7376,-7016,10692,3010,-1263,4726,-35000,-26000,30000,1233503,
7336,-6960,10724,3115,-1355,4837,-35000,-26000,30000,1233505,
7408,-7020,10696,3128,-1366,4897,-35000,-26000,30000,1233507,
7876,-7200,10816,3450,-1421,5345,-35000,-25000,31000,1233520,
7912,-7116,11032,3524,-1385,5455,-35000,-25000,31000,1233522,
7896,-6844,10852,3646,-748,5847,-35000,-25000,31000,1233535,
7776,-6780,10712,3692,-699,5922,-35000,-25000,32000,1233537,
