Ax,Ay,Az,Gx,Gy,Gz,Roll,Pitch,Yaw,Timestamp,Target
68,-716,16396,-627,-633,179,-9000,2000,148000,849612,
76,-668,16320,-734,-607,211,-9000,2000,148000,849615,
120,-688,16380,-631,-559,236,-9000,2000,148000,849617,
-8,-800,16368,-710,-511,247,-9000,2000,148000,849619,
88,-900,16176,-618,-265,375,-9000,2000,148000,849632,
124,-968,16056,-594,-192,392,-9000,2000,148000,849634,
260,-916,16068,-610,-169,378,-9000,2000,148000,849636,
204,-952,16448,-492,88,477,-9000,2000,148000,849649,
68,-1072,16404,-580,71,460,-9000,2000,148000,849651,
-24,-988,16504,-481,159,524,-9000,2000,148000,849653,
-368,-1168,16620,-542,65,473,-9000,2000,148000,849665,
-316,-1132,16648,-439,64,456,-9000,2000,148000,849668,
-332,-1224,16760,-546,-19,452,-9000,2000,148000,849670,
-848,-1052,16464,-605,-361,419,-9000,2000,148000,849682,
-852,-980,16388,-566,-380,438,-9000,2000,148000,849685,
-972,-1136,16272,-629,-504,406,-9000,2000,148000,849687,
-396,-980,16248,-565,-897,197,-9000,2000,148000,849699,
-392,-1120,16316,-693,-948,203,-9000,2000,148000,849702,
84,-844,16688,-513,-543,265,-9000,2000,148000,849716,
64,-712,16568,-440,-421,269,-9000,2000,148000,849719,
128,-760,16416,-492,-298,338,-9000,2000,148000,849721,
224,-624,16444,-406,-210,316,-9000,2000,148000,849723,
128,-416,16196,-421,349,469,-9000,2000,148000,849736,
44,-368,16068,-590,339,467,-9000,2000,148000,849738,
-144,-348,16040,-494,430,500,-9000,2000,148000,849740,
-332,-432,16108,-709,336,349,-9000,2000,148000,849753,
-196,-484,16168,-626,290,289,-9000,2000,148000,849755,
-356,-444,16128,-711,206,287,-9000,2000,148000,849757,
-420,-360,16684,-580,3,112,-9000,2000,148000,849770,
-564,-416,16688,-486,66,116,-9000,2000,148000,849772,
-552,-316,16568,-539,-31,103,-9000,2000,148000,849775,
-520,-264,16616,-394,14,124,-9000,2000,148000,849777,
-680,-152,16428,-379,-404,176,-9000,2000,148000,849790,
-812,-152,16504,-271,-436,124,-9000,2000,148000,849792,
-752,-168,16344,-396,-576,100,-9000,2000,148000,849794,
-588,-28,16188,-445,-1064,-67,-9000,2000,148000,849807,
-492,36,16192,-452,-1111,-49,-9000,2000,148000,849809,
-496,-60,16156,-518,-1185,-73,-9000,2000,148000,849811,
44,-24,16384,-444,-1066,-52,-9000,2000,148000,849824,
156,-56,16404,-617,-1057,-88,-9000,2000,148000,849826,
376,-12,16512,-447,-854,-58,-9000,2000,148000,849828,
480,-160,16412,-572,-826,-60,-9000,2000,148000,849831,
520,-60,16536,-484,11,20,-9000,2000,148000,849843,
572,-68,16560,-468,138,84,-9000,2000,148000,849846,
520,-32,16632,-423,281,90,-9000,2000,148000,849848,
32,56,16352,-425,794,266,-9000,2000,148000,849860,
-80,56,16300,-544,776,255,-9000,2000,148000,849863,
-96,48,16244,-453,835,280,-9000,2000,148000,849865,
-132,12,16176,-574,737,216,-9000,2000,148000,849867,
-532,-60,16400,-495,530,118,-9000,2000,148000,849880,
-632,-200,16512,-635,421,122,-9000,2000,148000,849882,
-748,-208,16488,-521,385,107,-9000,2000,148000,849884,
-620,-228,16364,-498,-31,79,-9000,2000,148000,849897,
-472,-296,16320,-551,-159,8,-9000,2000,148000,849899,
-488,-252,16320,-438,-194,21,-9000,2000,148000,849902,
-400,-492,16196,-509,-336,-55,-9000,2000,148000,849904,
-68,-672,16316,-252,-241,-123,-9000,2000,148000,849917,
-8,-620,16412,-350,-210,-117,-9000,2000,148000,849919,
128,-540,16276,-195,-91,-121,-9000,2000,148000,849921,
560,-588,16304,-74,516,-42,-9000,2000,148000,849934,
444,-624,16248,-107,602,-61,-9000,2000,148000,849936,
416,-548,16280,-33,746,13,-9000,2000,148000,849938,
508,-608,16444,-80,847,-24,-9000,2000,148000,849940,
-104,-520,16412,22,1282,180,-9000,2000,148000,849953,
-216,-532,16420,-128,1234,198,-9000,2000,148000,849955,
-312,-336,16504,-10,1254,179,-9000,2000,148000,849958,
-544,-524,16860,-272,806,203,-9000,2000,148000,849970,
-544,-396,16652,-260,665,141,-9000,2000,148000,849972,
-724,-428,16628,-345,524,152,-9000,2000,148000,849975,
-884,-620,16744,-602,-241,13,-9000,2000,148000,849987,
-928,-748,16776,-514,-233,2,-9000,2000,148000,849990,
-764,-756,16784,-652,-400,-56,-9000,2000,148000,849992,
-744,-816,16856,-559,-404,-73,-9000,2000,148000,849994,
-224,-792,16844,-710,-441,-157,-9000,2000,148000,850007,
-20,-832,16848,-652,-389,-186,-9000,2000,148000,850009,
-148,-808,16928,-689,-296,-174,-9000,2000,148000,850011,
-44,-756,16744,-630,133,-268,-9000,2000,148000,850024,
72,-796,16620,-541,243,-237,-9000,2000,148000,850026,
12,-824,16660,-623,307,-286,-9000,2000,148000,850028,
-132,-600,16572,-491,563,-256,-9000,2000,148000,850041,
-292,-560,16616,-626,537,-225,-9000,2000,148000,850043,
-244,-460,16624,-481,549,-196,-9000,2000,148000,850046,
-364,-484,16552,-631,345,-119,-9000,2000,148000,850058,
-448,-520,16516,-687,252,-180,-9000,2000,148000,850060,
-560,-500,16252,-664,231,-118,-9000,2000,148000,850063,
-296,-532,16204,-869,0,-66,-9000,2000,148000,850075,
-116,-460,16092,-754,54,-67,-9000,2000,148000,850078,
-180,-556,16108,-877,-61,-64,-9000,2000,148000,850080,
-96,-532,16036,-776,12,-27,-9000,2000,148000,850082,
88,-688,16208,-788,133,4,-9000,2000,148000,850095,
4,-664,16264,-851,101,-33,-9000,2000,148000,850097,
136,-812,16272,-752,202,4,-9000,2000,148000,850099,
-52,-976,16076,-733,270,-155,-9000,2000,148000,850112,
-216,-836,16068,-570,269,-205,-9000,2000,148000,850114,
-160,-852,16180,-679,214,-267,-9000,2000,148000,850116,
-340,-808,16468,-524,94,-520,-9000,2000,148000,850129,
-224,-780,16448,-540,102,-513,-9000,2000,148000,850131,
-352,-832,16400,-504,58,-542,-9000,2000,148000,850134,
-180,-508,16184,-498,-225,-593,-9000,2000,148000,850146,
-372,-560,15968,-631,-351,-673,-9000,2000,148000,850148,
-316,-488,16196,-517,-343,-619,-9000,2000,148000,850151,
-60,-544,16236,-691,-756,-618,-9000,2000,148000,850163,
-72,-604,16248,-680,-791,-628,-9000,2000,148000,850166,
-96,-608,16412,-709,-771,-544,-9000,2000,148000,850168,
640,-476,16480,-763,-531,-303,-9000,2000,148000,850180,
736,-244,16484,-649,-378,-231,-9000,2000,148000,850183,
860,-244,16208,-787,-351,-200,-9000,2000,148000,850185,
748,-112,16084,-881,77,69,-9000,2000,148000,850198,
624,-244,15968,-956,143,104,-9000,2000,148000,850200,
596,-72,15820,-937,220,128,-9000,2000,148000,850202,
708,-108,15908,-1054,209,189,-9000,2000,148000,850204,
120,-372,15748,-1171,155,197,-9000,2000,148000,850217,
36,-652,15636,-1061,222,254,-9000,2000,148000,850219,
184,-736,15800,-1156,121,220,-9000,2000,148000,850222,
240,-1144,16072,-813,129,260,-9000,2000,148000,850234,
148,-1164,16124,-850,99,253,-9000,2000,148000,850236,
100,-1156,16080,-684,175,266,-9000,2000,148000,850239,
-28,-1196,16080,-745,158,286,-9000,2000,148000,850241,
-112,-1252,15988,-409,265,281,-9000,2000,148000,850253,
-96,-1216,16048,-311,332,316,-9000,2000,148000,850256,
-196,-1240,16152,-288,293,306,-9000,2000,148000,850258,
-196,-1000,15944,-74,303,253,-9000,2000,148000,850271,
-208,-948,15988,-179,211,192,-9000,2000,148000,850273,
-56,-924,16028,-36,239,181,-9000,2000,148000,850275,
-416,-800,15928,-163,103,129,-9000,2000,148000,850288,
-216,-712,16068,-105,120,108,-9000,2000,148000,850290,
-364,-728,16020,-199,87,123,-9000,2000,148000,850292,
-288,-732,16136,-148,128,77,-9000,2000,148000,850295,
60,-704,15992,-154,159,136,-9000,2000,148000,850307,
16,-772,16180,-289,144,93,-9000,2000,148000,850309,
-64,-788,16348,-183,195,88,-9000,2000,148000,850312,
20,-800,16692,-217,248,61,-9000,2000,148000,850324,
-16,-820,16752,-102,296,63,-9000,2000,148000,850327,
40,-764,16704,-163,276,73,-9000,2000,148000,850329,
-148,-732,16720,-90,334,75,-9000,2000,148000,850331,
-136,-600,16760,-162,293,145,-9000,2000,148000,850344,
-140,-696,16596,-230,236,101,-9000,2000,148000,850346,
-32,-600,16844,-177,249,145,-9000,2000,148000,850348,
-312,-548,16676,-452,-110,32,-9000,2000,148000,850361,
-424,-560,16728,-326,-151,30,-9000,2000,148000,850363,
-436,-484,16688,-505,-250,-16,-9000,2000,148000,850365,
-520,-600,16752,-614,-618,-54,-9000,2000,148000,850378,
-308,-608,16704,-561,-643,-16,-9000,2000,148000,850380,
-248,-432,16688,-647,-727,-22,-9000,2000,148000,850383,
24,-748,16592,-592,-924,13,-9000,2000,148000,850395,
0,-708,16584,-702,-966,-8,-9000,2000,148000,850397,
88,-704,16416,-563,-856,-14,-9000,2000,148000,850400,
260,-652,16584,-672,-880,-25,-9000,2000,148000,850402,
604,-556,16548,-515,-365,46,-9000,2000,148000,850414,
720,-480,16692,-453,-221,97,-9000,2000,148000,850417,
896,-300,16780,-483,-98,83,-9000,2000,148000,850419,
424,4,16292,-329,628,234,-9000,2000,148000,850432,
584,-12,16396,-486,656,218,-9000,2000,148000,850434,
348,-8,16132,-362,843,256,-9000,2000,148000,850436,
204,40,16196,-511,850,231,-9000,2000,148000,850439,
12,-100,16204,-434,1019,238,-9000,2000,148000,850451,
-12,-140,16208,-494,958,242,-9000,2000,148000,850453,
-28,-220,16428,-394,990,253,-9000,2000,148000,850456,
-524,-300,16656,-214,686,241,-9000,2000,148000,850468,
-420,-260,16784,-321,569,232,-9000,2000,148000,850471,
-532,-308,16796,-179,529,241,-9000,2000,148000,850473,
-576,-68,16304,-343,-186,207,-9000,2000,148000,850485,
-504,-124,16228,-266,-307,174,-9000,2000,148000,850488,
-580,-220,16316,-387,-403,160,-9000,2000,148000,850490,
-612,-220,16260,-568,-923,123,-9000,2000,148000,850502,
-348,-264,16324,-499,-906,155,-9000,2000,148000,850505,
-244,-256,16424,-613,-1013,121,-9000,2000,148000,850507,
528,-232,16348,-507,-742,39,-9000,2000,148000,850520,
428,-248,16408,-644,-655,28,-9000,2000,148000,850522,
556,-244,16372,-472,-435,31,-9000,2000,148000,850524,
616,-256,16384,-619,-325,42,-9000,2000,148000,850527,
360,-540,16380,-493,566,96,-9000,2000,148000,850539,
316,-512,16488,-495,707,92,-9000,2000,148000,850541,
260,-572,16408,-441,810,17,-9000,2000,148000,850544,
-200,-436,16272,-325,1077,-33,-9000,2000,148000,850556,
-304,-424,16120,-443,992,-92,-9000,2000,148000,850558,
-288,-468,16108,-314,1059,-65,-9000,2000,148000,850561,
-340,-568,16036,-336,829,-120,-9000,2000,148000,850573,
-436,-576,16080,-235,852,-132,-9000,2000,148000,850575,
-452,-608,16088,-265,838,-132,-9000,2000,148000,850578,
-200,-552,16588,-99,1032,89,-9000,2000,148000,850590,
-152,-468,16664,-2,1136,179,-9000,2000,148000,850593,
-124,-352,16824,-42,1091,184,-9000,2000,148000,850595,
-232,-276,16832,39,1149,290,-9000,2000,148000,850597,
-660,-96,16332,-192,863,338,-9000,2000,148000,850610,
-572,-228,16288,-101,832,318,-9000,2000,148000,850612,
-668,-244,16324,-325,679,272,-9000,2000,148000,850614,
-864,-388,16432,-621,147,148,-9000,2000,148000,850627,
-1036,-296,16516,-653,124,181,-9000,2000,148000,850629,
-800,-512,16548,-740,43,155,-9000,2000,148000,850631,
-264,-680,16560,-774,26,-65,-9000,2000,148000,850644,
-316,-644,16468,-929,5,-108,-9000,2000,148000,850646,
-360,-780,16588,-761,119,-181,-9000,2000,148000,850649,
-240,-724,16536,-909,110,-201,-9000,2000,148000,850651,
-368,-776,16816,-767,363,-309,-9000,2000,148000,850663,
-364,-876,16744,-761,426,-286,-9000,2000,148000,850666,
-500,-968,16660,-684,424,-290,-9000,2000,148000,850668,
-676,-1080,16552,-422,402,-265,-9000,2000,148000,850681,
-432,-968,16700,-523,330,-305,-9000,2000,148000,850683,
-476,-968,16672,-424,354,-260,-9000,2000,148000,850685,
-420,-780,16432,-440,203,-203,-9000,2000,148000,850698,
-544,-776,16524,-316,186,-188,-9000,2000,148000,850700,
-432,-792,16464,-450,95,-212,-9000,2000,148000,850702,
-224,-808,16380,-441,-23,-225,-9000,2000,148000,850715,
-8,-668,16304,-470,-39,-163,-9000,2000,148000,850717,
-68,-608,16416,-486,-78,-231,-9000,2000,148000,850719,
-284,-456,16440,-519,-79,-105,-9000,2000,148000,850732,
-164,-388,16484,-688,-167,-106,-9000,2000,148000,850734,
-64,-436,16512,-577,-126,-55,-9000,2000,148000,850737,
124,-572,16392,-778,-366,-25,-9000,2000,148000,850749,
104,-436,16344,-768,-408,-86,-9000,2000,148000,850751,
-4,-500,16380,-798,-402,-16,-9000,2000,148000,850754,
240,-484,16316,-829,-441,-64,-9000,2000,148000,850756,
132,-476,16312,-859,-247,-13,-9000,2000,148000,850769,
180,-584,16124,-1003,-287,-24,-9000,2000,148000,850771,
120,-616,16108,-893,-192,39,-9000,2000,148000,850773,
344,-1004,16124,-945,-240,-13,-9000,2000,148000,850786,
496,-884,16228,-836,-243,-27,-9000,2000,148000,850788,
532,-980,16204,-895,-276,-45,-9000,2000,148000,850790,
240,-1176,16284,-747,-126,-22,-9000,2000,148000,850803,
176,-1112,16292,-605,-15,52,-9000,2000,148000,850805,
264,-1068,16456,-701,-42,35,-9000,2000,148000,850808,
160,-1116,16356,-539,54,142,-9000,2000,148000,850810,
208,-860,16384,-593,-117,309,-9000,2000,148000,850822,
0,-708,16384,-529,-153,298,-9000,2000,148000,850825,
104,-552,16304,-582,-204,316,-9000,2000,148000,850827,
-160,-624,16096,-714,-572,306,-9000,2000,148000,850840,
-80,-576,16036,-567,-525,355,-9000,2000,148000,850842,
-120,-504,16108,-759,-632,349,-9000,2000,148000,850844,
316,-492,16016,-757,-667,494,-9000,2000,148000,850857,
452,-388,16148,-832,-676,493,-9000,2000,148000,850859,
632,-448,16096,-736,-632,493,-9000,2000,148000,850861,
624,-412,16160,-826,-622,529,-9000,2000,148000,850864,
680,-524,16056,-776,-265,546,-9000,2000,148000,850876,
648,-508,16164,-648,-101,620,-9000,2000,149000,850878,
624,-504,16204,-768,-61,651,-9000,2000,149000,850881,
564,-484,16168,-628,265,846,-9000,2000,149000,850893,
568,-492,16176,-718,264,852,-9000,2000,149000,850896,
372,-532,16076,-630,261,870,-9000,2000,149000,850898,
-16,-436,16096,-698,29,874,-9000,2000,149000,850910,
-64,-468,16028,-750,-61,847,-9000,2000,149000,850913,
-88,-464,16152,-717,-78,906,-9000,2000,149000,850915,
-124,-420,16128,-737,-220,871,-9000,2000,149000,850917,
104,-444,16164,-631,-491,922,-9000,2000,149000,850930,
40,-588,16164,-751,-599,884,-9000,2000,149000,850932,
148,-456,15916,-623,-543,888,-9000,2000,149000,850934,
344,-684,16172,-586,-566,853,-9000,1000,149000,850947,
316,-808,16120,-506,-523,817,-9000,1000,149000,850949,
376,-784,16132,-544,-485,823,-9000,1000,149000,850951,
284,-560,16188,-455,-215,806,-9000,1000,149000,850964,
444,-540,16132,-333,-111,825,-9000,1000,149000,850966,
432,-456,16296,-445,-133,777,-9000,1000,149000,850969,
-64,-552,16088,-371,51,745,-9000,1000,149000,850981,
-144,-512,16212,-465,-1,772,-9000,1000,149000,850983,
-260,-508,16020,-398,4,769,-9000,1000,149000,850986,
-208,-384,16168,-523,-66,780,-9000,1000,149000,850988,
-64,-396,16052,-528,-258,815,-9000,1000,149000,851000,
-16,-492,15932,-483,-224,858,-9000,1000,149000,851003,
36,-540,16052,-510,-252,830,-9000,1000,149000,851005,
56,-556,16364,-211,140,1019,-9000,1000,149000,851018,
252,-552,16356,-367,196,1034,-9000,1000,149000,851020,
128,-652,16404,-179,365,1091,-9000,1000,149000,851022,
80,-536,16332,-315,432,1088,-9000,1000,149000,851025,
-404,-728,16476,-140,624,1182,-9000,1000,150000,851037,
-476,-624,16396,-185,620,1131,-9000,2000,150000,851039,
-472,-544,16596,-156,576,1097,-9000,2000,150000,851042,
-1208,-636,16236,-273,367,895,-9000,2000,150000,851054,
-1380,-524,16540,-457,241,847,-9000,2000,150000,851057,
-1252,-496,16332,-361,249,851,-9000,2000,150000,851059,
-1596,-676,16312,-671,-43,624,-9000,2000,150000,851071,
-1356,-700,16264,-579,-66,555,-9000,2000,150000,851074,
-1708,-744,16204,-698,-120,479,-9000,2000,150000,851076,
-1648,-1028,17108,-588,-396,-60,-9000,2000,150000,851088,
-1716,-1024,17112,-548,-357,-82,-9000,2000,150000,851091,
-1688,-904,17088,-537,-338,-219,-9000,2000,150000,851093,
-1988,-484,16972,-388,403,-346,-9000,2000,150000,851105,
-2136,-460,16836,-532,425,-378,-9000,2000,150000,851108,
-2420,-412,16700,-410,619,-378,-9000,2000,150000,851110,
-3296,-272,16808,-675,983,-830,-9000,2000,150000,851123,
-3484,-180,16696,-627,864,-1001,-9000,2000,150000,851125,
-3568,-64,16676,-669,764,-1086,-9000,2000,150000,851127,
-5068,68,16624,-776,666,-1866,-9000,2000,149000,851140,
-5336,220,16700,-639,607,-1984,-9000,2000,149000,851142,
-5260,244,16688,-734,421,-2232,-9000,2000,149000,851144,
-5792,816,16876,-516,401,-3213,-9000,2000,149000,851157,
-5836,952,16956,-537,490,-3344,-9000,2000,149000,851159,
-5888,996,17072,-474,615,-3496,-9000,2000,149000,851162,
-6536,1780,17456,-225,1992,-4142,-9000,2000,149000,851174,
-6516,1920,17368,-359,2247,-4243,-9000,2000,148000,851176,
-6936,1896,17484,-159,2589,-4339,-9000,3000,148000,851179,
-8556,2280,17724,-97,3811,-4907,-9000,3000,148000,851191,
-8972,2356,17748,53,4018,-5101,-9000,3000,148000,851194,
-9416,2348,17736,-22,4082,-5276,-9000,3000,148000,851196,
-11792,2452,17632,28,4124,-6551,-9000,4000,147000,851208,
-12068,2440,17816,109,4102,-6671,-9000,4000,147000,851211,
-12728,2500,17732,58,3788,-6933,-9000,4000,147000,851213,
-14080,2956,18008,49,2055,-8552,-9000,4000,146000,851226,
-14012,3160,17596,-66,1585,-8888,-9000,4000,146000,851228,
-14056,3356,17380,-32,1193,-9319,-9000,4000,146000,851230,
-14276,3952,16872,-245,-473,-11295,-9000,4000,144000,851243,
-14244,4004,16700,-428,-690,-11624,-9000,4000,144000,851245,
-14104,3980,17028,-397,-836,-11975,-9000,4000,144000,851247,
-13556,4304,16796,-553,-1312,-13488,-9000,4000,143000,851260,
-13444,4352,16704,-395,-1243,-13809,-9000,4000,143000,851262,
-13516,4288,16680,-517,-1266,-14098,-9000,4000,142000,851265,
-13044,4428,16420,-298,-885,-15904,-9000,4000,141000,851277,
-12948,4328,16316,-164,-712,-16199,-9000,4000,141000,851280,
-12808,4396,16132,-215,-615,-16589,-9000,4000,140000,851282,
-11832,4800,15788,234,135,-18280,-9000,4000,139000,851295,
-11764,5024,15744,175,156,-18547,-9000,4000,138000,851297,
-11448,5120,15672,341,310,-18910,-9000,4000,138000,851299,
-10260,5852,15124,660,1060,-20317,-9000,3000,136000,851312,
-10372,5860,14980,655,1179,-20630,-9000,3000,136000,851314,
-10248,5844,15008,775,1436,-20748,-9000,3000,135000,851316,
-9992,5788,14300,1082,1750,-21752,-9000,3000,133000,851329,
-9828,5888,14236,1207,1611,-22043,-9000,3000,133000,851331,
-9764,5948,14120,1177,1475,-22110,-9000,3000,132000,851334,
-8460,6588,14016,1401,524,-23363,-9000,3000,130000,851346,
-8168,6692,13988,1567,380,-23480,-9000,3000,130000,851349,
-7740,6880,14056,1479,144,-23717,-9000,3000,129000,851351,
-6104,7336,14116,1681,-397,-24526,-8000,3000,127000,851363,
-5832,7316,14084,1608,-453,-24521,-8000,3000,127000,851366,
-5652,7280,14344,1702,-493,-24727,-8000,3000,126000,851368,
-4480,7116,14412,1848,-506,-25035,-8000,2000,124000,851381,
-4096,7080,14420,1820,-581,-25189,-8000,2000,123000,851383,
-3912,7052,14440,1928,-549,-25124,-8000,2000,123000,851385,
-2636,6876,14976,2037,-855,-25482,-8000,2000,120000,851398,
-2360,6804,14896,2250,-812,-25576,-8000,2000,120000,851400,
-2096,7040,14948,2121,-910,-25588,-8000,2000,120000,851402,
-468,7224,15244,2396,-1109,-25922,-7000,1000,117000,851415,
-128,7260,15360,2419,-1193,-25822,-7000,1000,117000,851417,
52,7276,15324,2460,-1277,-25943,-7000,1000,116000,851420,
1024,7632,15352,2593,-1571,-25692,-7000,1000,114000,851432,
1324,7640,15292,2450,-1742,-25618,-7000,1000,113000,851434,
1568,7632,15376,2557,-1745,-25538,-7000,1000,113000,851437,
3052,7436,15588,2380,-2938,-24846,-6000,0,111000,851449,
3304,7436,15024,2350,-2806,-24873,-6000,0,110000,851452,
3492,7428,15404,2193,-2718,-24673,-6000,0,110000,851454,
5132,7360,15912,2107,-3493,-23793,-6000,0,108000,851466,
5504,7380,15884,2090,-3324,-23500,-6000,0,107000,851469,
5892,7260,15852,2023,-3226,-23418,-5000,0,107000,851471,
7756,6936,15644,1830,-2637,-22090,-5000,-1000,105000,851483,
7876,6776,15612,1637,-2496,-21806,-5000,-1000,104000,851486,
8560,6772,15804,1731,-2203,-21523,-5000,-1000,104000,851488,
9972,6104,16432,1531,-524,-19758,-5000,-1000,102000,851500,
10244,5764,16768,1582,-192,-19551,-5000,-2000,102000,851503,
10456,5616,16940,1519,168,-19103,-4000,-2000,101000,851505,
10268,4668,16944,1454,2105,-17223,-4000,-2000,100000,851518,
10220,4888,16892,1591,2226,-16778,-4000,-2000,99000,851520,
10340,5040,16336,1365,2706,-16451,-4000,-2000,99000,851522,
9256,4868,16128,1200,3002,-14750,-4000,-2000,98000,851535,
9348,4776,16200,1049,2797,-14400,-4000,-2000,97000,851537,
9180,4784,16136,1105,2708,-14275,-4000,-2000,97000,851540,
9568,3548,16340,862,1678,-13585,-3000,-2000,96000,851552,
9660,3256,16280,767,1409,-13580,-3000,-2000,96000,851554,
9700,3040,16552,788,1294,-13369,-3000,-2000,95000,851557,
9344,1940,17192,785,353,-12462,-3000,-2000,94000,851569,
9348,1828,17176,934,241,-12269,-3000,-2000,94000,851571,
9412,1712,17152,808,-59,-11983,-3000,-2000,94000,851574,
9480,1388,16976,811,-1638,-11078,-3000,-2000,93000,851586,
9540,1244,16832,840,-1899,-10883,-3000,-3000,92000,851589,
9508,1112,16892,746,-2279,-10775,-3000,-3000,92000,851591,
9936,228,16768,752,-3708,-10015,-3000,-3000,91000,851603,
10436,176,16864,561,-3850,-9855,-3000,-3000,91000,851606,
10548,16,16736,691,-3894,-9742,-3000,-3000,91000,851608,
12148,68,16820,490,-3531,-8919,-3000,-4000,90000,851621,
12392,12,16996,458,-3373,-8822,-3000,-4000,90000,851623,
12616,116,16880,439,-3104,-8553,-3000,-4000,90000,851625,
13444,64,17144,248,-1383,-7612,-2000,-5000,89000,851638,
13056,80,17176,351,-1009,-7492,-2000,-5000,89000,851640,
12992,148,17136,170,-896,-7171,-2000,-5000,89000,851642,
11996,-492,17256,46,-45,-5641,-2000,-5000,88000,851655,
11900,-468,17132,83,-200,-5309,-2000,-5000,88000,851657,
11940,-592,16804,-44,-64,-5055,-2000,-5000,88000,851659,
11476,-908,16748,-100,-528,-3474,-2000,-5000,88000,851672,
11332,-1008,16932,-298,-734,-3219,-2000,-5000,88000,851674,
11340,-1004,17112,-157,-928,-2999,-2000,-5000,88000,851677,
11816,-1040,17412,-231,-2109,-2120,-2000,-6000,88000,851689,
11956,-964,17228,-243,-2291,-2015,-2000,-6000,87000,851692,
12172,-1020,17344,-196,-2337,-1823,-2000,-6000,87000,851694,
12792,-1304,17436,-226,-2032,-898,-2000,-6000,87000,851706,
13032,-1260,17528,-115,-1844,-660,-2000,-6000,87000,851709,
13012,-1300,17560,-262,-1760,-406,-2000,-6000,87000,851711,
12784,-1020,17336,-503,-886,978,-2000,-7000,87000,851724,
12620,-1056,17108,-488,-853,1262,-2000,-7000,87000,851726,
12904,-1120,17052,-567,-823,1495,-2000,-7000,88000,851728,
12676,-872,16960,-799,-437,2767,-2000,-7000,88000,851741,
12456,-900,17056,-951,-487,2967,-3000,-7000,88000,851743,
12484,-944,17212,-859,-438,3167,-3000,-7000,88000,851745,
11836,-1064,17112,-1044,-557,4193,-3000,-7000,88000,851758,
11792,-952,17200,-984,-556,4397,-3000,-7000,88000,851760,
11744,-940,17164,-1062,-572,4623,-3000,-7000,88000,851763,
12096,-672,16952,-1029,-453,5648,-3000,-7000,89000,851775,
12152,-628,16884,-917,-339,5884,-3000,-7000,89000,851777,
12156,-532,17076,-987,-339,6037,-3000,-7000,89000,851780,
11536,-460,17176,-811,353,7186,-3000,-8000,90000,851792,
11660,-224,17112,-913,402,7401,-3000,-8000,90000,851795,
11384,-272,17048,-789,492,7671,-3000,-8000,90000,851797,
10784,276,16748,-926,737,9085,-3000,-8000,91000,851809,
10576,392,16444,-1081,702,9301,-3000,-8000,91000,851812,
10580,504,16312,-1027,725,9547,-3000,-8000,91000,851814,
9776,792,16328,-1358,204,10544,-4000,-8000,92000,851827,
9572,664,16476,-1282,134,10711,-4000,-8000,93000,851829,
9388,800,16340,-1444,-50,10863,-4000,-8000,93000,851831,
8680,852,16136,-1545,-792,11783,-4000,-8000,94000,851844,
8728,980,15932,-1518,-864,11970,-4000,-8000,94000,851846,
8744,992,16016,-1574,-1007,12065,-4000,-8000,94000,851848,
8848,1268,15824,-1470,-1188,12878,-4000,-8000,96000,851861,
8960,1348,15872,-1571,-1186,12957,-4000,-8000,96000,851863,
8884,1484,15840,-1410,-1071,13148,-5000,-8000,96000,851865,
9040,1500,15844,-1355,-175,13803,-5000,-8000,97000,851878,
9036,1488,15936,-1375,-28,13939,-5000,-8000,98000,851880,
8716,1512,15888,-1291,183,14089,-5000,-8000,98000,851883,
7832,1840,15964,-1192,1003,14892,-5000,-8000,99000,851895,
7596,1944,16208,-1036,1168,15077,-5000,-8000,100000,851897,
7548,1976,16192,-1162,1178,15148,-5000,-8000,100000,851900,
6660,2352,15972,-1060,1459,16006,-6000,-8000,101000,851912,
6196,2476,16044,-1094,1457,16160,-6000,-8000,102000,851915,
6164,2624,15920,-1078,1451,16320,-6000,-8000,102000,851917,
5160,2436,15976,-1168,1094,17276,-6000,-7000,104000,851929,
5224,3668,15824,-1320,718,17403,-6000,-7000,104000,851932,
5204,3532,15964,-1194,631,17522,-6000,-7000,104000,851934,
4516,3944,15476,-1465,-226,18016,-6000,-7000,106000,851946,
4152,4180,15604,-1456,-489,18182,-6000,-7000,106000,851949,
4068,4256,15392,-1505,-679,18249,-6000,-7000,107000,851951,
3768,4416,15032,-1546,-1787,18869,-7000,-7000,108000,851964,
3636,4416,15024,-1405,-1899,19008,-7000,-7000,109000,851966,
3540,4476,14920,-1501,-2137,19095,-7000,-7000,109000,851968,
3628,4208,14948,-1018,-2408,19629,-7000,-7000,111000,851981,
3736,4140,15040,-1044,-2342,19687,-7000,-7000,111000,851983,
3936,4020,15048,-822,-2139,19860,-7000,-7000,112000,851986,
4320,3824,15572,-274,-426,20599,-7000,-7000,114000,851998,
4312,3780,15804,-146,62,20776,-7000,-7000,114000,852000,
4516,3912,15924,-56,599,20933,-7000,-7000,114000,852003,
4428,4928,16248,532,4099,21738,-7000,-6000,116000,852015,
4124,5104,16220,755,4842,21930,-7000,-6000,117000,852018,
4092,5372,16076,667,5419,22067,-7000,-6000,117000,852020,
2552,6200,16080,633,8017,23040,-7000,-5000,119000,852032,
2260,6352,16216,514,8191,23154,-7000,-5000,120000,852035,
1928,6400,16500,485,8385,23385,-7000,-5000,120000,852037,
-532,7000,16520,-61,7602,23602,-7000,-4000,122000,852050,
-848,7224,16440,-305,7266,23625,-7000,-3000,122000,852052,
-1136,7332,16344,-346,6919,23650,-7000,-3000,123000,852054,
-5264,8240,18660,-1713,4584,23322,-7000,-2000,125000,852067,
-3668,6468,14988,-1174,2610,23257,-7000,-2000,125000,852069,
-3568,7724,14776,-1898,3226,23157,-7000,-2000,126000,852071,
-4816,6612,15560,-2702,981,22648,-7000,-2000,128000,852084,
-5096,6444,15760,-2769,867,22439,-7000,-1000,128000,852086,
-5412,6400,16072,-2841,377,22329,-8000,-1000,129000,852088,
-4392,4380,17260,-2593,-506,21569,-8000,-1000,131000,852101,
-4476,4056,17488,-2603,-439,21451,-8000,-1000,131000,852103,
-4432,3936,17616,-2333,-185,21438,-8000,-1000,131000,852105,
-4528,3616,18440,-1775,1267,20932,-8000,0,133000,852118,
-4576,3688,18508,-1641,1445,20870,-8000,0,134000,852120,
-5012,3760,18736,-1539,1579,20692,-8000,0,134000,852123,
-6440,3912,18164,-1284,1851,19606,-8000,0,136000,852135,
-6732,4012,17804,-1168,1819,19283,-8000,0,136000,852138,
-6980,3972,17704,-1297,1664,18926,-8000,0,137000,852140,
-8116,3508,15720,-1500,740,16847,-8000,0,138000,852152,
-8212,3388,15980,-1671,607,16524,-8000,0,139000,852155,
-8472,2764,17256,-1578,267,16136,-8000,0,139000,852157,
-7920,2384,16256,-1851,-337,14183,-8000,0,140000,852170,
-7792,2340,16320,-2021,-430,13796,-8000,1000,140000,852172,
-7544,2356,16496,-1896,-212,13519,-8000,1000,141000,852174,
-7004,2020,17408,-1893,811,12107,-8000,1000,142000,852187,
-7116,2108,17600,-1718,1054,11873,-8000,1000,142000,852189,
-6960,1992,17596,-1720,1150,11596,-8000,1000,142000,852191,
-7052,2176,17392,-1480,1935,10287,-8000,2000,143000,852204,
-7080,2288,17308,-1351,1968,10031,-8000,2000,143000,852206,
-7504,2340,17300,-1377,1899,9793,-8000,2000,143000,852209,
-8340,2108,16608,-1180,1208,8612,-8000,2000,144000,852221,
-8284,2208,16772,-1314,872,8369,-8000,2000,144000,852223,
-8236,2148,16576,-1177,647,8196,-8000,2000,145000,852226,
-7768,2460,16068,-1360,-1144,7194,-8000,2000,145000,852238,
-7608,2408,15868,-1292,-1411,6992,-8000,2000,145000,852240,
-7484,2424,15848,-1358,-1674,6823,-8000,2000,146000,852243,
-6512,2284,15836,-1342,-2231,5957,-8000,2000,146000,852255,
-6092,2304,15708,-1168,-2159,5878,-8000,2000,146000,852258,
-6000,2196,15756,-1261,-2105,5769,-8000,2000,146000,852260,
-4956,2012,15708,-905,-985,5533,-8000,2000,147000,852272,
-4780,2032,15808,-992,-754,5463,-8000,3000,147000,852275,
-4500,2044,15872,-831,-439,5409,-8000,3000,147000,852277,
-4044,2072,15584,-687,1313,5088,-8000,3000,148000,852290,
-4028,1956,15428,-676,1585,4975,-8000,3000,148000,852292,
-4024,1932,15516,-631,1892,4921,-8000,3000,148000,852294,
-4572,1520,14844,-543,2844,4117,-8000,3000,148000,852307,
-4688,1460,14792,-383,2998,4034,-8000,3000,148000,852309,
-4768,1568,14868,-503,2936,3821,-8000,3000,148000,852311,
-5068,968,14784,-109,2725,2938,-8000,4000,148000,852324,
-5048,976,15052,-145,2681,2773,-8000,4000,148000,852326,
-5272,1004,14984,3,2727,2615,-8000,4000,149000,852328,
-4460,892,15228,346,3010,1925,-8000,4000,149000,852341,
-4300,920,15312,399,3066,1794,-8000,4000,149000,852343,
-4284,876,15128,475,3136,1697,-8000,5000,149000,852346,
-3868,816,15432,700,3422,1026,-7000,5000,149000,852358,
-4084,752,15520,878,3556,962,-7000,5000,149000,852360,
-3804,812,15496,777,3546,880,-7000,5000,149000,852363,
-3836,1012,15768,931,3623,633,-7000,5000,149000,852375,
-3824,1080,15724,876,3606,633,-7000,6000,149000,852377,
-3852,1040,15804,966,3646,570,-7000,6000,149000,852380,
-4148,800,16000,853,3119,445,-7000,6000,149000,852392,
-4268,888,16204,764,2896,389,-7000,6000,149000,852394,
-4296,1008,15884,745,2718,367,-7000,6000,149000,852396,
-4316,1160,16148,444,989,22,-7000,6000,149000,852409,
-4228,1140,16056,536,672,-56,-7000,6000,149000,852411,
-4248,1104,15960,345,233,-148,-7000,6000,149000,852413,
-3648,952,15860,38,-1449,-557,-7000,6000,149000,852426,
-3424,1000,15704,-119,-1678,-577,-7000,6000,149000,852428,
-3228,952,15776,-74,-1869,-603,-7000,6000,149000,852430,
-2184,1372,15416,-418,-2244,-390,-7000,6000,149000,852443,
-2208,1368,15548,-554,-2275,-380,-7000,6000,149000,852445,
-1952,1400,15472,-558,-2190,-299,-7000,6000,149000,852447,
-992,656,16704,177,1010,62,-6000,6000,149000,852499,
-1024,692,16776,82,1063,40,-6000,6000,149000,852501,
-1048,732,16332,169,1212,86,-6000,6000,149000,852503,
-1132,648,16356,66,1257,7,-6000,6000,149000,852506,
-1404,372,16112,-62,1246,-135,-6000,6000,149000,852518,
-1588,388,16228,-229,1105,-177,-6000,6000,149000,852521,
-1536,312,16360,-124,1113,-239,-6000,6000,149000,852523,
-1864,424,17048,-422,715,-324,-6000,6000,149000,852535,
-1764,464,16884,-404,674,-337,-6000,6000,149000,852538,
-1808,464,16972,-488,662,-300,-6000,6000,149000,852540,
-1512,612,16712,-626,464,-349,-6000,6000,149000,852552,
-1460,576,16684,-553,447,-315,-6000,6000,149000,852555,
-1476,640,16520,-676,352,-369,-6000,6000,149000,852557,
-1376,436,16544,-683,73,-394,-6000,6000,149000,852569,
-1376,412,16404,-808,-40,-397,-6000,6000,149000,852572,
-1588,356,16420,-683,-37,-381,-6000,6000,149000,852574,
-1348,408,16372,-788,-175,-279,-6000,6000,149000,852586,
-1204,404,16356,-739,-141,-297,-6000,6000,149000,852589,
-1080,372,16280,-768,-124,-197,-6000,6000,149000,852591,
-824,284,16480,-601,402,49,-6000,6000,149000,852603,
-880,144,16676,-391,586,94,-6000,6000,149000,852606,
-760,96,16636,-490,689,112,-6000,6000,149000,852608,
-724,40,16760,-294,866,181,-6000,6000,149000,852610,
-640,-152,16584,-154,1399,375,-6000,7000,149000,852623,
-748,-64,16520,-19,1490,386,-6000,7000,149000,852625,
-740,76,16624,-134,1502,412,-6000,7000,149000,852627,
-1464,140,16492,-106,1285,241,-6000,7000,149000,852640,
-1496,276,16592,-145,1209,233,-6000,7000,149000,852642,
-1680,16,16500,-167,1027,145,-6000,7000,149000,852645,
-1660,-240,16352,-309,204,-120,-6000,7000,149000,852657,
-1928,-240,16288,-489,-17,-212,-6000,7000,149000,852659,
-1824,-324,16232,-397,-80,-235,-6000,7000,149000,852662,
-2032,-548,16436,-773,-902,-487,-6000,7000,149000,852674,
-1860,-452,16264,-721,-1011,-541,-6000,7000,149000,852677,
-1768,-360,16120,-831,-1140,-621,-6000,7000,149000,852679,
-1116,-596,16208,-931,-1426,-863,-6000,6000,149000,852691,
-956,-600,16396,-848,-1319,-887,-6000,6000,149000,852694,
-948,-680,16176,-900,-1343,-939,-6000,6000,149000,852696,
-552,-732,16532,-614,-864,-904,-7000,6000,148000,852708,
-496,-700,16500,-728,-772,-907,-7000,6000,148000,852711,
-404,-716,16440,-543,-591,-885,-7000,6000,148000,852713,
44,-424,16320,-356,19,-890,-7000,6000,148000,852726,
-20,-604,16192,-367,30,-926,-7000,6000,148000,852728,
40,-588,16184,-278,198,-871,-7000,6000,148000,852730,
-60,-452,16292,-292,220,-949,-7000,6000,148000,852733,
-560,-264,16620,-53,617,-796,-7000,6000,148000,852745,
-500,-372,16584,-191,613,-778,-7000,6000,148000,852747,
-748,-328,16552,-47,709,-696,-7000,6000,148000,852750,
-944,-92,16412,-283,413,-458,-7000,6000,148000,852762,
