Ax,Ay,Az,Gx,Gy,Gz,Roll,Pitch,Yaw,Timestamp,Target
-4064,3716,15444,-866,-172,-789,4000,16000,153000,690079,
-3912,3584,15576,-803,-218,-872,4000,16000,153000,690092,
-3772,3544,15616,-746,-247,-875,4000,16000,153000,690094,
-3860,3484,15484,-722,-269,-912,4000,16000,153000,690096,
-4152,3216,15652,-576,-307,-936,4000,16000,153000,690109,
-4024,3048,15744,-547,-264,-935,4000,16000,153000,690111,
-4060,2972,15480,-514,-303,-914,4000,16000,153000,690113,
-4156,2708,15468,-426,-138,-777,4000,16000,152000,690126,
-4128,2760,15296,-403,-163,-669,4000,16000,152000,690128,
-4040,2776,15276,-347,-30,-668,4000,16000,152000,690130,
-4252,2868,14904,-299,68,-393,4000,16000,152000,690143,
-4152,2820,15032,-313,95,-356,4000,16000,152000,690145,
-4308,2868,15004,-260,78,-342,4000,16000,152000,690148,
-4596,2732,14912,-364,-92,-86,4000,16000,152000,690160,
-4528,2864,14816,-305,-60,-26,4000,16000,152000,690162,
-4560,2804,14868,-348,-95,21,4000,16000,152000,690165,
-4124,2756,14936,-348,-193,240,4000,16000,152000,690177,
-4068,2844,14864,-396,-219,251,4000,16000,152000,690180,
-4088,2756,14760,-327,-165,292,4000,16000,152000,690182,
-3860,2932,14864,-340,-132,382,4000,16000,153000,690194,
-3848,3052,14964,-295,-126,381,4000,16000,153000,690197,
-3756,3040,14924,-295,-101,421,4000,16000,153000,690199,
-3712,3244,14976,-305,5,459,4000,16000,153000,690212,
-3680,3132,15012,-277,107,460,4000,16000,153000,690214,
-3572,3132,15124,-281,52,470,4000,16000,153000,690216,
-3496,3012,14932,-210,306,400,4000,16000,153000,690229,
-3584,2908,14940,-202,276,427,4000,16000,153000,690231,
-3572,2848,14944,-158,390,418,4000,16000,153000,690233,
-3564,2928,14828,-71,453,427,4000,16000,153000,690246,
-3564,2916,14768,-80,416,449,4000,16000,153000,690248,
-3600,2940,14712,-44,449,471,4000,16000,153000,690251,
-3592,3072,14756,-94,357,430,4000,16000,153000,690253,
-3560,3172,14772,-190,204,487,4000,16000,153000,690266,
-3596,3144,14580,-162,244,522,4000,16000,153000,690268,
-3548,3204,14740,-203,265,511,4000,16000,153000,690270,
-3432,3132,14824,-288,158,416,4000,16000,153000,690283,
-3392,3040,14936,-311,246,392,4000,16000,153000,690285,
-3360,3136,14620,-351,144,385,4000,16000,153000,690287,
-3228,3056,14804,-366,401,359,4000,16000,153000,690300,
-3152,3096,14552,-390,399,365,4000,16000,153000,690302,
-3140,3064,14628,-389,486,370,4000,16000,153000,690305,
-3196,3064,14424,-361,613,220,4000,16000,153000,690317,
-3192,3236,14620,-379,678,210,4000,16000,153000,690319,
-3252,3044,14572,-393,617,163,4000,16000,153000,690322,
-3596,3144,14720,-480,345,75,4000,16000,153000,690334,
-3476,3308,14736,-500,307,75,4000,16000,153000,690337,
-3556,3408,14716,-565,221,43,4000,16000,153000,690339,
-3236,3704,14748,-721,32,-64,4000,16000,153000,690351,
-3152,3652,14936,-787,41,-99,4000,16000,153000,690354,
-3160,3552,14992,-782,42,-115,4000,16000,153000,690356,
-2988,3244,15008,-797,316,-254,4000,16000,153000,690369,
-2920,3172,15084,-782,357,-230,4000,16000,153000,690371,
-3112,3060,15196,-757,438,-254,4000,16000,153000,690373,
-3272,2980,15264,-523,721,-342,4000,16000,153000,690386,
-3260,2996,15268,-584,717,-329,4000,16000,153000,690388,
-3300,3020,15232,-464,730,-325,4000,16000,153000,690390,
-3512,3248,15404,-400,800,-389,4000,16000,153000,690403,
-3440,3336,15292,-314,826,-377,4000,16000,153000,690405,
-3548,3244,15368,-349,807,-408,4000,16000,153000,690407,
-3600,3380,15236,-309,752,-504,4000,16000,153000,690420,
-3600,3388,15264,-359,758,-516,4000,16000,153000,690422,
-3612,3420,15264,-340,701,-518,4000,16000,153000,690425,
-3616,3204,15292,-319,886,-555,4000,16000,153000,690437,
-3648,3236,15232,-350,846,-524,4000,16000,153000,690439,
-3608,3204,15244,-326,882,-525,4000,16000,153000,690442,
-3832,3176,15040,-331,1043,-558,4000,16000,153000,690454,
-3916,3240,15204,-366,1077,-577,4000,16000,153000,690456,
-3852,3360,15124,-353,1032,-555,4000,17000,153000,690459,
-4164,3600,15204,-468,981,-548,4000,17000,153000,690471,
-4260,3712,15120,-500,862,-553,4000,17000,153000,690474,
-4364,3660,15016,-526,842,-594,4000,17000,153000,690476,
-4392,3480,15180,-655,298,-556,4000,17000,153000,690488,
-4472,3260,15352,-618,316,-526,4000,17000,153000,690491,
-4472,3216,15244,-695,162,-519,4000,17000,153000,690493,
-3972,2856,15404,-536,5,-489,4000,17000,153000,690506,
-3888,2864,15176,-522,-54,-528,4000,17000,153000,690508,
-3956,2748,15320,-504,-68,-500,4000,17000,153000,690510,
-3872,2652,15220,-211,75,-486,4000,17000,153000,690523,
-4016,2644,15164,-223,56,-492,4000,17000,153000,690525,
-3960,2684,15136,-144,136,-465,4000,17000,153000,690528,
-4096,3072,15120,-180,170,-328,4000,17000,153000,690540,
-4176,3288,15064,-147,164,-271,4000,17000,153000,690542,
-4364,3360,15140,-204,190,-243,4000,17000,153000,690545,
-4292,3508,15048,-434,164,-73,4000,17000,153000,690557,
-4188,3436,15036,-467,202,-69,4000,17000,153000,690560,
-4188,3332,14940,-533,134,-32,4000,17000,153000,690562,
-4140,2996,14940,-655,233,85,4000,17000,153000,690574,
-4112,2940,15100,-623,269,103,4000,17000,153000,690577,
-4096,2976,14980,-654,340,86,4000,17000,153000,690579,
-4144,2820,14900,-546,216,213,4000,17000,153000,690592,
-4164,2784,14936,-540,198,201,4000,17000,153000,690594,
-4148,2808,15064,-477,194,240,4000,17000,153000,690596,
-4072,2728,14952,-260,92,262,4000,17000,153000,690609,
-4144,2840,14984,-226,-7,261,4000,17000,153000,690611,
-4060,2828,14892,-173,8,241,4000,17000,153000,690613,
-4136,2824,15080,-199,-175,224,4000,17000,153000,690616,
-4016,3032,14856,-88,-390,242,4000,17000,153000,690628,
-3920,3044,14996,-139,-421,271,4000,17000,153000,690630,
-3820,3064,14984,-112,-409,278,4000,17000,153000,690633,
-3480,3172,15024,-223,-236,242,4000,17000,153000,690645,
-3456,3128,14956,-213,-133,254,4000,17000,153000,690647,
-3356,3072,14996,-260,-132,203,4000,17000,153000,690650,
-3408,2968,14524,-351,241,204,4000,17000,153000,690662,
-3372,2980,14716,-309,324,236,4000,17000,153000,690665,
-3416,2956,14812,-336,433,237,4000,17000,153000,690667,
-3400,3032,14824,-316,732,274,4000,17000,153000,690679,
-3440,3124,14776,-296,908,269,4000,17000,153000,690682,
-3412,2992,14800,-330,850,242,4000,17000,153000,690684,
-3776,3400,14760,-347,649,117,4000,17000,153000,690697,
-3880,3316,14900,-308,568,82,4000,17000,153000,690699,
-3960,3376,14828,-370,475,98,4000,17000,153000,690701,
-3812,3384,14896,-389,-4,99,4000,17000,153000,690714,
-3880,3164,15132,-397,-104,100,4000,17000,153000,690716,
-3764,3356,14856,-392,-120,86,4000,17000,153000,690718,
-3408,3376,14964,-416,-304,-54,4000,17000,153000,690731,
-3400,3356,14768,-386,-184,-63,4000,17000,153000,690733,
-3376,3364,14828,-451,-260,-56,4000,17000,153000,690735,
-3360,3436,14952,-429,84,-69,4000,17000,153000,690748,
-3368,3508,14936,-495,82,-82,4000,17000,153000,690750,
-3332,3484,14924,-442,192,-73,4000,17000,153000,690753,
-3508,3412,14848,-496,171,-117,4000,17000,153000,690755,
-3608,3216,14936,-403,388,-155,4000,17000,153000,690768,
-3612,3276,14984,-424,379,-187,4000,17000,153000,690770,
-3640,3112,15096,-400,386,-205,4000,17000,153000,690772,
-3804,3112,14940,-339,259,-195,4000,17000,153000,690785,
-3800,3108,14916,-400,229,-208,4000,17000,153000,690787,
-3608,3028,15140,-305,250,-186,4000,17000,153000,690789,
-3748,3188,15064,-337,151,-225,4000,17000,153000,690802,
-3836,3268,14924,-301,61,-213,4000,17000,153000,690804,
-3908,3332,14932,-344,64,-250,4000,17000,153000,690807,
-3816,3288,14904,-379,-82,-204,4000,17000,153000,690819,
-3932,3152,14784,-420,-71,-192,4000,16000,153000,690822,
-3924,3320,14796,-433,-106,-188,4000,16000,153000,690824,
-3632,3204,14836,-420,65,-148,4000,16000,153000,690836,
-3544,3108,14904,-385,113,-134,4000,16000,153000,690839,
-3652,3116,14692,-442,81,-149,4000,16000,153000,690841,
-3676,3252,14900,-350,231,-113,4000,16000,153000,690854,
-3576,3160,14944,-401,242,-136,4000,16000,153000,690856,
-3540,3240,14820,-334,294,-136,4000,16000,153000,690858,
-3500,3184,14952,-309,379,-168,4000,16000,153000,690871,
-3524,3300,14748,-235,523,-157,4000,16000,153000,690873,
-3388,3280,14712,-275,441,-196,4000,17000,153000,690875,
-3524,3340,14668,-196,637,-265,4000,17000,153000,690888,
-3596,3360,14888,-283,597,-290,4000,17000,153000,690890,
-3652,3388,14836,-235,671,-278,4000,17000,153000,690892,
-3784,3484,14608,-305,587,-349,4000,17000,153000,690905,
-3856,3324,14448,-303,547,-327,4000,17000,153000,690907,
-3832,3288,14240,-342,500,-321,4000,17000,153000,690910,
-4140,3388,14324,-490,300,-303,4000,17000,153000,690922,
-4116,3476,14444,-582,207,-322,4000,17000,153000,690925,
-4124,3412,14420,-589,278,-329,4000,17000,153000,690927,
-3980,3368,14484,-795,-19,-275,4000,17000,153000,690939,
-3976,3400,14744,-747,-51,-271,4000,17000,153000,690942,
-3820,3456,14748,-773,-12,-260,4000,17000,153000,690944,
-3676,3200,14624,-742,-78,-304,4000,17000,153000,690956,
-3564,3160,14600,-730,-19,-321,4000,17000,153000,690959,
-3564,3208,14684,-756,-62,-318,4000,17000,153000,690961,
-3404,3144,14700,-589,313,-289,4000,17000,153000,690974,
-3416,3116,14816,-584,319,-285,4000,17000,153000,690976,
-3352,3188,14992,-515,513,-273,4000,17000,153000,690978,
-3496,3280,14964,-451,854,-368,4000,17000,153000,690991,
-3636,3432,14896,-394,952,-397,4000,17000,153000,690993,
-3544,3548,14860,-479,924,-434,4000,17000,153000,690995,
-4076,3564,14592,-560,810,-493,4000,17000,153000,691008,
-4112,3600,14548,-561,716,-521,4000,17000,153000,691010,
-4204,3536,14604,-590,676,-502,4000,17000,153000,691013,
-4360,3364,14568,-764,211,-463,4000,17000,153000,691025,
-4512,3312,14524,-814,173,-469,4000,17000,153000,691028,
-4404,3188,14452,-835,75,-469,4000,17000,153000,691030,
-4176,3188,14496,-969,-350,-472,4000,17000,153000,691042,
-4408,3248,14444,-976,-501,-448,4000,17000,153000,691045,
-4408,3204,14476,-995,-502,-462,4000,17000,153000,691047,
-4296,3444,14800,-1120,-958,-372,4000,17000,153000,691059,
-4104,3456,14812,-1196,-1043,-340,4000,17000,153000,691062,
-4168,3532,14720,-1165,-1088,-343,4000,17000,153000,691064,
-3796,3424,15012,-1186,-1089,-371,4000,16000,153000,691076,
-3796,3424,14960,-1177,-1093,-412,4000,16000,153000,691079,
-3696,3384,14968,-1157,-988,-393,4000,16000,153000,691081,
-3388,3096,15372,-994,-625,-432,4000,16000,153000,691094,
-3372,3180,15424,-999,-504,-429,4000,16000,153000,691096,
-3360,3104,15500,-935,-461,-462,4000,16000,153000,691098,
-3636,3156,15396,-776,2,-530,4000,16000,153000,691111,
-3552,3088,15444,-785,-25,-533,4000,16000,153000,691113,
-3544,3144,15428,-743,133,-499,4000,16000,153000,691115,
-3704,3124,15228,-677,446,-415,4000,16000,153000,691128,
-3736,3008,15288,-639,505,-411,4000,16000,153000,691130,
-3804,3132,15096,-692,509,-401,4000,16000,153000,691133,
-4172,3152,15208,-689,542,-349,4000,16000,153000,691145,
-4168,3160,15136,-775,506,-305,4000,16000,153000,691147,
-4316,3244,15220,-727,521,-298,4000,16000,153000,691150,
-4496,3224,15060,-872,140,-173,4000,16000,153000,691162,
-4512,3212,15072,-827,199,-171,4000,16000,153000,691165,
-4472,3232,15120,-875,116,-134,4000,16000,153000,691167,
-4196,3044,15128,-787,-49,-114,4000,16000,153000,691179,
-4168,2964,15320,-804,-84,-122,3000,16000,153000,691182,
-4100,2956,15388,-767,-140,-138,3000,16000,153000,691184,
-3948,2952,15268,-665,-212,-208,3000,16000,153000,691197,
-3972,2876,15344,-641,-234,-197,3000,16000,153000,691199,
-3864,2956,15192,-615,-185,-197,3000,16000,153000,691201,
-3540,3052,15436,-508,51,-159,3000,16000,153000,691214,
-3744,2996,15348,-469,203,-179,3000,16000,153000,691216,
-3652,2948,15288,-473,254,-196,3000,16000,153000,691218,
-4008,2980,15288,-405,476,-222,3000,16000,153000,691231,
-4044,2952,15316,-355,557,-235,3000,16000,153000,691233,
-4000,2936,15340,-403,500,-204,3000,16000,153000,691236,
-4320,2964,15312,-327,379,-113,3000,16000,153000,691248,
-4316,2880,15384,-375,346,-107,3000,16000,153000,691250,
-4368,2828,15236,-384,273,-77,3000,16000,153000,691253,
-4104,2940,15108,-378,293,-57,3000,16000,153000,691265,
-4092,2876,15040,-357,222,-21,3000,16000,153000,691268,
-4060,2944,15096,-369,244,-28,3000,16000,153000,691270,
-4068,3092,15180,-353,192,75,3000,16000,153000,691282,
-4116,3156,14980,-409,129,96,3000,16000,153000,691285,
-3992,3216,15136,-343,212,110,3000,16000,153000,691287,
-3876,3188,15380,-378,32,116,4000,16000,153000,691300,
-3824,3044,15204,-344,132,115,4000,16000,153000,691302,
-3860,3100,15300,-408,43,112,4000,16000,153000,691304,
-3504,3056,15244,-289,49,24,4000,16000,153000,691317,
-3468,3096,15248,-333,11,28,4000,16000,153000,691319,
-3516,2976,15184,-281,50,9,4000,16000,153000,691321,
-3472,2916,15112,-295,76,3,4000,16000,153000,691324,
-3464,3028,15140,-148,261,-70,4000,16000,153000,691336,
-3504,3072,15176,-132,308,-94,4000,16000,153000,691338,
-3528,3136,15264,-147,290,-77,4000,16000,153000,691341,
-3632,3292,15252,-150,404,-109,4000,16000,153000,691353,
-3624,3212,15192,-171,432,-100,4000,16000,153000,691355,
-3748,3224,15104,-160,487,-123,4000,16000,153000,691357,
-3772,3104,14924,-226,505,-141,4000,16000,153000,691370,
-3872,3084,14932,-173,571,-130,4000,16000,153000,691372,
-3860,2996,14724,-228,531,-114,4000,16000,153000,691374,
-3956,2996,14648,-165,382,-80,4000,16000,153000,691387,
-4068,2976,14536,-243,303,-104,4000,16000,153000,691389,
-3952,3028,14640,-199,290,-93,4000,16000,153000,691391,
-4112,3108,14712,-303,-89,-107,4000,16000,153000,691404,
-4000,3032,14608,-268,-65,-109,4000,16000,153000,691406,
-3572,3284,14632,-423,20,-111,4000,16000,153000,691426,
-3668,3372,14628,-454,3,-102,4000,16000,153000,691428,
-3612,3384,14648,-456,42,-106,4000,16000,153000,691430,
-3652,3228,14640,-528,132,-99,4000,16000,153000,691443,
-3700,3112,14728,-523,190,-72,4000,16000,153000,691445,
-3720,3024,14720,-579,163,-80,4000,16000,153000,691448,
-3660,2808,14756,-458,183,-94,4000,16000,153000,691460,
-3696,2860,14836,-490,123,-139,4000,16000,153000,691462,
-3660,2948,14664,-409,161,-131,4000,16000,153000,691465,
-3528,2944,14696,-272,-3,-147,4000,16000,153000,691477,
-3572,2856,14624,-225,49,-210,4000,16000,153000,691480,
-3508,2920,14516,-232,-38,-215,4000,16000,153000,691482,
-3068,2912,14588,-160,49,-340,4000,16000,153000,691494,
-3120,2892,14460,-189,61,-315,4000,16000,153000,691497,
-2952,2876,14136,-72,89,-336,4000,16000,153000,691499,
-2792,3152,14076,-153,345,-443,4000,16000,153000,691512,
-2784,3100,13968,-109,409,-477,4000,16000,153000,691514,
-2864,3180,14016,-145,414,-498,4000,16000,153000,691516,
-2752,3116,13644,-220,509,-723,4000,16000,153000,691529,
-2692,3020,13584,-304,472,-772,4000,16000,153000,691531,
-2644,3108,13452,-268,477,-814,4000,16000,153000,691533,
-2636,2868,13188,-509,193,-1003,4000,16000,153000,691546,
-2544,2888,13104,-475,254,-1019,4000,16000,153000,691548,
-2392,2796,13136,-533,169,-1056,4000,16000,153000,691551,
-2124,2620,12740,-602,89,-1225,4000,16000,152000,691563,
-2064,2552,12632,-652,62,-1287,4000,16000,152000,691566,
-1976,2456,12544,-664,-2,-1339,4000,16000,152000,691568,
-1648,2048,12248,-699,97,-1583,4000,16000,152000,691580,
-1556,2004,12064,-750,53,-1641,4000,16000,152000,691583,
-1456,1932,12108,-716,122,-1677,4000,16000,152000,691585,
-1312,1772,11568,-774,134,-1902,4000,16000,152000,691598,
-808,1920,11464,-793,-124,-1986,3000,16000,152000,691600,
-964,1952,11400,-863,91,-2081,3000,16000,152000,691602,
-448,2228,11376,-1186,-250,-2380,3000,16000,152000,691615,
-560,2284,11128,-1091,-202,-2444,3000,16000,152000,691617,
-532,2316,11016,-1155,-124,-2495,3000,16000,152000,691619,
-1124,2736,11212,-1506,249,-2864,3000,16000,151000,691632,
-1028,2836,11328,-1627,217,-2964,3000,16000,151000,691634,
-1104,2708,11260,-1743,184,-3078,3000,16000,151000,691636,
-972,2548,11684,-2454,190,-3654,3000,16000,151000,691649,
-948,2412,11624,-2579,143,-3705,3000,16000,151000,691651,
-900,2384,11692,-2689,286,-3749,3000,16000,151000,691653,
-140,1512,11360,-3333,406,-4100,2000,16000,150000,691666,
-172,1276,11388,-3333,583,-4190,2000,16000,150000,691668,
-208,996,11284,-3451,646,-4332,2000,16000,150000,691670,
-176,-368,10820,-3276,1324,-4798,2000,16000,150000,691683,
-160,-428,10840,-3235,1544,-4827,2000,16000,150000,691685,
-152,-640,10548,-3135,1724,-4816,1000,16000,150000,691688,
-248,128,11032,-2922,2750,-4781,1000,16000,149000,691700,
-368,344,10976,-2943,2931,-4821,1000,16000,149000,691702,
-324,372,11056,-2945,3195,-4816,1000,16000,149000,691705,
-1020,1628,11000,-3505,4081,-5228,0,17000,148000,691717,
-1120,1800,10636,-3652,4203,-5298,0,17000,148000,691720,
-1256,1840,10800,-3844,4164,-5384,0,17000,148000,691722,
-1984,1504,11220,-4748,4149,-5597,0,17000,148000,691735,
-2004,1328,11228,-4951,4029,-5676,0,17000,148000,691737,
-2068,1272,11188,-5071,4025,-5724,0,17000,147000,691739,
-1944,776,11444,-6016,3237,-6215,0,18000,147000,691752,
-1876,568,11792,-6029,3281,-6286,0,18000,147000,691754,
-1848,404,11968,-6160,3217,-6418,-1000,18000,147000,691756,
-980,-720,11992,-6224,3702,-7098,-1000,18000,146000,691769,
-764,-1056,11708,-6205,3805,-7298,-2000,18000,146000,691771,
-720,-1268,11600,-6078,4035,-7443,-2000,18000,146000,691774,
-612,-1892,10952,-5527,5306,-8166,-3000,18000,145000,691786,
-844,-1628,11044,-5385,5480,-8216,-3000,18000,145000,691789,
-968,-1548,11036,-5311,5657,-8225,-3000,18000,144000,691791,
-2116,-128,11788,-5547,6067,-8632,-4000,19000,144000,691803,
-2268,144,11928,-5625,5998,-8700,-4000,19000,143000,691806,
-2648,428,11904,-5812,5948,-8807,-4000,19000,143000,691808,
-3016,8,11744,-6776,6031,-9260,-5000,20000,142000,691821,
-3060,-244,11716,-6866,5999,-9346,-5000,20000,142000,691823,
-3132,-636,11760,-7030,5917,-9421,-5000,20000,142000,691825,
-3480,-1700,11412,-7567,5849,-9734,-6000,20000,141000,691838,
-3636,-1952,11680,-7611,5818,-9765,-7000,20000,141000,691840,
-3816,-1964,11492,-7525,5892,-9766,-7000,20000,140000,691843,
-4252,-2676,11284,-7864,5392,-9923,-8000,21000,139000,691855,
-4384,-2904,11492,-7837,5326,-9919,-8000,21000,139000,691857,
-4348,-2884,11568,-7996,5161,-10037,-9000,21000,139000,691860,
-4956,-2652,12136,-8197,4896,-10349,-10000,21000,138000,691872,
-5140,-2584,12136,-8439,4778,-10440,-10000,21000,137000,691875,
-4908,-2408,12728,-8505,4672,-10448,-10000,21000,137000,691877,
-5380,-2504,13368,-8796,4721,-10934,-11000,21000,136000,691890,
-5380,-2408,13616,-8801,4762,-11013,-12000,22000,136000,691892,
-6196,-2752,13788,-9164,4516,-11410,-13000,22000,135000,691905,
-6328,-2756,13892,-9142,4418,-11459,-13000,22000,134000,691907,
-6416,-2708,13688,-9285,4176,-11515,-14000,22000,134000,691909,
-8140,-3072,14272,-9520,3209,-11803,-15000,22000,133000,691922,
-8388,-3208,14532,-9563,2985,-11797,-15000,22000,133000,691924,
-8672,-3460,14612,-9574,2762,-11738,-15000,22000,132000,691926,
-9888,-4124,15356,-9602,854,-11586,-17000,22000,131000,691939,
-9972,-4264,15520,-9649,392,-11558,-17000,22000,131000,691941,
-10064,-4148,16520,-9778,-1236,-11311,-18000,21000,130000,691954,
-9960,-4212,16868,-9833,-1519,-11243,-19000,21000,130000,691956,
-9960,-3904,17076,-9753,-1664,-11114,-19000,21000,130000,691958,
-9228,-4008,18168,-9935,-2072,-10712,-20000,21000,129000,691971,
-9172,-3932,18524,-9929,-2049,-10677,-20000,20000,128000,691973,
-9092,-4544,19548,-9843,-1454,-10508,-22000,20000,127000,691986,
-9176,-4740,19716,-9690,-1151,-10381,-22000,20000,127000,691988,
-9092,-4896,20044,-9641,-851,-10307,-22000,20000,127000,691990,
-8956,-5612,20652,-8915,536,-9938,-23000,19000,126000,692003,
-8948,-5688,20784,-8758,710,-9928,-23000,19000,126000,692005,
-9000,-5640,20900,-8537,972,-9862,-24000,19000,126000,692008,
-9300,-5612,21396,-7677,2011,-9650,-25000,19000,125000,692020,
-9480,-5560,21156,-7538,2290,-9551,-25000,19000,125000,692023,
-9452,-5608,21288,-7447,2457,-9498,-25000,19000,125000,692025,
-9744,-5960,21392,-6284,3088,-8835,-26000,19000,124000,692038,
-9644,-5940,21620,-6155,3013,-8772,-26000,19000,123000,692040,
-10896,-5912,21576,-5217,2697,-8270,-27000,19000,123000,692052,
-11348,-5948,21604,-5120,2491,-8156,-27000,19000,122000,692055,
-11512,-5996,21752,-4925,2379,-7977,-27000,19000,122000,692057,
-11836,-6496,22528,-4113,1565,-7047,-28000,19000,122000,692070,
-11936,-6492,22424,-3966,1513,-6895,-28000,19000,121000,692072,
-11856,-6716,22580,-3768,1436,-6746,-28000,19000,121000,692075,
-11264,-6912,22840,-2911,1223,-5832,-28000,19000,121000,692087,
-11068,-7016,22996,-2720,1225,-5660,-28000,19000,121000,692089,
-10524,-7108,23164,-1711,1455,-4892,-28000,18000,120000,692102,
-10616,-7204,23356,-1471,1494,-4788,-29000,18000,120000,692104,
-10660,-7256,23288,-1247,1551,-4646,-29000,18000,120000,692107,
-11048,-7264,23236,83,1894,-3779,-29000,18000,120000,692119,
-10904,-7244,23144,228,1895,-3617,-29000,18000,120000,692122,
-10856,-7200,23332,515,1759,-3443,-29000,19000,119000,692124,
-10496,-7348,23292,1711,1437,-2510,-28000,19000,119000,692136,
-10492,-7356,23340,1888,1382,-2362,-28000,19000,119000,692139,
-10240,-7372,23516,2190,1404,-2207,-28000,19000,119000,692141,
-9900,-7200,23160,3403,1165,-1403,-28000,19000,119000,692154,
-9880,-7256,23172,3696,1183,-1231,-28000,19000,119000,692156,
-9360,-6988,22804,4718,800,-619,-28000,19000,119000,692169,
-9152,-7024,22864,4925,678,-491,-27000,19000,119000,692171,
-9252,-6948,22832,5045,612,-425,-27000,19000,119000,692173,
-8260,-6884,22780,5881,265,-7,-27000,19000,119000,692186,
-8108,-6844,22696,6009,216,81,-27000,19000,119000,692188,
-8016,-6912,22744,6241,300,171,-26000,19000,119000,692191,
-7180,-6976,22100,7027,427,426,-26000,19000,119000,692203,
-7100,-6976,21996,7275,450,460,-26000,19000,119000,692205,
-6980,-6944,21908,7370,530,474,-25000,19000,119000,692208,
-6696,-7024,21308,8326,546,521,-25000,19000,119000,692220,
-6500,-6952,21204,8454,614,521,-24000,19000,119000,692223,
-6444,-6940,21020,8602,559,562,-24000,19000,119000,692225,
-6044,-6720,20628,9326,741,632,-23000,19000,119000,692238,
-5956,-6716,20412,9411,641,644,-23000,19000,119000,692240,
-5884,-6712,20352,9553,689,580,-23000,19000,119000,692242,
-5552,-6488,19612,10183,649,383,-22000,19000,119000,692255,
-5612,-6356,19388,10235,665,361,-22000,19000,119000,692257,
-5620,-6332,19356,10324,551,336,-22000,19000,119000,692259,
-5732,-6060,18744,10675,301,263,-21000,19000,119000,692272,
-5704,-5976,18796,10719,147,241,-20000,19000,119000,692274,
-5668,-5960,18516,10795,191,221,-20000,19000,119000,692277,
-5352,-6040,17744,11108,-122,-53,-19000,19000,119000,692289,
-5220,-6092,17508,11124,-75,-96,-19000,19000,119000,692292,
-5232,-5968,17664,11166,-126,-112,-19000,19000,119000,692294,
-5184,-5688,16864,11520,-215,-334,-18000,19000,119000,692307,
-5120,-5828,16648,11486,-255,-377,-17000,19000,119000,692309,
-4948,-5904,16412,11609,-249,-409,-17000,19000,119000,692311,
-4748,-5740,15484,11814,63,-525,-16000,19000,119000,692324,
-4692,-5636,15176,11926,193,-518,-16000,19000,119000,692326,
-4688,-5480,15108,11901,361,-532,-16000,19000,119000,692328,
-4964,-4384,14416,11968,739,-539,-14000,19000,119000,692341,
-5020,-4252,14020,11893,790,-523,-14000,19000,119000,692343,
-5192,-4116,14112,11899,821,-531,-14000,19000,119000,692346,
-5268,-4012,13524,11515,911,-621,-13000,19000,119000,692358,
-5200,-3956,13384,11440,930,-672,-13000,19000,119000,692361,
-5304,-3952,13484,11382,1137,-701,-13000,19000,119000,692363,
-5844,-3008,12708,10983,590,-633,-12000,19000,119000,692376,
-6060,-3040,12836,10931,487,-585,-11000,19000,119000,692378,
-6296,-2812,12756,10969,234,-537,-11000,19000,119000,692380,
-6968,-2652,12452,10256,-1827,-673,-10000,19000,119000,692393,
-6920,-3020,12336,10137,-2306,-700,-10000,19000,119000,692395,
-6768,-3136,12352,9998,-2584,-753,-10000,19000,119000,692397,
-6916,-2824,12440,9802,-4507,-597,-9000,19000,119000,692410,
-6680,-2660,12452,9774,-4792,-582,-9000,18000,119000,692412,
-6112,-2288,12092,9743,-6030,-639,-8000,18000,119000,692425,
-5988,-2212,12032,9666,-6173,-715,-8000,18000,119000,692427,
-5904,-2076,12080,9666,-6305,-745,-7000,18000,119000,692430,
-5344,-1860,12284,9847,-6699,-749,-7000,17000,119000,692442,
-5196,-1728,11924,9803,-6623,-746,-6000,17000,119000,692445,
-5040,-1728,11988,9873,-6499,-731,-6000,17000,119000,692447,
-4876,-1784,11932,9674,-5558,-863,-5000,16000,119000,692459,
-4780,-1660,11724,9664,-5540,-868,-5000,16000,119000,692462,
-4732,-1628,11620,9624,-5269,-846,-5000,16000,119000,692464,
-4620,-928,11296,9562,-4472,-494,-4000,16000,119000,692477,
-4568,-720,11364,9525,-4174,-446,-4000,16000,119000,692479,
-4672,-504,11028,9306,-3926,-419,-4000,16000,119000,692482,
-4784,152,11100,8848,-3094,-198,-3000,15000,119000,692494,
-4992,260,11316,8723,-3064,-217,-3000,15000,119000,692496,
-5016,444,11100,8689,-2987,-277,-2000,15000,119000,692499,
-5592,432,11172,8037,-2960,-308,-2000,15000,119000,692511,
-5592,432,11156,8001,-3031,-287,-2000,15000,119000,692513,
-5736,428,11324,7904,-2956,-307,-1000,15000,119000,692516,
-5692,520,11068,7472,-3095,-338,-1000,15000,119000,692528,
-5520,432,11092,7409,-3145,-384,-1000,15000,119000,692530,
-5348,492,11064,7410,-3304,-396,0,15000,119000,692533,
-5008,760,11084,7068,-3518,-365,0,14000,119000,692545,
-4812,908,11020,7104,-3530,-313,0,14000,119000,692547,
-4776,936,10732,7016,-3404,-280,0,14000,119000,692550,
-4720,1348,10576,6977,-3141,-236,0,14000,118000,692562,
-4708,1268,10564,6940,-3104,-284,0,14000,118000,692565,
-4704,1376,10512,6966,-2991,-284,1000,14000,118000,692567,
-5032,1824,10412,6734,-2456,-278,1000,14000,118000,692579,
-4976,2000,10380,6695,-2495,-263,1000,14000,118000,692582,
-5068,2232,10316,6608,-2419,-248,1000,14000,118000,692584,
-5352,2588,10180,5872,-2695,-20,2000,14000,118000,692597,
-5384,2596,10240,5753,-2685,11,2000,14000,118000,692599,
-5308,2576,10252,5725,-2668,34,2000,14000,118000,692601,
-5060,2276,9792,5070,-2654,87,3000,13000,118000,692614,
-5032,2332,9808,5063,-2651,90,3000,13000,118000,692616,
-4924,2320,9820,4950,-2646,91,3000,13000,118000,692618,
-4728,2660,10016,4437,-2718,289,4000,13000,119000,692631,
-4728,2712,10172,4298,-2678,337,4000,13000,119000,692633,
-4596,2732,10272,4220,-2697,336,4000,13000,119000,692635,
-3888,3292,10244,3756,-1819,483,4000,13000,119000,692648,
-3824,3400,10288,3658,-1693,480,4000,13000,119000,692650,
-3780,3588,10284,3648,-1472,481,4000,13000,119000,692653,
-3832,4040,10372,3219,-448,493,5000,13000,119000,692665,
-3892,4068,10600,3248,-355,495,5000,13000,119000,692668,
-3900,4136,10428,3184,-285,492,5000,13000,119000,692670,
-4448,4004,10620,2793,-253,305,5000,13000,119000,692682,
-4544,3968,10704,2708,-160,279,5000,13000,119000,692685,
-4732,4076,10636,2636,-377,296,5000,13000,119000,692687,
-5132,3784,11236,2243,-1001,367,6000,13000,119000,692700,
-4984,3688,11448,2123,-1164,373,6000,13000,119000,692702,
-5008,3584,11396,2149,-1137,376,6000,13000,119000,692704,
-4372,3428,11912,1908,-1314,246,6000,13000,119000,692717,
-4084,3528,11988,1914,-1151,232,6000,13000,119000,692719,
-4076,3604,12060,1933,-1130,217,6000,13000,119000,692721,
-3536,3864,11860,1893,-33,229,6000,13000,119000,692734,
-3340,3980,12064,1852,101,216,6000,13000,119000,692736,
-3388,3956,12048,1920,352,196,6000,13000,119000,692738,
-3396,3992,11980,1821,1901,235,7000,13000,119000,692751,
-3464,4084,11780,1837,2172,292,7000,13000,119000,692753,
-3500,3948,11704,1789,2465,344,7000,13000,119000,692756,
-4136,4072,11836,1796,3552,727,7000,13000,119000,692768,
-4388,4160,11888,1670,3738,808,7000,13000,119000,692771,
-4488,4292,11856,1699,3857,861,7000,14000,119000,692773,
-5192,4808,11936,1374,4057,904,7000,14000,119000,692785,
-5392,4788,11924,1272,3913,971,7000,14000,119000,692788,
-5500,4952,11816,1157,3806,970,8000,14000,119000,692790,
-5872,4932,12252,342,2563,1041,8000,14000,120000,692802,
-5768,4848,12424,228,2360,1022,8000,14000,120000,692805,
-5656,4780,12316,23,2075,1034,8000,14000,120000,692807,
-5192,4732,12360,-109,1575,1165,8000,15000,120000,692820,
-4964,4684,12260,-182,1563,1176,8000,15000,120000,692822,
-4964,4796,12220,-127,1450,1170,8000,15000,120000,692824,
-5028,5160,12056,-235,867,1017,8000,15000,120000,692837,
-5032,5400,12248,-291,727,935,8000,15000,120000,692839,
-5100,5340,12584,-397,508,944,8000,15000,120000,692841,
-4492,5040,12716,-577,-613,790,8000,15000,120000,692854,
-4428,5084,12792,-654,-631,768,8000,15000,120000,692856,
-4376,5004,12956,-647,-647,795,8000,15000,120000,692859,
-3892,4980,13664,-711,-111,438,8000,15000,120000,692871,
-3740,4932,13960,-709,-121,377,8000,15000,120000,692873,
-3596,4992,13988,-675,33,289,8000,15000,120000,692876,
-3100,4600,13868,-909,739,-1,8000,15000,120000,692888,
-3200,4552,13708,-849,1059,-7,8000,15000,120000,692891,
-3220,4440,13616,-894,1224,-25,8000,15000,120000,692893,
-3672,4996,13040,-736,2319,-35,8000,15000,120000,692905,
-3752,5160,12748,-827,2401,-62,8000,15000,120000,692908,
-3824,5316,12808,-831,2462,-40,8000,15000,120000,692910,
-4832,5452,12964,-1255,2041,58,8000,15000,120000,692922,
-5100,5376,12956,-1305,1964,31,8000,15000,120000,692925,
-5208,5384,13152,-1458,1797,49,8000,15000,120000,692927,
-5852,5100,14060,-2025,531,149,8000,16000,120000,692940,
-5800,4960,14160,-2192,350,154,8000,16000,120000,692942,
-5704,4928,14292,-2250,216,156,8000,16000,120000,692944,
-4396,3856,14592,-2349,-255,134,8000,16000,120000,692957,
-4108,3872,14660,-2261,-208,49,8000,16000,120000,692959,
-3748,3720,14760,-2166,-28,-32,8000,16000,120000,692961,
-3064,3956,14260,-1500,922,-359,8000,16000,120000,692974,
-2996,3896,14020,-1358,1095,-437,7000,16000,120000,692976,
-3092,4028,14088,-1269,1271,-515,7000,16000,120000,692979,
-4308,4824,14188,-991,1499,-553,7000,16000,120000,692991,
-4416,4968,14480,-1056,1500,-537,7000,16000,120000,692994,
-4852,4988,14392,-1043,1463,-474,7000,16000,120000,692996,
-5140,4972,14692,-1478,987,-503,7000,16000,120000,693008,
-5100,4744,14596,-1523,939,-520,7000,16000,120000,693011,
-5120,4700,14904,-1598,837,-563,7000,16000,120000,693013,
