Ax,Ay,Az,Gx,Gy,Gz,Roll,Pitch,Yaw,Timestamp,Target
-1504,924,16516,-531,75,-42,-4000,7000,266000,1083787,
-1352,968,16460,-514,102,-63,-4000,7000,266000,1083800,
-1536,888,16516,-544,104,-35,-4000,7000,266000,1083802,
-1548,888,16436,-570,134,-93,-4000,7000,266000,1083804,
-1480,716,16408,-562,170,-32,-4000,7000,266000,1083817,
-1520,832,16436,-576,201,-53,-4000,7000,266000,1083819,
-1440,880,16496,-552,205,-64,-4000,7000,266000,1083822,
-1548,764,16524,-578,201,-8,-4000,7000,266000,1083834,
-1480,800,16436,-548,152,-2,-4000,7000,266000,1083837,
-1452,884,16480,-599,125,30,-4000,7000,266000,1083839,
-1516,872,16560,-604,154,30,-4000,7000,266000,1083842,
-1420,892,16700,-620,51,58,-4000,7000,266000,1083854,
-1492,968,16608,-614,85,-3,-4000,7000,266000,1083857,
-1452,804,16612,-577,81,33,-4000,7000,266000,1083859,
-1464,920,16488,-634,144,-2,-4000,7000,266000,1083872,
-1420,848,16520,-587,106,6,-4000,7000,266000,1083874,
-1344,852,16528,-633,120,7,-4000,7000,266000,1083876,
-1292,752,16620,-619,152,1,-4000,7000,266000,1083879,
-1416,788,16584,-622,241,-3,-4000,7000,266000,1083891,
-1460,776,16448,-604,282,-35,-4000,7000,266000,1083894,
-1412,828,16464,-583,287,-28,-4000,7000,266000,1083896,
-1456,792,16420,-630,343,-56,-4000,7000,266000,1083909,
-1496,820,16444,-585,333,-70,-4000,7000,266000,1083911,
-1504,856,16664,-590,313,-37,-4000,7000,266000,1083913,
-1664,800,16528,-603,284,-33,-4000,7000,266000,1083926,
-1708,696,16580,-636,230,-22,-4000,7000,266000,1083928,
-1588,732,16528,-654,271,-47,-4000,7000,266000,1083931,
-1632,808,16436,-644,237,-46,-4000,8000,266000,1083943,
-1604,688,16560,-660,257,-47,-4000,8000,266000,1083946,
-1640,688,16496,-593,255,-52,-4000,8000,266000,1083948,
-1736,792,16552,-583,270,-26,-4000,8000,266000,1083961,
-1744,796,16480,-597,231,-2,-4000,8000,266000,1083963,
-1696,736,16356,-627,224,9,-4000,8000,266000,1083966,
-1676,764,16640,-649,265,-35,-4000,8000,266000,1083968,
-1688,704,16428,-658,139,-12,-4000,8000,266000,1083980,
-1668,716,16552,-655,132,-29,-4000,8000,266000,1083983,
-1736,760,16464,-622,90,-10,-4000,8000,266000,1083985,
-1896,772,16464,-609,54,9,-4000,8000,266000,1083998,
-1812,748,16612,-623,5,54,-4000,8000,266000,1084000,
-1696,660,16724,-577,-59,49,-4000,7000,266000,1084013,
-1672,696,16668,-644,-114,74,-4000,7000,266000,1084015,
-1768,692,16628,-611,-99,73,-4000,7000,266000,1084018,
-1860,688,16616,-596,-92,29,-4000,7000,266000,1084020,
-1672,596,16528,-614,-133,76,-4000,7000,266000,1084033,
-1712,536,16668,-577,-137,95,-4000,7000,266000,1084035,
-1664,632,16696,-579,-175,97,-4000,7000,266000,1084037,
-1524,664,16660,-532,-125,94,-4000,7000,266000,1084050,
-1496,732,16564,-567,-142,122,-4000,7000,266000,1084052,
-1612,708,16516,-574,-139,123,-4000,7000,266000,1084055,
-1472,656,16488,-554,-132,147,-4000,7000,266000,1084067,
-1420,748,16456,-558,-78,142,-4000,7000,266000,1084069,
-1340,740,16356,-533,-78,109,-4000,7000,266000,1084072,
-1268,764,16584,-562,-32,125,-4000,7000,266000,1084084,
-1376,824,16384,-567,-25,120,-4000,7000,266000,1084087,
-1368,704,16580,-568,-54,151,-4000,7000,266000,1084089,
-1344,788,16616,-570,-7,146,-4000,7000,266000,1084102,
-1332,828,16560,-555,-54,164,-4000,7000,266000,1084104,
-1492,800,16660,-601,-38,175,-4000,7000,266000,1084106,
-1368,740,16416,-560,-111,155,-4000,7000,266000,1084119,
-1428,836,16648,-579,-113,172,-4000,7000,266000,1084121,
-1368,804,16760,-567,-96,131,-4000,7000,266000,1084124,
-1368,836,16744,-588,-115,191,-4000,7000,266000,1084137,
-1244,808,16696,-553,-74,145,-4000,7000,266000,1084139,
-1416,776,16580,-541,-100,192,-4000,7000,266000,1084141,
-1356,824,16544,-511,26,153,-4000,7000,266000,1084154,
-1288,816,16720,-520,-16,130,-4000,7000,266000,1084156,
-1292,884,16524,-541,20,152,-4000,7000,266000,1084159,
-1260,692,16664,-552,44,115,-4000,7000,266000,1084161,
-1384,744,16508,-551,120,59,-4000,7000,266000,1084173,
-1264,732,16552,-555,195,50,-4000,7000,266000,1084176,
-1268,764,16452,-531,163,51,-4000,7000,266000,1084178,
-1284,792,16500,-519,365,17,-4000,7000,266000,1084191,
-1272,788,16616,-505,312,67,-4000,7000,266000,1084193,
-1392,720,16632,-530,350,69,-4000,7000,266000,1084195,
-1480,724,16480,-533,382,52,-4000,7000,266000,1084208,
-1564,688,16556,-546,369,44,-4000,7000,266000,1084210,
-1456,712,16624,-547,406,-8,-4000,7000,266000,1084213,
-1444,844,16520,-505,329,35,-4000,7000,266000,1084215,
-1560,692,16612,-540,298,23,-4000,7000,266000,1084228,
-1636,820,16636,-509,201,35,-4000,7000,266000,1084230,
-1540,652,16716,-556,174,57,-4000,7000,266000,1084232,
-1568,760,16572,-535,69,90,-4000,7000,266000,1084245,
-1656,772,16708,-550,52,109,-4000,7000,266000,1084247,
-1408,748,16588,-520,100,66,-4000,7000,266000,1084250,
-1624,676,16716,-508,78,80,-4000,7000,266000,1084252,
-1464,700,16696,-526,204,92,-4000,7000,266000,1084265,
-1328,684,16536,-457,176,107,-4000,7000,266000,1084267,
-1500,816,16608,-484,189,133,-4000,7000,266000,1084269,
-1512,600,16672,-477,238,108,-4000,7000,266000,1084282,
-1460,680,16476,-477,281,151,-4000,7000,266000,1084284,
-1456,736,16572,-491,303,112,-4000,7000,266000,1084287,
-1576,700,16524,-467,244,161,-4000,7000,266000,1084299,
-1668,608,16428,-517,262,127,-4000,7000,266000,1084302,
-1568,756,16440,-462,201,133,-4000,7000,266000,1084304,
-1644,656,16596,-507,127,122,-4000,7000,266000,1084317,
-1644,704,16464,-503,67,144,-4000,7000,266000,1084319,
-1620,656,16612,-518,66,138,-4000,7000,266000,1084321,
-1660,788,16604,-474,53,114,-4000,7000,266000,1084324,
-1516,720,16640,-538,-74,120,-4000,7000,266000,1084337,
-1452,664,16444,-512,-97,111,-4000,7000,266000,1084339,
-1468,708,16568,-535,-127,143,-4000,7000,266000,1084341,
-1428,728,16444,-506,-84,139,-4000,7000,266000,1084354,
-1348,784,16676,-527,-99,143,-4000,7000,266000,1084356,
-1460,732,16460,-538,-24,146,-4000,7000,266000,1084359,
-1396,716,16636,-503,-13,122,-4000,7000,266000,1084371,
-1292,756,16612,-510,60,120,-4000,7000,266000,1084374,
-1272,760,16632,-466,30,122,-4000,7000,266000,1084376,
-1352,756,16684,-515,22,145,-4000,7000,266000,1084379,
-1372,772,16548,-441,89,135,-4000,7000,266000,1084391,
-1312,820,16576,-507,108,145,-4000,7000,266000,1084393,
-1252,764,16492,-496,142,112,-4000,7000,266000,1084396,
-1336,756,16644,-498,120,143,-4000,7000,266000,1084408,
-1388,736,16436,-510,156,125,-4000,7000,266000,1084411,
-1308,640,16608,-462,83,100,-4000,7000,266000,1084413,
-1308,836,16656,-544,113,80,-4000,7000,266000,1084426,
-1288,920,16468,-494,96,72,-4000,7000,266000,1084428,
-1332,792,16648,-537,80,47,-4000,7000,266000,1084430,
-1260,852,16560,-527,125,40,-4000,7000,266000,1084433,
-1300,820,16416,-541,166,54,-4000,7000,266000,1084445,
-1196,804,16464,-529,209,28,-4000,7000,266000,1084448,
-1348,660,16496,-484,200,17,-4000,7000,266000,1084450,
-1388,724,16524,-519,258,12,-4000,7000,266000,1084463,
-1288,820,16556,-486,218,-15,-4000,7000,266000,1084465,
-1352,672,16580,-535,200,21,-4000,7000,266000,1084467,
-1388,784,16652,-539,237,-5,-4000,7000,266000,1084470,
-1460,772,16544,-506,209,-10,-4000,7000,266000,1084486,
-1624,684,16660,-539,184,25,-4000,7000,266000,1084489,
-1452,764,16548,-548,178,17,-4000,7000,266000,1084491,
-1604,732,16628,-516,213,5,-4000,7000,266000,1084504,
-1520,720,16528,-535,215,-4,-4000,7000,266000,1084506,
-1428,756,16680,-511,237,-31,-4000,7000,266000,1084508,
-1576,680,16532,-541,157,-2,-4000,7000,266000,1084521,
-1624,748,16628,-532,166,-22,-4000,7000,266000,1084523,
-1496,668,16684,-518,107,11,-4000,7000,266000,1084525,
-1576,748,16608,-559,118,4,-4000,7000,266000,1084528,
-1544,656,16560,-530,59,-33,-4000,7000,266000,1084540,
-1464,700,16592,-543,104,-38,-4000,7000,266000,1084543,
-1552,804,16680,-488,29,-19,-4000,7000,266000,1084545,
-1580,728,16672,-528,46,-12,-4000,7000,266000,1084558,
-1496,732,16616,-490,22,-9,-4000,7000,266000,1084560,
-1476,652,16516,-540,5,6,-4000,7000,266000,1084562,
-1416,676,16556,-542,39,-33,-4000,7000,266000,1084565,
-1372,664,16544,-542,28,6,-4000,7000,266000,1084577,
-1408,776,16544,-515,48,-25,-4000,7000,266000,1084580,
-1384,692,16524,-500,79,-5,-4000,7000,266000,1084582,
-1308,768,16560,-539,58,-18,-4000,7000,266000,1084595,
-1352,676,16652,-505,47,-23,-4000,7000,266000,1084597,
-1352,696,16464,-530,23,-13,-4000,7000,266000,1084600,
-1256,724,16644,-555,53,-28,-4000,7000,266000,1084602,
-1432,644,16628,-523,31,-14,-4000,7000,266000,1084615,
-1348,800,16564,-538,57,-17,-4000,7000,266000,1084617,
-1300,768,16420,-505,37,-43,-4000,7000,266000,1084619,
-1336,676,16572,-540,94,-21,-4000,7000,266000,1084632,
-1408,660,16528,-504,93,-13,-4000,7000,266000,1084634,
-1316,688,16476,-526,81,2,-4000,7000,266000,1084637,
-1292,584,16488,-545,118,19,-4000,7000,266000,1084639,
-1348,616,16760,-540,67,35,-4000,7000,266000,1084652,
-1400,740,16628,-546,136,29,-4000,7000,266000,1084654,
-1360,656,16560,-508,121,7,-4000,7000,266000,1084656,
-1208,592,16600,-519,110,-10,-4000,7000,266000,1084669,
-1268,616,16416,-518,114,13,-4000,7000,266000,1084671,
-1272,716,16780,-551,101,33,-4000,7000,266000,1084674,
-1368,720,16600,-503,117,35,-4000,7000,266000,1084686,
-1268,676,16560,-530,118,30,-4000,7000,266000,1084688,
-1264,612,16732,-534,156,-7,-4000,7000,266000,1084691,
-1160,800,16608,-491,117,6,-4000,7000,266000,1084693,
-1276,692,16656,-503,151,-7,-4000,7000,266000,1084706,
-1248,696,16456,-485,149,-11,-4000,7000,266000,1084708,
-1152,692,16608,-525,175,-4,-4000,7000,266000,1084711,
-1136,624,16496,-467,246,-14,-4000,7000,266000,1084723,
-1212,616,16632,-505,284,-8,-4000,7000,266000,1084726,
-1228,636,16592,-474,339,-36,-4000,7000,266000,1084728,
-1316,712,16636,-496,355,-10,-4000,7000,266000,1084741,
-1272,548,16572,-504,395,-34,-4000,7000,266000,1084743,
-1296,728,16600,-451,392,-8,-4000,7000,266000,1084745,
-1400,664,16472,-496,435,31,-4000,7000,266000,1084758,
-1360,712,16520,-456,370,57,-4000,7000,266000,1084760,
-1432,728,16616,-516,342,35,-4000,7000,266000,1084763,
-1436,636,16464,-497,377,28,-4000,7000,266000,1084765,
-1508,636,16604,-515,243,32,-4000,7000,266000,1084778,
-1408,644,16480,-504,284,19,-4000,7000,266000,1084780,
-1464,592,16592,-480,220,27,-4000,7000,266000,1084783,
-1456,676,16552,-541,194,-15,-4000,7000,266000,1084795,
-1480,796,16480,-503,152,-9,-4000,7000,266000,1084798,
-1592,636,16532,-553,160,-9,-4000,7000,266000,1084800,
-1432,748,16572,-530,164,-30,-4000,7000,266000,1084802,
-1436,724,16552,-538,136,3,-4000,7000,266000,1084815,
-1444,628,16516,-517,149,-55,-4000,7000,266000,1084817,
-1460,700,16524,-492,138,-57,-4000,7000,266000,1084820,
-1492,652,16636,-442,225,-27,-4000,7000,266000,1084832,
-1472,648,16748,-436,176,14,-4000,7000,266000,1084835,
-1428,592,16740,-467,183,3,-4000,7000,266000,1084837,
-1428,580,16604,-444,156,45,-4000,7000,266000,1084850,
-1548,572,16692,-471,140,39,-4000,7000,266000,1084852,
-1532,744,16500,-434,157,44,-4000,7000,266000,1084854,
-1500,664,16636,-462,101,61,-4000,7000,266000,1084857,
-1576,620,16508,-476,96,120,-4000,7000,266000,1084869,
-1588,712,16624,-453,49,144,-4000,7000,266000,1084872,
-1440,672,16572,-481,31,152,-4000,7000,266000,1084874,
-1356,628,16448,-441,20,153,-4000,7000,267000,1084887,
-1288,692,16608,-509,17,169,-4000,7000,267000,1084889,
-1308,636,16488,-477,48,159,-4000,7000,267000,1084892,
-1352,576,16728,-458,17,156,-4000,7000,267000,1084894,
-1204,688,16720,-488,66,141,-4000,7000,267000,1084911,
-1232,644,16536,-474,114,138,-4000,7000,267000,1084913,
-1304,612,16500,-448,106,126,-4000,7000,267000,1084915,
-1272,552,16724,-478,165,106,-4000,7000,267000,1084928,
-1332,652,16624,-451,123,96,-4000,7000,267000,1084930,
-1352,652,16564,-471,131,94,-4000,7000,267000,1084933,
-1284,556,16652,-407,168,147,-4000,7000,267000,1084945,
-1340,636,16608,-478,166,132,-4000,7000,267000,1084948,
-1300,592,16480,-469,217,125,-4000,7000,267000,1084950,
-1304,692,16608,-460,245,136,-4000,7000,267000,1084963,
-1276,628,16524,-473,307,123,-4000,7000,267000,1084965,
-1220,592,16636,-437,260,135,-4000,7000,267000,1084967,
-1336,652,16696,-425,348,108,-4000,7000,267000,1084980,
-1316,656,16536,-438,324,134,-4000,7000,267000,1084982,
-1280,712,16500,-458,326,114,-4000,7000,267000,1084985,
-1428,652,16532,-470,287,137,-4000,7000,267000,1084997,
-1368,748,16660,-500,275,146,-4000,7000,267000,1085000,
-1472,688,16544,-455,278,120,-4000,7000,267000,1085002,
-1412,784,16564,-497,131,131,-4000,7000,267000,1085015,
-1316,656,16588,-504,129,133,-4000,7000,267000,1085017,
-1476,684,16632,-472,70,129,-4000,7000,267000,1085019,
-1280,672,16552,-501,93,126,-4000,7000,267000,1085032,
-1384,792,16608,-487,82,107,-4000,7000,267000,1085034,
-1256,776,16460,-505,66,116,-4000,7000,267000,1085037,
-1408,760,16600,-505,119,92,-4000,7000,267000,1085039,
-1304,716,16672,-489,151,136,-4000,7000,267000,1085052,
-1328,624,16524,-478,198,114,-4000,7000,267000,1085054,
-1428,684,16584,-470,156,146,-4000,7000,267000,1085056,
-1464,684,16520,-456,288,132,-4000,7000,267000,1085069,
-1496,632,16456,-461,253,144,-4000,7000,267000,1085071,
-1512,684,16456,-484,233,124,-4000,7000,267000,1085074,
-1536,712,16504,-483,152,136,-4000,7000,267000,1085086,
-1480,640,16584,-469,126,134,-4000,7000,267000,1085089,
-1508,628,16580,-481,148,116,-4000,7000,267000,1085091,
-1588,744,16748,-487,6,136,-4000,7000,267000,1085104,
-1464,596,16552,-451,-5,132,-4000,7000,267000,1085106,
-1532,716,16600,-489,-104,153,-4000,7000,267000,1085108,
-1596,732,16632,-501,-107,129,-4000,7000,267000,1085111,
-1396,716,16660,-490,-221,92,-4000,7000,267000,1085124,
-1388,676,16592,-518,-205,104,-4000,7000,267000,1085126,
-1432,724,16516,-495,-184,80,-4000,7000,267000,1085128,
-1240,676,16584,-514,-157,110,-4000,7000,267000,1085141,
-1308,584,16476,-478,-125,89,-4000,7000,267000,1085143,
-1284,740,16452,-497,-123,113,-4000,7000,267000,1085146,
-1268,656,16468,-464,-18,115,-4000,7000,267000,1085158,
-1208,660,16504,-480,-22,134,-4000,7000,267000,1085160,
-1224,656,16408,-505,6,137,-4000,7000,267000,1085163,
-1192,680,16544,-480,30,109,-4000,7000,267000,1085165,
-1332,704,16736,-502,-9,109,-4000,7000,267000,1085178,
-1240,644,16640,-478,32,83,-4000,7000,267000,1085180,
-1264,604,16568,-457,-59,110,-4000,7000,267000,1085182,
-1196,704,16572,-498,-42,70,-4000,7000,267000,1085195,
-1256,552,16604,-479,-76,109,-4000,7000,267000,1085198,
-1252,528,16636,-528,-70,125,-4000,7000,267000,1085200,
-1128,816,16692,-492,-31,112,-4000,7000,267000,1085212,
-1200,704,16496,-531,6,72,-4000,7000,267000,1085215,
-1220,848,16456,-487,27,49,-4000,7000,267000,1085217,
-1172,724,16680,-472,-33,60,-4000,7000,267000,1085220,
-1252,616,16544,-425,130,89,-4000,7000,267000,1085232,
-1268,656,16648,-462,86,98,-4000,7000,267000,1085235,
-1208,768,16608,-479,118,93,-4000,7000,267000,1085237,
-1216,684,16516,-484,116,117,-4000,7000,267000,1085250,
-1256,752,16448,-476,131,95,-4000,7000,267000,1085252,
-1140,760,16564,-474,161,73,-4000,7000,267000,1085254,
-1236,808,16604,-494,105,80,-4000,7000,267000,1085257,
-1184,756,16608,-475,127,79,-4000,7000,267000,1085269,
-1256,708,16628,-459,97,97,-4000,7000,267000,1085272,
-1300,660,16644,-483,72,115,-4000,7000,267000,1085274,
-1316,636,16476,-475,93,82,-4000,7000,267000,1085287,
-1092,684,16580,-480,106,88,-4000,7000,267000,1085289,
-1144,768,16544,-493,145,67,-4000,7000,267000,1085291,
-1232,700,16472,-477,128,78,-4000,7000,267000,1085294,
-1116,724,16564,-482,228,73,-4000,7000,267000,1085306,
-1196,644,16592,-446,218,62,-4000,7000,267000,1085309,
-1240,724,16664,-500,243,82,-4000,7000,267000,1085311,
-1112,688,16540,-437,277,58,-4000,7000,267000,1085324,
-1240,704,16492,-452,290,56,-4000,7000,267000,1085326,
-1180,756,16520,-483,354,20,-4000,7000,267000,1085328,
-1268,724,16520,-443,299,16,-4000,7000,267000,1085331,
-1260,704,16392,-498,287,-26,-4000,7000,267000,1085347,
-1252,624,16436,-521,287,-15,-4000,7000,267000,1085350,
-1280,700,16452,-479,251,-36,-4000,7000,267000,1085352,
-1328,736,16564,-540,212,-7,-4000,7000,267000,1085364,
-1440,664,16488,-485,193,-12,-4000,7000,267000,1085367,
-1440,764,16696,-519,132,-23,-4000,7000,267000,1085369,
-1356,648,16736,-499,83,-35,-4000,7000,267000,1085382,
-1380,588,16708,-546,70,-13,-4000,7000,267000,1085384,
-1420,652,16684,-555,53,-31,-4000,7000,267000,1085386,
-1452,820,16596,-474,91,-42,-4000,7000,267000,1085389,
-1316,688,16620,-541,87,-55,-4000,7000,267000,1085401,
-1316,692,16616,-472,85,-48,-4000,7000,267000,1085404,
-1416,620,16636,-500,70,-14,-4000,7000,267000,1085406,
-1396,672,16624,-476,118,-27,-4000,7000,267000,1085419,
-1412,556,16648,-480,88,34,-4000,7000,267000,1085421,
-1296,612,16656,-491,72,21,-4000,7000,267000,1085423,
-1372,616,16608,-466,96,16,-4000,7000,267000,1085426,
-1380,696,16760,-532,8,44,-4000,7000,267000,1085439,
-1308,672,16584,-506,-3,25,-4000,7000,267000,1085441,
-1436,672,16680,-502,-24,59,-4000,7000,267000,1085443,
-1244,764,16632,-481,11,2,-4000,7000,267000,1085456,
-1264,668,16848,-481,-10,36,-4000,7000,267000,1085458,
-1208,680,16600,-531,10,-2,-4000,7000,267000,1085460,
-1228,664,16588,-475,42,-27,-4000,7000,267000,1085463,
-1096,600,16488,-541,104,-29,-4000,7000,267000,1085475,
-1104,600,16604,-456,125,-42,-4000,7000,267000,1085478,
-1072,664,16568,-513,124,-15,-4000,7000,267000,1085480,
-1168,652,16624,-480,179,-59,-4000,7000,267000,1085493,
-1196,576,16520,-496,191,-28,-4000,7000,267000,1085495,
-1216,644,16632,-497,235,-6,-4000,7000,267000,1085497,
-1232,596,16760,-475,179,27,-4000,7000,267000,1085510,
-1316,648,16716,-510,194,29,-4000,7000,267000,1085512,
-1320,644,16708,-472,163,23,-4000,7000,267000,1085515,
-1180,604,16724,-485,145,51,-4000,7000,267000,1085517,
-1196,612,16696,-414,127,41,-4000,7000,267000,1085530,
-1208,652,16736,-503,96,96,-4000,7000,267000,1085532,
-1204,692,16660,-503,111,73,-4000,7000,267000,1085535,
-1160,696,16624,-485,128,93,-4000,7000,267000,1085547,
-1068,652,16644,-476,173,70,-4000,7000,267000,1085549,
-1064,680,16664,-455,214,68,-4000,7000,267000,1085552,
-1108,660,16520,-459,210,70,-4000,7000,267000,1085554,
-932,696,16456,-450,361,76,-4000,7000,267000,1085567,
-1020,700,16488,-457,356,70,-4000,7000,267000,1085569,
-1072,712,16340,-494,375,61,-4000,7000,267000,1085572,
-1172,580,16504,-470,373,65,-4000,7000,267000,1085584,
-1184,640,16332,-530,425,55,-4000,7000,267000,1085587,
-1152,672,16436,-480,375,49,-4000,7000,267000,1085589,
-1204,724,16356,-522,369,85,-4000,7000,267000,1085592,
-1300,600,16508,-501,288,25,-4000,7000,267000,1085604,
-1216,680,16640,-531,225,38,-4000,7000,267000,1085606,
-1332,608,16604,-545,222,47,-4000,7000,267000,1085609,
-1316,688,16688,-537,179,49,-4000,7000,267000,1085621,
-1336,564,16760,-556,187,16,-4000,7000,267000,1085624,
-1316,572,16724,-525,220,-14,-4000,7000,267000,1085626,
-1348,588,16776,-531,206,-3,-4000,7000,267000,1085629,
-1300,728,17032,-710,288,-56,-4000,7000,267000,1085641,
-1276,752,16940,-778,276,-41,-4000,7000,267000,1085644,
-1296,848,16844,-841,327,-40,-4000,7000,267000,1085646,
-820,820,16768,-1270,459,-194,-4000,7000,267000,1085659,
-776,748,16504,-1342,547,-294,-4000,7000,267000,1085661,
-792,764,16428,-1365,656,-372,-4000,7000,267000,1085663,
-400,708,15968,-1488,943,-601,-5000,7000,267000,1085676,
-516,684,16124,-1472,967,-594,-5000,7000,267000,1085678,
-392,692,16256,-1458,903,-507,-5000,7000,267000,1085681,
-296,1188,16508,-1490,1091,-94,-5000,7000,267000,1085693,
-244,1136,16600,-1413,1099,-11,-5000,7000,267000,1085696,
-244,1236,16808,-1335,1202,62,-5000,7000,267000,1085698,
-852,1216,17664,-728,1313,32,-5000,7000,267000,1085711,
-1056,1132,17748,-735,1340,-15,-5000,7000,267000,1085713,
-1284,1148,17756,-717,1271,-90,-5000,7000,267000,1085715,
-1756,992,17752,-598,497,-417,-5000,7000,267000,1085728,
-1888,1024,17944,-597,257,-497,-5000,7000,267000,1085730,
-1776,1268,17776,-738,32,-488,-5000,7000,267000,1085733,
-1884,192,18572,-325,-1141,-665,-5000,7000,267000,1085745,
-1996,272,17628,-318,-1204,-541,-5000,7000,267000,1085748,
-1988,252,17248,-519,-1263,-460,-5000,7000,267000,1085750,
-1360,452,18260,-1208,-972,112,-5000,7000,267000,1085763,
-1140,380,18296,-963,-637,226,-5000,7000,267000,1085765,
-1224,348,18040,-767,-410,337,-5000,7000,267000,1085767,
-2272,772,18464,-960,1031,1202,-5000,7000,267000,1085780,
-2412,664,18788,-883,1280,1353,-5000,7000,267000,1085782,
-2648,812,19008,-883,1386,1495,-5000,7000,267000,1085785,
-3060,932,20128,-948,1572,1684,-5000,7000,267000,1085797,
-3192,1152,20536,-993,1474,1711,-5000,7000,267000,1085800,
-3388,1156,20672,-1086,1359,1756,-5000,7000,267000,1085802,
-3888,852,21820,-1113,12,2081,-5000,7000,268000,1085814,
-3940,876,21716,-1181,-292,2137,-5000,7000,268000,1085817,
-3952,972,21820,-1200,-589,2191,-5000,7000,268000,1085819,
-3624,1360,22456,-1387,-2294,2196,-5000,7000,268000,1085832,
-3488,1236,22496,-1212,-2616,2155,-5000,7000,268000,1085834,
-3140,1620,22112,-1452,-2994,2051,-5000,7000,268000,1085837,
-2652,1812,21836,-2040,-4333,1927,-5000,7000,268000,1085849,
-2504,1672,21852,-2128,-4511,1944,-5000,6000,268000,1085852,
-1448,1176,22768,-2093,-4994,2161,-5000,6000,269000,1085864,
-1276,1188,22868,-2145,-4966,2241,-5000,6000,269000,1085867,
-1044,1136,23020,-2239,-4920,2272,-5000,6000,269000,1085869,
-780,1056,22356,-2204,-3711,2483,-5000,5000,269000,1085882,
-664,1040,22284,-2064,-3253,2455,-5000,5000,269000,1085884,
-700,940,22260,-1843,-2773,2424,-5000,5000,269000,1085886,
-1016,524,21800,-1078,-177,2562,-6000,5000,269000,1085899,
-1228,456,21664,-908,175,2685,-6000,5000,269000,1085901,
-1520,412,21688,-893,390,2854,-6000,5000,269000,1085904,
-2092,380,23036,-623,737,3734,-6000,5000,270000,1085916,
-2356,296,23252,-493,713,3854,-6000,5000,270000,1085919,
-2464,296,23384,-348,672,3997,-5000,6000,270000,1085921,
-3292,364,24284,-52,-543,4193,-5000,6000,270000,1085934,
-3460,284,24372,96,-780,4211,-5000,6000,270000,1085936,
-3468,264,24264,349,-977,4157,-5000,5000,270000,1085938,
-3248,320,23676,752,-1817,3918,-5000,5000,271000,1085951,
-2980,312,23456,868,-1967,3818,-5000,5000,271000,1085954,
-2856,256,23364,1010,-2056,3749,-5000,5000,271000,1085956,
-2292,-68,22456,2133,-2293,3405,-5000,5000,271000,1085969,
-2172,-100,22196,2332,-2392,3364,-5000,5000,271000,1085971,
-2100,-240,21984,2503,-2426,3353,-5000,5000,271000,1085973,
-2132,156,20684,3127,-3489,3443,-4000,5000,272000,1085986,
-2112,160,20564,3198,-3656,3503,-4000,5000,272000,1085988,
-2412,240,20400,3297,-3826,3553,-4000,5000,272000,1085991,
-2984,608,19944,3581,-3880,3840,-4000,4000,272000,1086003,
-2924,660,19880,3632,-3932,3813,-4000,4000,272000,1086005,
-2864,692,19752,3655,-3925,3840,-4000,4000,273000,1086008,
-2584,520,19632,4217,-4218,3424,-3000,4000,273000,1086020,
-2440,344,19612,4349,-4313,3303,-3000,4000,273000,1086023,
-2292,308,19756,4477,-4437,3119,-3000,4000,273000,1086025,
-1656,52,19656,5115,-5125,2576,-2000,3000,273000,1086038,
-1588,0,19596,5257,-5226,2484,-2000,3000,273000,1086040,
-1396,-16,19476,5370,-5340,2475,-2000,3000,273000,1086043,
-1492,-56,19264,6139,-5278,2504,-2000,3000,274000,1086056,
-1576,-120,19204,6258,-5252,2520,-2000,2000,274000,1086058,
-1400,28,19120,6360,-5148,2564,-1000,2000,274000,1086060,
-1164,360,18936,6744,-4714,2472,-1000,2000,274000,1086073,
-1252,300,18936,6777,-4662,2432,-1000,2000,274000,1086075,
-1028,392,18728,6827,-4635,2339,0,2000,274000,1086077,
-992,740,18328,7126,-4736,2013,0,1000,274000,1086090,
-1016,776,18148,7269,-4705,1920,0,1000,274000,1086093,
-908,824,17944,7310,-4724,1878,0,1000,274000,1086095,
-920,912,17620,7338,-4698,1857,0,1000,274000,1086097,
-560,984,16960,7676,-4882,1737,0,1000,275000,1086110,
-524,960,16948,7754,-4934,1759,1000,0,275000,1086112,
-420,904,16976,7885,-4995,1777,1000,0,275000,1086115,
-508,1120,17112,8131,-5457,1794,2000,0,275000,1086127,
-496,1156,16996,8153,-5502,1741,2000,0,275000,1086130,
-400,1276,16724,8157,-5619,1687,2000,0,275000,1086132,
-332,1308,16528,8077,-5714,1660,2000,0,275000,1086134,
148,1528,16168,8350,-6130,1219,3000,0,275000,1086147,
176,1428,15924,8298,-6185,1171,3000,0,275000,1086149,
148,1592,15808,8330,-6277,1063,3000,0,275000,1086152,
644,1820,15076,8323,-6523,673,4000,-1000,275000,1086164,
648,1972,15012,8366,-6555,628,4000,-1000,275000,1086167,
704,2004,14668,8325,-6595,576,4000,-1000,275000,1086169,
980,2428,13740,8148,-6371,308,5000,-2000,275000,1086182,
956,2316,14168,8104,-6357,213,5000,-2000,275000,1086184,
1204,2340,14348,8115,-6334,181,5000,-2000,275000,1086186,
1304,2396,14696,7943,-6223,-90,6000,-3000,275000,1086199,
1220,2496,14608,7883,-6278,-107,6000,-3000,275000,1086202,
1288,2512,14620,7905,-6339,-150,6000,-3000,275000,1086204,
1324,2612,14144,7778,-7058,-1,7000,-4000,275000,1086216,
1236,2744,13896,7774,-7188,25,7000,-4000,275000,1086219,
1268,2836,13820,7812,-7322,100,8000,-4000,275000,1086221,
1492,3076,13044,7758,-8016,276,8000,-5000,275000,1086234,
1732,3144,12916,7724,-8168,243,8000,-5000,275000,1086236,
1748,3204,12864,7680,-8264,215,9000,-5000,275000,1086239,
2772,3372,12192,7564,-8637,-436,9000,-6000,274000,1086251,
2940,3488,12140,7456,-8662,-591,10000,-6000,274000,1086254,
3028,3448,12116,7396,-8648,-784,10000,-6000,274000,1086256,
3760,3528,11400,6931,-8390,-1477,10000,-7000,274000,1086269,
3900,3428,11420,6912,-8323,-1605,11000,-7000,274000,1086271,
3856,3520,11268,6858,-8213,-1604,11000,-7000,274000,1086274,
3648,3716,11356,6416,-7257,-1328,11000,-8000,274000,1086286,
3692,3684,11216,6281,-7009,-1197,12000,-8000,274000,1086289,
3616,3736,11232,6124,-6739,-1066,12000,-8000,274000,1086291,
3448,4256,10888,5499,-5890,-585,12000,-9000,273000,1086304,
3604,4252,11064,5439,-5793,-527,12000,-9000,273000,1086306,
3500,4232,11064,5439,-5752,-527,13000,-9000,273000,1086308,
3676,4272,11188,5264,-6191,-637,13000,-10000,273000,1086321,
3840,4284,11048,5252,-6345,-726,13000,-10000,273000,1086323,
4256,4628,10548,5036,-7305,-1044,14000,-11000,273000,1086336,
4196,4476,10496,5061,-7442,-1172,14000,-11000,273000,1086338,
4328,4592,10388,4972,-7580,-1175,14000,-11000,273000,1086341,
4652,4820,9948,4545,-7575,-1272,15000,-12000,272000,1086353,
4532,4808,9832,4505,-7585,-1275,15000,-12000,272000,1086356,
4800,4784,10028,4539,-7126,-1153,15000,-12000,272000,1086358,
5140,5080,9336,3891,-6016,-1093,15000,-12000,272000,1086371,
5332,5192,9548,3715,-5702,-1018,15000,-13000,272000,1086373,
5456,5312,9412,3592,-5482,-1105,16000,-13000,272000,1086376,
5628,5328,10412,3440,-4511,-1127,16000,-13000,272000,1086388,
5596,5388,10444,3420,-4320,-1159,16000,-13000,272000,1086390,
5544,5300,10288,3396,-4215,-1150,16000,-13000,271000,1086393,
5232,5408,10100,3211,-3263,-1090,17000,-14000,271000,1086406,
5244,5360,10128,3156,-3180,-1026,17000,-14000,271000,1086408,
5124,5328,9964,3097,-3013,-964,17000,-14000,271000,1086410,
4984,5192,9780,3089,-2485,-741,17000,-14000,271000,1086423,
4960,5232,9660,3056,-2416,-704,17000,-14000,271000,1086425,
4856,5256,9820,3066,-2312,-684,17000,-14000,271000,1086428,
4876,5180,9548,2937,-2005,-481,18000,-14000,271000,1086440,
4964,5348,9608,2939,-1927,-447,18000,-14000,271000,1086443,
4840,5268,9632,2891,-1876,-386,18000,-14000,271000,1086445,
5004,5416,9732,2857,-1527,-242,18000,-15000,271000,1086458,
4992,5584,9668,2800,-1525,-161,18000,-15000,271000,1086460,
5080,5556,9628,2728,-1480,-121,18000,-15000,271000,1086463,
5388,5808,9720,2493,-1297,-4,19000,-15000,271000,1086475,
5428,5984,9724,2445,-1220,23,19000,-15000,271000,1086477,
5392,5992,9764,2414,-1118,-8,19000,-15000,271000,1086480,
5440,6360,10096,2082,-711,166,19000,-15000,271000,1086492,
5544,6424,10180,2073,-621,182,19000,-15000,271000,1086495,
5432,6528,10200,1984,-585,257,19000,-15000,271000,1086497,
5004,6768,10556,1531,-87,486,19000,-15000,271000,1086510,
4992,6856,10872,1458,-36,614,19000,-15000,271000,1086512,
4892,6812,10840,1356,53,623,19000,-15000,271000,1086514,
4892,6936,11536,1261,21,757,20000,-15000,271000,1086527,
4828,6944,11684,1218,-35,752,20000,-15000,271000,1086529,
4960,6804,11552,1224,-89,773,20000,-15000,271000,1086532,
4908,7224,12144,1059,-730,884,20000,-15000,271000,1086544,
4864,7220,12404,1039,-780,879,20000,-15000,271000,1086547,
4920,7240,12620,1054,-908,921,20000,-15000,271000,1086549,
5256,7768,13004,851,-1096,1032,20000,-16000,271000,1086562,
5336,7724,13140,771,-1113,1060,20000,-16000,271000,1086564,
5352,7824,13176,744,-1112,1048,20000,-16000,271000,1086566,
5892,8108,13848,665,-935,945,20000,-16000,271000,1086579,
5780,7904,13940,669,-844,917,20000,-16000,271000,1086581,
5800,7972,13900,680,-773,855,20000,-16000,271000,1086584,
5960,8020,14636,627,-370,705,20000,-16000,271000,1086596,
5976,7924,14500,609,-261,691,20000,-16000,271000,1086599,
6028,8040,14840,640,-215,699,20000,-16000,271000,1086601,
5764,7968,15348,743,128,683,20000,-16000,271000,1086614,
5788,7944,15660,792,147,709,20000,-16000,271000,1086616,
5684,7956,15704,808,161,742,20000,-16000,271000,1086618,
5612,7772,16068,1076,222,750,21000,-16000,271000,1086631,
5652,7772,16032,1122,213,743,21000,-16000,271000,1086633,
5720,7720,16244,1209,210,736,21000,-16000,271000,1086636,
5984,7724,16444,1612,-196,559,21000,-16000,271000,1086648,
5976,7836,16720,1694,-233,470,21000,-16000,271000,1086651,
5928,7908,16768,1842,-316,451,21000,-16000,271000,1086653,
6464,7960,16816,2230,-502,111,21000,-16000,271000,1086666,
6588,7836,16812,2379,-507,57,21000,-16000,271000,1086668,
6732,7940,16860,2433,-539,-5,21000,-16000,271000,1086670,
7532,8036,16824,3041,-503,-505,21000,-16000,271000,1086683,
7556,7896,16776,3125,-472,-565,22000,-16000,271000,1086685,
7748,7972,16832,3244,-426,-706,22000,-16000,271000,1086688,
8260,8220,16380,3651,-74,-1257,22000,-16000,271000,1086700,
8292,8292,16340,3744,63,-1400,22000,-16000,271000,1086703,
8328,8316,16424,3852,182,-1475,22000,-16000,271000,1086705,
8492,8328,16180,4084,1190,-1877,23000,-16000,271000,1086718,
8520,8240,16092,4160,1354,-1942,23000,-16000,271000,1086720,
8452,8280,16060,4178,1529,-2004,23000,-16000,271000,1086722,
8636,8064,15836,4522,2101,-2559,23000,-16000,270000,1086735,
8796,8104,15712,4578,2173,-2683,23000,-16000,270000,1086737,
8612,8056,15820,4690,2215,-2849,24000,-16000,270000,1086740,
8764,7996,15140,5080,2254,-3531,24000,-15000,270000,1086752,
8852,7984,14904,5166,2287,-3695,24000,-15000,270000,1086755,
8848,7976,14884,5187,2274,-3773,24000,-15000,270000,1086757,
8920,8184,14196,5325,2612,-4342,25000,-15000,270000,1086770,
8868,8252,14104,5292,2721,-4382,25000,-15000,270000,1086772,
8868,8188,13776,5273,2839,-4479,25000,-15000,270000,1086775,
8744,8260,13360,5108,3608,-4979,26000,-14000,269000,1086787,
8784,8116,13316,5070,3691,-5093,26000,-14000,269000,1086790,
8668,8084,13404,5076,3846,-5244,26000,-14000,269000,1086792,
8232,8096,13052,4858,4082,-5884,27000,-14000,269000,1086805,
8052,8044,12936,4899,4074,-6040,27000,-14000,269000,1086807,
7896,8028,12960,4743,3880,-6783,27000,-13000,268000,1086820,
7756,8080,12836,4790,3781,-6958,27000,-13000,268000,1086822,
7724,8120,12708,4692,3645,-7078,27000,-13000,268000,1086824,
7408,8016,12212,4488,3294,-7798,28000,-12000,268000,1086837,
7368,8076,12020,4418,3235,-7882,28000,-12000,268000,1086839,
7016,7884,12000,4368,3324,-7990,28000,-12000,268000,1086842,
6772,7748,11848,4036,3248,-8262,29000,-12000,267000,1086855,
6744,7732,11780,3993,3208,-8329,29000,-11000,267000,1086857,
6628,7828,11772,3980,3088,-8432,29000,-11000,267000,1086859,
6252,7828,11588,3648,2406,-8844,30000,-11000,266000,1086872,
6200,7808,11584,3653,2289,-8899,30000,-11000,266000,1086874,
6084,7840,11540,3544,2186,-8964,30000,-11000,266000,1086877,
5604,7904,11404,3215,1946,-9285,30000,-10000,265000,1086889,
5544,7984,11344,3109,1882,-9365,30000,-10000,265000,1086892,
5632,7868,11424,3008,1885,-9465,30000,-10000,265000,1086894,
5368,7916,11284,2636,1582,-9887,31000,-9000,264000,1086907,
5300,8064,11280,2555,1582,-10060,31000,-9000,264000,1086909,
5392,8072,11136,2503,1449,-10106,31000,-9000,264000,1086911,
5356,7924,10668,1983,1376,-10801,31000,-8000,263000,1086924,
5220,7952,10832,1896,1313,-10838,31000,-8000,263000,1086926,
5256,7888,10668,1808,1386,-10935,31000,-8000,263000,1086929,
4612,7856,10516,1300,1418,-11166,32000,-8000,262000,1086941,
4472,7836,10504,1222,1401,-11191,32000,-8000,262000,1086944,
4400,7764,10608,1145,1471,-11222,32000,-7000,262000,1086946,
3944,7808,10424,643,1320,-11234,32000,-7000,261000,1086959,
3848,7812,10416,591,1324,-11335,32000,-7000,260000,1086961,
3764,7976,10360,581,1221,-11300,32000,-7000,260000,1086963,
3100,7912,10308,68,861,-11460,32000,-6000,259000,1086976,
2940,7860,10212,43,755,-11424,32000,-6000,259000,1086978,
2948,7764,10320,1,642,-11431,32000,-6000,259000,1086981,
2544,7668,9992,-266,131,-11527,32000,-5000,258000,1086993,
2516,7812,10008,-390,57,-11599,32000,-5000,258000,1086996,
2624,7624,9772,-557,-5,-11692,32000,-5000,258000,1086998,
2508,7840,9524,-822,186,-11771,32000,-4000,257000,1087011,
2616,7836,9428,-870,248,-11924,32000,-4000,257000,1087013,
2472,7856,9452,-925,329,-11844,32000,-4000,256000,1087015,
2204,7940,8864,-1622,1461,-11752,32000,-3000,256000,1087028,
2044,7976,8868,-1759,1655,-11682,32000,-3000,255000,1087030,
1852,7896,8928,-1917,1946,-11669,32000,-3000,255000,1087033,
908,7700,9408,-2317,2883,-11104,32000,-2000,255000,1087045,
632,7604,9628,-2457,2987,-11011,32000,-2000,254000,1087048,
440,7680,9636,-2569,3100,-10927,32000,-2000,254000,1087050,
-324,7920,9840,-2973,3079,-10346,32000,-1000,254000,1087063,
-496,7964,9972,-3037,3043,-10307,32000,-1000,253000,1087065,
-624,8052,9884,-3119,2990,-10166,32000,-1000,253000,1087067,
-1540,8208,9452,-3523,2908,-9796,32000,0,253000,1087080,
-1664,8224,9424,-3676,2932,-9690,32000,0,253000,1087082,
-1804,8168,9336,-3776,3028,-9676,31000,0,252000,1087085,
-2432,8300,9388,-4412,3126,-9163,31000,0,252000,1087097,
-2392,8376,9592,-4503,3189,-9073,31000,0,252000,1087100,
-2472,8196,9556,-4586,3121,-8941,31000,0,252000,1087102,
-3492,7968,10056,-5133,3263,-8168,30000,1000,251000,1087115,
-3680,7736,10328,-5200,3234,-7958,30000,1000,251000,1087117,
-3872,7684,10152,-5303,3309,-7761,30000,1000,251000,1087119,
-4976,7544,10252,-5805,3835,-6705,30000,2000,251000,1087132,
-5088,7488,10368,-5965,3976,-6492,30000,2000,250000,1087134,
-5336,7392,10376,-6044,4176,-6321,30000,2000,250000,1087137,
-6008,7412,10336,-6220,4776,-5192,29000,3000,250000,1087150,
-5976,7420,10264,-6197,4865,-5026,29000,3000,250000,1087152,
-6000,7440,10540,-6127,4785,-4814,29000,3000,250000,1087154,
-5540,7776,10796,-6103,3841,-3978,28000,4000,250000,1087167,
-5552,7840,10792,-6064,3465,-3832,28000,4000,250000,1087169,
-5480,7932,10716,-6094,3090,-3702,28000,4000,250000,1087172,
-5000,8412,11160,-6177,1327,-3226,27000,5000,250000,1087184,
-4964,8424,11160,-6232,1105,-3130,27000,5000,250000,1087187,
-4844,8472,10988,-6307,996,-3109,27000,5000,250000,1087189,
-4752,8316,10932,-6538,1202,-2672,27000,5000,249000,1087202,
-4732,8224,11048,-6584,1432,-2622,26000,5000,249000,1087204,
-4780,8072,11168,-6576,1659,-2450,26000,5000,249000,1087207,
-4948,8060,11104,-6856,3155,-1790,26000,6000,249000,1087219,
-4892,7972,11176,-6857,3330,-1570,26000,6000,249000,1087222,
-4792,7912,11268,-6875,3523,-1415,26000,6000,249000,1087224,
-5076,8324,11976,-7130,3722,-423,25000,6000,250000,1087237,
-5064,8392,12208,-7233,3714,-243,25000,6000,250000,1087239,
-5236,8528,12360,-7315,3745,-98,25000,6000,250000,1087241,
-6096,8628,12388,-7698,3803,739,24000,7000,250000,1087254,
-6320,8652,12668,-7673,3826,816,24000,7000,250000,1087256,
-6256,8692,12596,-7766,3863,941,24000,7000,250000,1087259,
-6872,8160,13276,-8107,3965,1502,23000,7000,250000,1087271,
-6772,8120,13300,-8156,3800,1590,23000,7000,250000,1087274,
-6884,7972,13368,-8239,3605,1724,23000,7000,250000,1087276,
-6748,7532,14252,-8115,1934,2311,22000,8000,251000,1087289,
-6788,7620,14380,-8105,1559,2455,22000,8000,251000,1087291,
-6844,7656,14356,-8059,1214,2546,22000,8000,251000,1087293,
-7204,7752,14500,-8004,151,3366,21000,8000,251000,1087306,
-7080,7780,14620,-7987,60,3544,21000,8000,251000,1087308,
-7184,7684,14968,-7997,520,4699,20000,8000,252000,1087321,
-7168,7608,14900,-7919,661,4859,20000,8000,252000,1087323,
-7052,7620,14968,-7879,817,5092,20000,8000,252000,1087326,
-6648,7404,15464,-7724,1711,5868,19000,8000,252000,1087338,
-6584,7352,15544,-7716,1776,5949,19000,8000,252000,1087341,
-6392,7208,15764,-7726,1888,6040,19000,8000,253000,1087343,
-6216,7144,16572,-7507,1995,6398,19000,8000,253000,1087356,
-6208,7028,16780,-7490,2028,6461,18000,8000,253000,1087358,
-6208,7120,16912,-7456,2003,6590,18000,8000,253000,1087360,
-6592,7408,17316,-7203,1988,7198,18000,8000,254000,1087373,
-6600,7328,17308,-7079,1947,7413,18000,8000,254000,1087376,
-6760,7312,17508,-6851,2035,7558,18000,8000,254000,1087378,
-7088,7484,17428,-6638,1672,8322,17000,8000,255000,1087391,
-6876,7372,17240,-6558,1653,8437,17000,8000,255000,1087393,
-6856,7348,17244,-6559,1537,8556,17000,8000,256000,1087395,
-5976,7164,17156,-6126,506,8975,16000,8000,256000,1087408,
-5840,6992,17092,-6061,276,9039,16000,8000,257000,1087411,
-5736,7064,17136,-5955,51,9095,16000,8000,257000,1087413,
-4732,7072,17088,-5692,-510,9317,16000,7000,258000,1087425,
-4476,7140,17084,-5588,-536,9368,16000,7000,258000,1087428,
-4344,7116,17356,-5534,-452,9398,16000,7000,258000,1087430,
-3884,7004,17624,-5352,190,9787,15000,7000,259000,1087443,
-4032,6876,17524,-5362,330,9874,15000,7000,259000,1087445,
-3932,6872,17520,-5407,553,10010,15000,7000,259000,1087447,
-3980,6660,17952,-5282,1567,10574,15000,7000,260000,1087460,
-4156,6672,17948,-5237,1731,10703,15000,7000,261000,1087463,
-4016,6488,18096,-5167,1825,10789,15000,7000,261000,1087465,
-3864,6340,18492,-4962,1300,11082,14000,7000,262000,1087478,
-3804,6412,18740,-4900,1027,11075,14000,7000,262000,1087480,
-3912,6368,18732,-4837,737,11104,14000,7000,262000,1087482,
-3388,6520,18372,-4349,-769,11123,14000,6000,263000,1087495,
-3408,6424,18256,-4335,-996,11106,14000,6000,263000,1087497,
-3352,6540,18400,-4259,-1186,11115,14000,6000,264000,1087500,
-2796,6476,18148,-3947,-1978,11112,14000,6000,265000,1087512,
-2568,6508,18236,-3923,-2022,11110,14000,6000,265000,1087515,
-2456,6436,18264,-3828,-2071,11102,14000,6000,265000,1087517,
-1360,6216,18420,-3550,-2083,11141,13000,5000,266000,1087530,
-1272,6164,18380,-3468,-2112,11104,13000,5000,266000,1087532,
-1068,6248,18352,-3455,-2143,11099,13000,5000,266000,1087535,
-256,5896,18468,-3117,-2254,11110,13000,4000,267000,1087547,
-252,5932,18568,-3052,-2234,11109,13000,4000,268000,1087550,
-108,5836,18376,-2953,-2138,11136,13000,4000,268000,1087552,
380,5736,18508,-2515,-1602,10975,13000,4000,269000,1087565,
560,5780,18396,-2479,-1484,10954,13000,4000,269000,1087567,
560,5636,18328,-2389,-1355,10929,13000,4000,269000,1087570,
772,5644,18564,-2121,-873,10735,13000,3000,270000,1087582,
856,5668,18532,-2062,-824,10694,13000,3000,270000,1087585,
940,5748,18608,-2055,-783,10601,13000,3000,271000,1087587,
1348,5564,18408,-1757,-753,10221,13000,3000,271000,1087600,
1576,5600,18416,-1690,-767,10148,13000,3000,272000,1087602,
1660,5636,18356,-1634,-787,10074,13000,3000,272000,1087604,
1868,5420,17852,-1346,-744,9616,13000,2000,273000,1087617,
2004,5480,17768,-1350,-678,9547,13000,2000,273000,1087619,
1912,5536,17856,-1262,-585,9465,13000,2000,273000,1087622,
1912,5240,17572,-1183,-52,9119,13000,2000,274000,1087634,
2052,5348,17544,-1111,32,9067,12000,2000,274000,1087637,
2060,5388,17652,-1078,51,8990,12000,2000,274000,1087639,
2216,5052,17396,-782,-27,8713,12000,2000,275000,1087652,
2296,4992,17576,-747,-111,8645,12000,2000,275000,1087654,
2228,4896,17380,-690,-150,8567,12000,1000,275000,1087656,
2440,4536,17400,-396,-272,8246,12000,1000,276000,1087669,
2308,4560,17268,-344,-252,8147,12000,1000,276000,1087671,
2248,4528,17316,-266,-240,8065,12000,1000,276000,1087674,
2504,4536,16996,-43,-203,7676,12000,1000,277000,1087686,
2436,4620,16940,49,-189,7568,12000,1000,277000,1087689,
2524,4636,16940,76,-210,7506,12000,1000,277000,1087691,
2968,4704,16700,241,-203,7033,13000,1000,278000,1087704,
2916,4648,16744,288,-245,6953,13000,1000,278000,1087706,
2952,4684,16644,234,-240,6874,13000,0,278000,1087708,
3024,4620,16492,389,-288,6452,13000,0,279000,1087721,
3072,4632,16552,432,-230,6393,13000,0,279000,1087723,
3128,4732,16480,456,-221,6316,13000,0,279000,1087726,
3148,4532,16392,444,-206,6255,13000,0,279000,1087728,
3192,4572,16192,456,-73,5760,13000,0,280000,1087744,
3200,4672,16008,497,-68,5666,13000,0,280000,1087747,
3128,4720,16064,480,-111,5611,13000,0,280000,1087749,
3144,4772,15984,448,-405,5204,13000,0,281000,1087762,
3108,4924,16028,439,-507,5114,13000,0,281000,1087764,
3184,4920,15932,379,-537,5062,13000,0,281000,1087767,
3044,4920,15988,398,-601,4962,13000,0,281000,1087769,
3112,5184,15668,231,-633,4587,13000,0,281000,1087782,
3096,5200,15568,216,-580,4495,13000,0,281000,1087784,
3088,5244,15796,169,-598,4382,13000,0,281000,1087786,
2968,5208,15496,20,-455,3865,13000,0,282000,1087799,
3000,4948,15432,-25,-462,3776,13000,0,282000,1087802,
2940,4964,15356,-92,-470,3693,13000,0,282000,1087804,
3000,4988,15480,-88,-430,3604,13000,0,282000,1087806,
3168,4816,15344,-236,-851,3274,13000,0,282000,1087819,
3088,4836,15404,-241,-938,3187,13000,0,282000,1087821,
3132,4816,15228,-229,-1100,3151,13000,-1000,282000,1087824,
3024,4820,15172,-416,-1405,2848,13000,-1000,283000,1087836,
3040,4948,15152,-487,-1438,2813,13000,-1000,283000,1087839,
2984,4908,15264,-552,-1445,2785,13000,-1000,283000,1087841,
2800,5008,15104,-771,-1299,2571,13000,-1000,283000,1087854,
2896,4976,15248,-850,-1328,2558,13000,-1000,283000,1087856,
2932,5040,15252,-848,-1339,2486,13000,-1000,283000,1087858,
3140,4848,15304,-933,-1935,2236,13000,-1000,283000,1087871,
3088,4836,15256,-926,-2067,2108,13000,-2000,283000,1087873,
3036,4900,15164,-951,-2161,2088,13000,-2000,283000,1087876,
3232,4796,15148,-977,-2459,1696,13000,-2000,283000,1087888,
3332,4656,15184,-1011,-2499,1661,13000,-2000,283000,1087891,
3324,4716,15028,-1051,-2498,1594,13000,-2000,283000,1087893,
3392,4672,14956,-1108,-2366,1469,13000,-2000,283000,1087906,
3440,4808,14920,-1143,-2279,1452,13000,-2000,283000,1087908,
3468,4772,15180,-1133,-2186,1422,13000,-2000,283000,1087911,
3336,4716,15204,-1251,-1708,1380,12000,-3000,284000,1087923,
3208,4772,15088,-1211,-1651,1330,12000,-3000,284000,1087926,
3252,4856,15060,-1275,-1602,1329,12000,-3000,284000,1087928,
3280,4720,15084,-1164,-1518,1157,12000,-3000,284000,1087941,
3176,4616,14880,-1192,-1576,1092,12000,-3000,284000,1087943,
3412,4596,14972,-1193,-1652,1073,12000,-3000,284000,1087945,
3520,4636,14956,-1090,-1964,947,12000,-3000,284000,1087958,
3624,4580,14848,-1076,-1961,863,12000,-3000,284000,1087960,
3644,4708,14948,-1049,-1961,861,12000,-3000,284000,1087963,
3880,4632,14964,-1095,-1506,750,12000,-4000,284000,1087976,
3808,4756,14920,-1073,-1436,737,12000,-4000,284000,1087978,
3888,4764,15060,-1122,-1349,734,12000,-4000,284000,1087980,
3984,4796,15000,-1082,-1019,665,12000,-4000,284000,1087993,
3984,4964,15108,-1082,-953,641,12000,-4000,284000,1087995,
3912,4924,15172,-1091,-893,600,12000,-4000,284000,1087998,
3900,4968,14912,-1034,-660,437,12000,-4000,284000,1088011,
3716,4936,15028,-1027,-605,397,12000,-4000,284000,1088013,
3748,5012,15060,-976,-606,352,12000,-4000,284000,1088015,
3796,5056,14888,-931,-623,168,12000,-4000,284000,1088028,
3736,5024,14840,-903,-685,167,12000,-4000,284000,1088030,
3840,4944,14888,-909,-725,157,12000,-4000,284000,1088033,
3732,4820,14884,-764,-851,131,12000,-4000,284000,1088045,
3760,4948,14752,-830,-811,141,12000,-5000,284000,1088048,
3892,4964,14740,-834,-752,98,12000,-5000,284000,1088050,
3888,4980,14808,-823,-351,-31,12000,-5000,284000,1088063,
3884,5096,14704,-849,-202,-84,12000,-5000,284000,1088065,
3880,5060,14576,-847,-95,-95,12000,-5000,284000,1088067,
4032,5128,14816,-987,475,-304,12000,-5000,284000,1088080,
4016,5152,14792,-970,462,-317,12000,-5000,284000,1088082,
4012,5252,14816,-980,543,-332,12000,-5000,284000,1088085,
3776,5468,14728,-1076,646,-411,12000,-5000,284000,1088098,
3756,5288,14828,-1126,705,-434,12000,-5000,284000,1088100,
3728,5448,14704,-1141,733,-494,12000,-5000,284000,1088102,
3056,4944,14844,-1208,868,-473,11000,-5000,284000,1088119,
3120,4884,14852,-1262,818,-443,11000,-5000,284000,1088121,
3124,4892,14812,-1318,838,-492,11000,-5000,284000,1088123,
3332,4828,14824,-975,565,-706,11000,-5000,284000,1088136,
3212,4748,14860,-904,570,-742,11000,-5000,284000,1088138,
3344,4688,14844,-857,528,-756,11000,-5000,284000,1088141,
2976,4732,14928,-854,795,-689,11000,-4000,284000,1088153,
