Ax,Ay,Az,Gx,Gy,Gz,Roll,Pitch,Yaw,Timestamp,Target
-5316,-2264,15424,-284,1016,-491,-14000,27000,340000,1196477,
-5384,-2272,15324,-284,1017,-482,-14000,27000,340000,1196479,
-5848,-2200,15352,-346,461,-496,-14000,27000,340000,1196492,
-5760,-2268,15296,-377,430,-495,-14000,27000,340000,1196494,
-5676,-2268,15172,-374,296,-493,-14000,27000,340000,1196496,
-5164,-2128,15300,-488,185,-516,-14000,27000,340000,1196509,
-5052,-2116,15260,-473,182,-484,-14000,27000,340000,1196512,
-4924,-2088,15192,-497,289,-463,-14000,27000,340000,1196514,
-4772,-2128,15464,-473,727,-387,-14000,27000,340000,1196527,
-4764,-2108,15284,-489,822,-362,-14000,27000,340000,1196529,
-4760,-2200,15380,-471,937,-386,-14000,27000,340000,1196531,
-5232,-2144,15348,-498,1091,-273,-14000,27000,340000,1196544,
-5404,-2196,15192,-501,1105,-305,-14000,27000,340000,1196547,
-5400,-2104,15248,-476,1004,-278,-14000,27000,340000,1196549,
-5468,-2036,15256,-543,858,-313,-14000,27000,340000,1196562,
-5460,-2116,15252,-561,796,-299,-14000,27000,340000,1196564,
-5368,-2096,15244,-600,769,-299,-14000,27000,340000,1196566,
-5184,-2016,15304,-624,737,-278,-14000,27000,340000,1196579,
-5156,-2032,15404,-653,767,-281,-14000,27000,340000,1196582,
-5148,-2068,15364,-599,762,-294,-14000,27000,340000,1196584,
-5236,-2156,15332,-623,810,-251,-14000,27000,340000,1196597,
-5348,-2104,15364,-556,742,-272,-14000,27000,340000,1196599,
-5344,-2052,15336,-632,707,-244,-14000,27000,340000,1196601,
-5528,-2164,15292,-610,505,-261,-14000,27000,340000,1196614,
-5716,-2064,15268,-650,470,-248,-14000,27000,340000,1196616,
-5648,-2080,15448,-622,442,-251,-14000,27000,340000,1196619,
-5240,-2048,15180,-650,332,-253,-14000,27000,340000,1196632,
-5212,-1992,15136,-614,328,-258,-14000,27000,340000,1196634,
-5272,-2068,15200,-639,355,-239,-14000,27000,340000,1196636,
-5156,-2016,15320,-590,622,-201,-14000,27000,340000,1196649,
-5180,-2048,15428,-634,684,-208,-14000,27000,340000,1196651,
-5164,-2172,15244,-625,764,-189,-14000,27000,340000,1196654,
-5428,-2020,15456,-549,837,-150,-14000,27000,340000,1196667,
-5452,-2140,15300,-548,855,-177,-14000,27000,340000,1196669,
-5492,-2180,15456,-532,758,-159,-14000,27000,340000,1196671,
-6004,-2068,15304,-529,473,-164,-14000,27000,340000,1196684,
-5892,-2096,15528,-552,370,-182,-14000,27000,340000,1196686,
-5864,-2076,15396,-597,292,-180,-14000,27000,340000,1196689,
-5796,-2172,15576,-610,-9,-215,-14000,27000,340000,1196702,
-5608,-2172,15508,-619,19,-232,-14000,27000,340000,1196704,
-5544,-2112,15508,-547,-59,-239,-14000,27000,340000,1196706,
-5164,-2156,15408,-558,197,-286,-14000,27000,340000,1196719,
-5208,-2164,15520,-507,303,-272,-14000,27000,340000,1196722,
-5128,-2332,15480,-529,363,-236,-14000,27000,340000,1196724,
-5272,-2124,15444,-406,691,-186,-14000,27000,340000,1196737,
-5228,-2268,15624,-410,715,-180,-14000,27000,340000,1196739,
-5284,-2256,15404,-393,754,-197,-14000,27000,340000,1196741,
-5660,-2152,15552,-347,549,-122,-14000,27000,340000,1196754,
-5668,-2136,15488,-330,544,-165,-14000,27000,340000,1196756,
-5680,-2172,15448,-319,462,-133,-14000,27000,340000,1196759,
-5544,-2068,15540,-304,291,-134,-14000,27000,340000,1196772,
-5384,-2104,15324,-297,246,-119,-14000,27000,340000,1196774,
-5364,-2108,15348,-318,220,-103,-14000,27000,340000,1196777,
-5180,-2028,15368,-298,303,-113,-14000,27000,340000,1196789,
-5196,-2024,15388,-338,352,-109,-14000,27000,340000,1196792,
-5324,-2056,15444,-300,381,-101,-14000,27000,340000,1196794,
-5404,-1972,15432,-287,434,-77,-14000,27000,340000,1196807,
-5512,-1960,15264,-293,356,-65,-14000,27000,340000,1196809,
-5432,-2184,15424,-312,334,-28,-14000,27000,340000,1196812,
-5500,-2088,15420,-304,202,-26,-14000,27000,340000,1196824,
-5504,-2032,15340,-326,165,-13,-14000,27000,340000,1196827,
-5484,-2028,15316,-322,195,-25,-14000,27000,340000,1196829,
-5508,-2056,15404,-355,60,11,-14000,27000,340000,1196842,
-5444,-2028,15256,-355,78,-43,-14000,27000,340000,1196844,
-5512,-2028,15404,-321,63,19,-14000,27000,340000,1196847,
-5268,-2240,15524,-303,225,36,-14000,27000,340000,1196863,
-5368,-2240,15572,-304,344,30,-14000,27000,340000,1196865,
-5404,-2088,15620,-264,366,31,-14000,27000,340000,1196868,
-5288,-2236,15440,-213,652,24,-14000,27000,340000,1196880,
-5392,-2228,15432,-220,657,49,-14000,27000,340000,1196883,
-5304,-2208,15436,-212,736,63,-14000,27000,340000,1196885,
-5416,-2076,15380,-168,808,87,-14000,27000,340000,1196898,
-5488,-2136,15336,-146,856,56,-14000,27000,340000,1196900,
-5556,-2168,15348,-109,827,66,-14000,27000,340000,1196903,
-5504,-2176,15320,-105,755,27,-14000,27000,340000,1196915,
-5548,-2144,15132,-90,646,36,-14000,27000,340000,1196918,
-5612,-2060,15172,-134,625,43,-14000,27000,340000,1196920,
-5528,-1964,15164,-99,349,-8,-14000,27000,340000,1196933,
-5584,-2012,15120,-135,318,-21,-14000,27000,340000,1196935,
-5508,-2032,14996,-133,335,-49,-14000,27000,340000,1196938,
-5304,-2040,15116,-165,318,-65,-14000,27000,340000,1196950,
-5248,-1996,15184,-136,370,-109,-14000,27000,340000,1196953,
-5188,-1972,15124,-150,386,-86,-14000,27000,340000,1196955,
-5052,-1980,15116,-147,849,-150,-14000,27000,340000,1196968,
-5016,-1952,15200,-150,885,-162,-14000,27000,340000,1196970,
-5092,-2016,15284,-148,990,-134,-14000,27000,340000,1196973,
-5508,-2212,15124,-72,1150,-89,-14000,27000,340000,1196985,
-5604,-2068,15192,-54,1155,-101,-14000,27000,340000,1196988,
-5704,-2096,15264,-25,1104,-94,-14000,27000,340000,1196990,
-5988,-2256,15180,-5,815,-127,-14000,27000,340000,1197003,
-6032,-2240,15256,17,696,-112,-14000,27000,340000,1197005,
-6048,-2176,15160,-33,558,-122,-14000,27000,340000,1197008,
-5848,-1992,15184,-82,133,-211,-14000,27000,340000,1197020,
-5708,-2096,15232,-104,154,-231,-14000,27000,340000,1197023,
-5668,-2056,15348,-125,185,-263,-14000,27000,340000,1197025,
-5292,-2076,15160,-151,365,-211,-14000,27000,340000,1197038,
-5232,-2044,15316,-123,491,-223,-14000,27000,340000,1197040,
-5224,-2004,15100,-108,509,-192,-14000,27000,340000,1197043,
-5348,-2048,15168,-137,953,-162,-14000,27000,340000,1197055,
-5424,-2044,15124,-117,961,-152,-14000,27000,340000,1197058,
-5528,-1924,15116,-162,967,-116,-14000,27000,340000,1197060,
-5968,-2016,15180,-222,777,-56,-14000,27000,340000,1197073,
-5952,-2020,15068,-260,700,-46,-14000,27000,340000,1197075,
-6036,-2096,15140,-244,671,-46,-14000,27000,340000,1197077,
-5996,-1964,15064,-438,212,11,-14000,27000,340000,1197090,
-5956,-2000,15128,-457,202,6,-14000,27000,340000,1197092,
-5852,-1920,14960,-495,75,21,-14000,27000,340000,1197095,
-5480,-1852,14944,-586,30,41,-14000,27000,340000,1197107,
-5388,-1816,14932,-629,7,92,-14000,27000,340000,1197110,
-5284,-1872,14908,-636,24,77,-14000,27000,340000,1197112,
-5544,-1924,14904,-696,187,179,-14000,27000,340000,1197125,
-5468,-2040,15140,-704,245,188,-14000,27000,340000,1197127,
-5468,-1992,15044,-677,229,193,-14000,27000,340000,1197130,
-5560,-1960,14908,-831,143,224,-14000,27000,340000,1197143,
-5536,-1948,14748,-818,103,245,-14000,27000,340000,1197145,
-5624,-1780,14912,-849,41,230,-14000,27000,340000,1197147,
-5496,-1944,14976,-945,-85,226,-14000,27000,340000,1197160,
-5560,-1888,15160,-999,-81,206,-14000,27000,340000,1197163,
-5516,-1872,15108,-988,-21,207,-14000,27000,340000,1197165,
-5428,-2056,15116,-1074,79,203,-14000,27000,340000,1197178,
-5412,-2176,15244,-1046,98,162,-14000,27000,340000,1197180,
-5376,-2044,15160,-1032,46,197,-14000,27000,340000,1197182,
-5644,-2108,15204,-1009,15,174,-14000,27000,340000,1197195,
-5680,-2152,15164,-1030,-23,190,-14000,27000,340000,1197198,
-5728,-2308,15136,-1051,-42,158,-14000,27000,340000,1197200,
-5720,-2220,15160,-1007,-125,173,-14000,27000,340000,1197213,
-5804,-2132,15288,-1039,-144,173,-14000,27000,340000,1197215,
-5780,-2176,15304,-1028,-82,134,-14000,27000,340000,1197218,
-5552,-2196,15332,-1006,12,152,-14000,26000,340000,1197230,
-5548,-2224,15260,-961,68,120,-14000,26000,340000,1197233,
-5424,-2268,15280,-961,87,138,-14000,26000,340000,1197235,
-5504,-2404,15300,-846,529,192,-14000,26000,340000,1197251,
-5472,-2272,15296,-859,607,179,-14000,26000,340000,1197254,
-5532,-2208,15396,-841,605,204,-14000,26000,340000,1197256,
-5816,-2140,15248,-818,538,130,-14000,26000,340000,1197269,
-5880,-2156,15040,-783,462,155,-14000,26000,340000,1197271,
-5960,-2076,15176,-818,422,137,-14000,26000,340000,1197274,
-5940,-2124,15340,-745,208,119,-14000,26000,340000,1197286,
-5808,-2136,15340,-790,138,126,-14000,26000,340000,1197289,
-5828,-2188,15188,-798,128,85,-14000,26000,340000,1197291,
-5616,-2264,15132,-750,4,110,-14000,26000,340000,1197304,
-5660,-2136,15084,-700,47,91,-14000,26000,340000,1197306,
-5560,-2088,15076,-728,42,98,-14000,26000,340000,1197309,
-5496,-2100,15180,-688,269,103,-14000,26000,340000,1197321,
-5416,-2164,15168,-689,312,118,-14000,26000,340000,1197324,
-5424,-2040,15136,-710,390,146,-14000,26000,340000,1197326,
-5488,-2132,15216,-682,537,106,-14000,26000,340000,1197339,
-5516,-2052,15152,-730,587,87,-14000,26000,340000,1197341,
-5532,-2108,15116,-666,549,74,-14000,26000,340000,1197344,
-5844,-2032,15168,-671,419,85,-15000,26000,340000,1197356,
-5892,-2056,15204,-632,324,114,-15000,26000,340000,1197359,
-5868,-2144,15104,-667,264,108,-15000,26000,340000,1197361,
-5832,-1888,15124,-742,-54,5,-15000,26000,340000,1197374,
-5796,-1976,15152,-750,-76,-31,-15000,26000,340000,1197376,
-5660,-1972,15256,-749,-44,-51,-15000,26000,340000,1197379,
-5264,-1896,15200,-782,183,-69,-15000,26000,340000,1197391,
-5168,-2008,15284,-765,276,-78,-15000,26000,340000,1197394,
-5140,-2020,15292,-790,323,-25,-15000,26000,340000,1197396,
-5288,-1888,15408,-716,851,-40,-15000,26000,340000,1197409,
-5328,-2004,15276,-754,881,-4,-15000,26000,340000,1197411,
-5364,-1952,15168,-774,946,-22,-15000,26000,340000,1197414,
-5820,-1876,15336,-754,874,-5,-15000,26000,340000,1197426,
-5912,-1980,15232,-753,875,-10,-15000,26000,340000,1197429,
-5804,-1948,15136,-689,790,22,-15000,26000,340000,1197431,
-5948,-1972,15248,-698,432,37,-15000,26000,340000,1197444,
-5920,-1972,15388,-706,286,38,-15000,26000,340000,1197446,
-6040,-1864,15248,-727,213,58,-15000,26000,340000,1197448,
-5788,-1944,15140,-729,-100,83,-15000,26000,340000,1197461,
-5784,-1832,15188,-758,-105,123,-15000,26000,340000,1197463,
-5696,-1932,15100,-739,-81,140,-15000,26000,340000,1197466,
-5404,-1852,15196,-757,95,210,-15000,26000,340000,1197478,
-5328,-1804,15356,-703,169,199,-15000,26000,340000,1197481,
-5384,-1780,15124,-762,242,232,-15000,26000,340000,1197483,
-5348,-1916,15208,-757,591,262,-15000,26000,341000,1197496,
-5428,-1944,15224,-789,636,308,-15000,26000,341000,1197498,
-5516,-2060,15200,-769,701,291,-15000,26000,341000,1197501,
-5864,-2200,15232,-741,642,395,-15000,26000,341000,1197513,
-5900,-2128,15288,-723,612,405,-15000,26000,341000,1197516,
-6028,-2048,15248,-685,520,394,-15000,26000,341000,1197518,
-6152,-2196,15444,-710,27,316,-15000,26000,341000,1197531,
-6180,-2052,15128,-668,-104,325,-15000,26000,341000,1197533,
-6176,-2172,15284,-742,-196,326,-15000,26000,341000,1197536,
-5872,-2304,15368,-652,-432,342,-15000,26000,341000,1197548,
-5816,-2236,15268,-654,-398,343,-15000,26000,341000,1197551,
-5704,-2344,15312,-634,-358,318,-15000,26000,341000,1197553,
-5256,-2248,15360,-582,86,349,-15000,26000,341000,1197566,
-5216,-2248,15356,-529,196,321,-15000,26000,341000,1197568,
-5264,-2308,15404,-562,303,345,-15000,26000,341000,1197571,
-5324,-2356,15312,-470,786,343,-15000,26000,341000,1197583,
-5552,-2316,15204,-501,835,410,-15000,26000,341000,1197586,
-5520,-2212,15188,-497,895,347,-15000,26000,341000,1197588,
-5736,-2272,15196,-453,930,405,-15000,26000,341000,1197601,
-5880,-2272,15016,-448,912,331,-15000,26000,341000,1197603,
-5896,-2352,15176,-401,818,360,-15000,26000,341000,1197606,
-6060,-2180,15208,-434,349,265,-15000,26000,341000,1197618,
-6052,-2344,15040,-455,194,299,-15000,26000,341000,1197621,
-6176,-2312,15112,-457,68,272,-15000,26000,341000,1197623,
-6052,-2372,15060,-421,-312,256,-15000,26000,341000,1197636,
-5888,-2356,15004,-459,-351,287,-15000,26000,341000,1197638,
-5904,-2240,15068,-449,-333,262,-15000,26000,341000,1197641,
-5336,-2304,15132,-475,-88,231,-15000,26000,341000,1197653,
-5196,-2244,15160,-490,75,197,-15000,26000,341000,1197656,
-5052,-2164,15208,-471,123,255,-15000,26000,341000,1197658,
-5100,-2308,15112,-471,829,248,-15000,26000,341000,1197671,
-5108,-2320,14916,-452,921,267,-15000,26000,341000,1197673,
-5288,-2320,15136,-464,1028,298,-15000,26000,341000,1197676,
-5696,-2316,14988,-400,1143,280,-15000,26000,341000,1197689,
-5844,-2176,15084,-438,1096,255,-15000,26000,341000,1197691,
-5920,-2100,14936,-421,1021,216,-15000,26000,341000,1197693,
-6300,-2148,14940,-502,229,152,-15000,26000,341000,1197706,
-6340,-2240,15096,-517,56,127,-15000,26000,341000,1197708,
-6372,-2372,14928,-529,-117,157,-15000,26000,341000,1197711,
-5972,-2256,15012,-599,-703,102,-15000,26000,341000,1197724,
-5936,-2160,14872,-660,-746,86,-15000,26000,341000,1197726,
-5664,-2084,14968,-692,-749,43,-15000,26000,341000,1197728,
-5280,-2224,15072,-693,-394,22,-15000,26000,341000,1197741,
-5088,-2160,15068,-670,-250,-23,-15000,26000,341000,1197743,
-4984,-2244,15036,-663,-93,41,-15000,26000,341000,1197746,
-4964,-2344,15328,-628,832,60,-15000,26000,341000,1197758,
-5088,-2388,15236,-608,940,92,-15000,26000,341000,1197761,
-5680,-2308,15268,-546,1374,70,-15000,26000,341000,1197773,
-5640,-2276,15136,-541,1260,69,-15000,26000,341000,1197776,
-5872,-2364,15196,-588,1236,91,-15000,26000,341000,1197778,
-6368,-2400,15248,-514,696,116,-15000,26000,341000,1197791,
-6268,-2372,15192,-533,610,101,-15000,26000,341000,1197793,
-6284,-2556,15184,-526,498,94,-15000,26000,341000,1197796,
-6188,-2212,15348,-575,-158,45,-15000,26000,341000,1197808,
-6060,-2308,15348,-530,-223,60,-15000,26000,341000,1197811,
-6020,-2324,15304,-569,-291,20,-15000,26000,341000,1197813,
-5448,-2332,15336,-535,-106,10,-15000,26000,341000,1197826,
-5408,-2208,15400,-537,0,73,-15000,26000,341000,1197828,
-5340,-2332,15408,-559,120,73,-15000,26000,341000,1197831,
-5260,-2220,15308,-504,745,115,-15000,26000,341000,1197843,
-5332,-2276,15348,-493,850,124,-15000,26000,341000,1197846,
-5280,-2236,15392,-456,970,121,-15000,26000,341000,1197848,
-5816,-2236,15324,-433,1162,118,-15000,26000,341000,1197861,
-5844,-2204,15316,-393,1102,114,-15000,26000,341000,1197863,
-5920,-2276,15180,-421,1094,117,-15000,26000,341000,1197866,
-6068,-2208,15176,-354,588,71,-15000,26000,341000,1197878,
-6148,-2276,15264,-430,457,71,-15000,26000,341000,1197881,
-6124,-2240,15164,-425,373,35,-15000,26000,341000,1197883,
-6040,-2168,14992,-406,-129,-19,-15000,26000,341000,1197896,
-6016,-2216,15168,-417,-174,-27,-15000,26000,341000,1197898,
-5880,-2216,15268,-385,-227,-21,-15000,26000,341000,1197901,
-5512,-2092,15088,-396,-95,-51,-15000,26000,341000,1197913,
-5276,-2264,15232,-405,-17,-91,-15000,26000,341000,1197916,
-5316,-2060,15364,-430,94,-80,-15000,26000,341000,1197918,
-5216,-2144,15188,-356,613,-94,-15000,26000,341000,1197931,
-5184,-2108,15112,-346,739,-89,-15000,26000,341000,1197933,
-5292,-2172,15164,-319,801,-76,-15000,26000,341000,1197936,
-5908,-2268,15148,-256,977,-24,-15000,26000,341000,1197948,
-5968,-2260,15104,-250,891,0,-15000,26000,341000,1197951,
-5940,-2124,15192,-254,849,-9,-15000,26000,341000,1197953,
-6260,-2084,15128,-309,452,-6,-15000,26000,341000,1197966,
-6164,-2104,15084,-309,389,7,-15000,26000,341000,1197968,
-6104,-2120,15096,-253,288,11,-15000,26000,341000,1197971,
-5988,-2112,15052,-324,111,-28,-15000,26000,342000,1197983,
-5800,-2152,15104,-302,76,-25,-15000,26000,342000,1197986,
-5776,-2204,15000,-312,53,-18,-15000,26000,342000,1197988,
-5712,-2204,15112,-313,284,10,-15000,26000,342000,1198001,
-5632,-2156,14980,-326,319,4,-15000,26000,342000,1198003,
-5672,-2036,15060,-333,389,-21,-15000,26000,342000,1198006,
-5672,-2100,15160,-310,606,6,-15000,26000,342000,1198018,
-5724,-2156,15092,-296,714,-41,-15000,26000,342000,1198021,
-5836,-2200,15092,-294,682,-13,-15000,26000,342000,1198023,
-5896,-2160,14928,-264,809,-48,-15000,26000,342000,1198036,
-5932,-2192,15264,-233,745,-27,-15000,26000,342000,1198038,
-5936,-2276,15156,-264,768,-27,-15000,26000,342000,1198041,
-6076,-2236,15048,-235,598,-44,-15000,26000,342000,1198053,
-5976,-2160,14988,-237,616,-56,-15000,26000,342000,1198056,
-6052,-2192,15132,-233,591,-70,-15000,26000,342000,1198058,
-6056,-2212,15228,-246,471,-69,-15000,26000,342000,1198071,
-6040,-2148,14944,-182,447,-37,-15000,26000,342000,1198073,
-5940,-2228,15068,-241,439,-31,-15000,26000,342000,1198076,
-5660,-2200,15056,-181,615,-70,-15000,26000,342000,1198088,
-5712,-2144,14988,-237,691,-71,-15000,26000,342000,1198091,
-5668,-2144,15116,-207,791,-47,-15000,26000,342000,1198093,
-5660,-2264,15192,-150,1162,-12,-15000,26000,342000,1198106,
-5596,-2272,15152,-177,1182,20,-15000,26000,341000,1198108,
-5888,-2168,14988,-123,1155,-10,-15000,27000,341000,1198111,
-6360,-2320,15028,-137,938,20,-15000,27000,341000,1198123,
-6400,-2236,14936,-125,778,46,-15000,27000,341000,1198126,
-6464,-2136,14992,-167,690,62,-15000,27000,341000,1198128,
-6272,-2112,14888,-151,211,-4,-15000,27000,342000,1198141,
-6216,-2196,14964,-210,210,14,-15000,27000,342000,1198143,
-6008,-2104,14944,-212,204,-27,-15000,27000,342000,1198145,
-5620,-2180,14948,-235,345,-39,-15000,27000,342000,1198158,
-5548,-2244,15052,-233,460,-51,-15000,27000,342000,1198161,
-5560,-2176,15024,-178,548,-42,-15000,27000,342000,1198163,
-5316,-2024,14956,-298,1269,1,-15000,27000,342000,1198176,
-5404,-2132,14864,-297,1350,-9,-15000,27000,342000,1198178,
-5380,-2176,14976,-325,1531,21,-15000,27000,341000,1198181,
-5488,-2024,14816,-574,2189,9,-15000,27000,341000,1198193,
-5504,-1840,15056,-628,2283,-33,-15000,27000,341000,1198196,
-5652,-2080,15016,-660,2333,-5,-15000,27000,341000,1198198,
-5696,-2424,15300,-591,2962,-123,-15000,27000,341000,1198215,
-5752,-2464,15264,-492,2929,-122,-15000,27000,341000,1198217,
-5960,-2512,15104,-443,2696,-112,-15000,27000,341000,1198220,
-7380,-2440,14952,-339,1477,-123,-15000,27000,341000,1198232,
-7524,-2504,15124,-258,1097,-119,-15000,27000,341000,1198235,
-7648,-2480,15060,-269,713,-126,-15000,27000,341000,1198237,
-7700,-2196,15012,-291,-1150,-255,-15000,27000,341000,1198250,
-7420,-2288,15148,-309,-1408,-285,-15000,27000,341000,1198252,
-7208,-2148,14948,-331,-1610,-340,-15000,27000,341000,1198254,
-5760,-2196,15100,-368,-1793,-417,-15000,27000,341000,1198267,
-5372,-2152,15068,-321,-1615,-421,-15000,27000,341000,1198270,
-5148,-2132,15112,-345,-1430,-384,-15000,27000,341000,1198272,
-4536,-2172,15248,-217,425,-174,-15000,27000,341000,1198285,
-4580,-2244,15192,-140,769,-150,-15000,27000,341000,1198287,
-4512,-2236,15188,-154,1113,-90,-15000,27000,341000,1198289,
-5484,-2152,15092,-71,2228,-44,-15000,27000,341000,1198302,
-5772,-2156,15096,-115,2259,-43,-15000,27000,341000,1198304,
-6000,-2076,14888,-116,2269,-59,-15000,27000,341000,1198307,
-7172,-2060,14900,-133,1478,-25,-15000,27000,341000,1198320,
-7268,-2248,14944,-138,1243,-70,-15000,27000,341000,1198322,
-7220,-2272,14976,-71,900,-43,-15000,27000,341000,1198324,
-7748,-2296,14896,-262,-1143,-118,-15000,27000,341000,1198337,
-7696,-2212,14980,-249,-1542,-132,-15000,27000,341000,1198340,
-7572,-2248,14904,-270,-1861,-179,-15000,27000,341000,1198342,
-6820,-2124,14992,-258,-3028,-205,-15000,27000,341000,1198355,
-6660,-2268,14744,-297,-3076,-195,-15000,27000,341000,1198357,
-6272,-2100,14988,-280,-3080,-230,-15000,27000,341000,1198360,
-4916,-2088,14996,-312,-2224,-168,-14000,26000,341000,1198372,
-4648,-2064,15200,-275,-1906,-178,-14000,26000,341000,1198375,
-4616,-1960,15192,-279,-1596,-152,-14000,26000,341000,1198377,
-4292,-2156,15060,-177,445,-55,-14000,26000,341000,1198390,
-4364,-2020,15124,-216,803,-13,-14000,26000,341000,1198392,
-4536,-2088,15204,-170,1146,40,-14000,26000,341000,1198395,
-5352,-1920,14688,-214,2317,40,-14000,27000,341000,1198407,
-5468,-1880,14776,-185,2455,9,-14000,27000,341000,1198410,
-5556,-1980,14692,-147,2524,4,-14000,27000,341000,1198412,
-5816,-1916,14612,-207,2624,-136,-14000,27000,341000,1198425,
-5912,-1960,14560,-189,2530,-138,-14000,27000,341000,1198427,
-5948,-2016,14640,-231,2501,-160,-14000,27000,341000,1198430,
-5804,-2096,14728,-244,2407,-281,-14000,27000,341000,1198442,
-5860,-2140,14632,-271,2434,-282,-14000,27000,341000,1198445,
-5972,-2156,14800,-260,2511,-312,-14000,27000,341000,1198447,
-5548,-2016,14628,-329,3101,-343,-15000,27000,341000,1198460,
-5412,-1952,14608,-370,3387,-363,-15000,27000,341000,1198462,
-5408,-2060,14512,-363,3589,-374,-15000,27000,341000,1198465,
-4724,-1976,14408,-415,5479,-366,-15000,28000,341000,1198478,
-4720,-2048,14432,-432,5838,-364,-15000,28000,341000,1198480,
-4668,-1956,14496,-443,6348,-329,-15000,28000,341000,1198482,
-4768,-2184,14500,-472,9107,-212,-15000,29000,341000,1198495,
-4764,-2008,14716,-482,9704,-181,-15000,29000,341000,1198498,
-4972,-2092,14496,-512,10277,-173,-15000,29000,340000,1198500,
-4840,-1968,14592,-734,14120,64,-15000,30000,340000,1198513,
-4684,-2000,14460,-705,14941,110,-15000,31000,340000,1198515,
-4684,-2092,14340,-743,15687,172,-15000,31000,340000,1198518,
-4808,-2148,13828,-697,19945,272,-16000,33000,339000,1198530,
-4920,-2128,13512,-748,20700,298,-16000,33000,339000,1198533,
-5388,-1956,12604,-749,24831,428,-16000,35000,338000,1198546,
-5644,-1984,12512,-808,25572,467,-16000,36000,338000,1198548,
-5840,-1940,12380,-804,26361,459,-16000,36000,338000,1198551,
-6632,-1520,11172,-984,29402,591,-17000,39000,337000,1198563,
-6808,-1516,11112,-990,30021,607,-17000,40000,337000,1198566,
-7312,-1408,10364,-1200,32378,507,-18000,43000,336000,1198579,
-7372,-1244,10116,-1183,32628,428,-18000,43000,336000,1198581,
-7412,-1260,9924,-1275,32767,387,-18000,44000,335000,1198584,
-7940,-1092,9184,-1639,32767,-108,-19000,47000,334000,1198596,
-8000,-1148,9208,-1703,32767,-182,-20000,47000,334000,1198599,
-8032,-1164,8868,-1724,32767,-299,-20000,48000,333000,1198601,
-8008,-1256,7984,-1970,32767,-867,-22000,51000,331000,1198614,
-8008,-1264,7736,-1994,32767,-1000,-22000,51000,331000,1198616,
-8012,-1288,7344,-2060,32767,-1119,-22000,52000,331000,1198619,
-8104,-1408,6808,-2153,32767,-1833,-24000,55000,328000,1198632,
-8220,-1544,6700,-2203,32767,-1930,-25000,55000,328000,1198634,
-8280,-1428,6496,-2212,32767,-2075,-25000,56000,327000,1198637,
-8828,-1912,5568,-2173,32767,-2653,-28000,59000,324000,1198649,
-9140,-1920,5428,-2168,32767,-2767,-29000,59000,323000,1198652,
-10404,-2568,4600,-2029,32767,-3250,-32000,62000,319000,1198665,
-10636,-2828,4280,-1955,32767,-3360,-33000,62000,318000,1198667,
-11000,-2948,4052,-1851,32767,-3487,-34000,63000,318000,1198670,
-12664,-3472,2560,-1660,32767,-4194,-39000,65000,312000,1198682,
-12932,-3684,2488,-1604,32767,-4285,-40000,65000,311000,1198685,
-13272,-3860,2164,-1522,32767,-4368,-41000,66000,310000,1198687,
-14464,-4116,1092,-1076,32767,-4675,-48000,68000,303000,1198700,
-14644,-4252,764,-1037,32767,-4748,-49000,68000,302000,1198702,
-15648,-4268,-848,-659,32767,-4952,-57000,70000,293000,1198715,
-15764,-4396,-976,-550,32767,-4935,-59000,70000,292000,1198718,
-15744,-4416,-1312,-439,32767,-4930,-60000,70000,290000,1198720,
-15864,-4364,-2724,-318,32767,-4402,-70000,71000,280000,1198733,
-16096,-4584,-2976,95,32767,-4220,-72000,71000,278000,1198735,
-16132,-4536,-3308,267,32767,-4100,-74000,72000,276000,1198738,
-16260,-4460,-4232,231,32767,-4017,-84000,72000,265000,1198750,
-16272,-4404,-4460,144,32767,-4011,-86000,72000,263000,1198753,
-16216,-4356,-4524,94,32767,-4003,-88000,72000,261000,1198755,
-16436,-4228,-5284,368,32767,-3987,-98000,71000,250000,1198768,
-16520,-4264,-5412,390,32767,-3926,-100000,71000,248000,1198771,
-17292,-4220,-6408,539,30331,-3497,-108000,70000,239000,1198783,
-17444,-4232,-6536,589,29726,-3452,-110000,70000,238000,1198786,
-17668,-4280,-6772,644,28882,-3348,-111000,69000,236000,1198788,
-17988,-4524,-7360,843,24363,-3156,-117000,68000,230000,1198801,
-18008,-4664,-7480,912,23274,-3124,-118000,68000,229000,1198804,
-18128,-4664,-7628,933,22312,-3115,-118000,68000,228000,1198806,
-18364,-4764,-8132,1214,17149,-3134,-122000,66000,225000,1198819,
-18424,-4852,-8396,1248,16137,-3121,-122000,66000,224000,1198821,
-18260,-4624,-8384,1517,11111,-2840,-124000,65000,222000,1198834,
-18052,-4604,-8352,1535,10189,-2793,-124000,65000,222000,1198836,
-18036,-4556,-8480,1624,9254,-2794,-124000,65000,222000,1198839,
-17468,-4532,-8572,1595,5368,-2572,-125000,65000,221000,1198852,
-17276,-4660,-8584,1619,4751,-2495,-125000,65000,221000,1198854,
-17036,-4596,-8764,1586,4261,-2429,-125000,64000,220000,1198857,
-16420,-4600,-8656,1421,2282,-2238,-126000,64000,220000,1198869,
-16156,-4588,-8616,1327,2026,-2192,-126000,64000,220000,1198872,
-15644,-4492,-8272,1199,1054,-1995,-126000,64000,220000,1198885,
-15528,-4396,-8276,1094,930,-1954,-126000,64000,220000,1198887,
-15504,-4432,-8268,1026,874,-1940,-126000,64000,220000,1198890,
-14992,-4288,-7960,772,584,-1690,-126000,64000,220000,1198902,
-14796,-4320,-7852,694,575,-1659,-126000,63000,220000,1198905,
-14712,-4260,-7884,674,549,-1580,-126000,63000,220000,1198907,
-14724,-4216,-7720,386,740,-1315,-126000,63000,220000,1198920,
-14868,-4252,-7588,339,680,-1247,-126000,63000,220000,1198922,
-14816,-4244,-7620,302,668,-1187,-126000,63000,220000,1198925,
-15080,-4408,-7280,197,81,-1023,-126000,63000,220000,1198938,
-15148,-4216,-7328,155,-79,-972,-126000,63000,220000,1198940,
-15284,-4436,-7436,144,-259,-932,-126000,63000,220000,1198943,
-15728,-4368,-7484,27,-1321,-559,-126000,63000,220000,1198955,
-15824,-4300,-7540,60,-1594,-496,-126000,63000,220000,1198958,
-15788,-4252,-7504,17,-1877,-428,-126000,63000,220000,1198960,
-16004,-4376,-7320,151,-3819,-253,-125000,63000,221000,1198974,
-16156,-4440,-7332,139,-4208,-232,-125000,63000,221000,1198976,
-16180,-4352,-7444,228,-6424,32,-124000,64000,222000,1198989,
-16304,-4412,-7572,212,-6872,107,-124000,64000,222000,1198992,
-16212,-4556,-7512,243,-7297,170,-124000,64000,222000,1198994,
-16544,-4540,-7552,270,-9562,480,-122000,64000,224000,1199007,
-16684,-4568,-7540,279,-10068,479,-122000,65000,224000,1199009,
-16780,-4568,-7428,267,-10580,537,-122000,65000,224000,1199012,
-16948,-4804,-7044,458,-13677,664,-119000,65000,227000,1199024,
-17056,-4640,-7172,453,-14410,683,-119000,66000,227000,1199027,
-17140,-4524,-6824,656,-17994,897,-115000,66000,231000,1199040,
-17164,-4508,-6748,681,-18694,916,-115000,67000,232000,1199042,
-17180,-4572,-6672,756,-19315,967,-114000,67000,233000,1199044,
-16868,-4600,-5864,945,-22757,1065,-109000,68000,238000,1199057,
-16752,-4448,-5860,995,-23329,1039,-108000,68000,239000,1199060,
-16796,-4496,-5780,1015,-23898,1039,-107000,68000,240000,1199062,
-16684,-4364,-4952,1235,-26617,886,-101000,69000,247000,1199075,
-16564,-4576,-4888,1235,-27178,853,-99000,69000,248000,1199077,
-16516,-4636,-4852,1317,-27695,856,-98000,69000,250000,1199080,
-16296,-4612,-4400,1326,-30777,821,-90000,69000,258000,1199093,
-16296,-4756,-4228,1389,-31350,838,-88000,69000,260000,1199095,
-16624,-4960,-3408,1747,-32768,1001,-80000,69000,269000,1199108,
-16484,-5020,-3124,1792,-32768,1114,-78000,69000,270000,1199110,
-16788,-5024,-2920,1799,-32768,1132,-76000,69000,272000,1199113,
-17680,-4980,-1656,1877,-32768,1346,-68000,68000,281000,1199125,
-17684,-5052,-1500,1915,-32768,1385,-67000,68000,282000,1199128,
-17944,-5048,-1364,2054,-32768,1403,-65000,68000,284000,1199130,
-18088,-5132,-140,2534,-32768,1507,-58000,67000,291000,1199143,
-17900,-5000,4,2622,-32768,1513,-57000,66000,293000,1199146,
-17844,-4976,60,2523,-32768,1458,-55000,66000,294000,1199148,
-17344,-4736,952,2586,-32768,1179,-50000,64000,300000,1199161,
-17180,-4816,1192,2680,-32768,1123,-48000,64000,301000,1199163,
-16936,-4844,1428,2758,-32768,1072,-47000,63000,303000,1199166,
-15160,-4616,2380,2635,-32768,862,-43000,61000,308000,1199179,
-15004,-4596,2548,2637,-32768,837,-42000,61000,308000,1199181,
-13524,-4272,3280,2310,-32768,721,-38000,59000,313000,1199194,
-13324,-4280,3244,2230,-32768,714,-37000,58000,313000,1199196,
-12964,-4300,3508,2168,-32768,654,-37000,58000,314000,1199199,
-12224,-4028,3844,1825,-32768,198,-34000,55000,318000,1199211,
-11884,-4076,4232,1747,-32768,49,-33000,55000,318000,1199214,
-11668,-3980,4296,1695,-32768,-164,-33000,54000,319000,1199216,
-8952,-3704,5984,1176,-32768,-1654,-30000,51000,321000,1199229,
-7972,-3728,6728,1231,-32768,-1976,-30000,51000,322000,1199231,
-7412,-3784,6864,1209,-32768,-2284,-30000,50000,322000,1199234,
-3964,-4372,9848,1246,-32768,-3195,-28000,47000,324000,1199247,
-3504,-4416,10508,1285,-32768,-3092,-28000,46000,325000,1199249,
-2884,-4720,11100,1293,-32768,-2997,-27000,46000,325000,1199252,
-880,-5132,13744,1527,-32768,-1307,-26000,43000,327000,1199264,
-832,-5276,14032,1600,-32370,-898,-26000,42000,327000,1199267,
-1864,-5480,14532,2249,-22134,897,-25000,40000,329000,1199279,
-2272,-5132,14476,2078,-20499,1094,-24000,40000,329000,1199282,
-2536,-5016,14880,1955,-18823,1307,-24000,39000,329000,1199284,
-4288,-4456,14368,2089,-13018,1845,-23000,38000,330000,1199297,
-4764,-4216,14332,2095,-12104,1872,-23000,38000,330000,1199300,
-5100,-4152,14356,2041,-11513,1883,-23000,38000,330000,1199302,
-6364,-4024,13960,1855,-9727,1897,-22000,37000,331000,1199315,
-6420,-3968,13944,1790,-9658,1861,-22000,36000,331000,1199317,
-6516,-3996,13752,1722,-9603,1868,-22000,36000,331000,1199320,
-6488,-3672,13724,1272,-9272,1915,-22000,35000,332000,1199332,
-6364,-3576,13808,1210,-9235,1931,-21000,35000,332000,1199335,
-5992,-3576,13988,1110,-9177,1953,-21000,35000,332000,1199337,
-5168,-3632,14760,857,-8502,2169,-21000,34000,333000,1199350,
-4980,-3732,14776,774,-8261,2238,-21000,34000,333000,1199353,
-4760,-3572,14908,778,-7976,2252,-21000,34000,333000,1199355,
-3804,-3760,14996,692,-6170,2376,-20000,33000,334000,1199368,
-3636,-3824,14948,725,-5773,2382,-20000,33000,334000,1199370,
-3572,-3792,14896,711,-5374,2422,-20000,33000,334000,1199373,
-3332,-3364,14664,783,-3331,2467,-20000,33000,334000,1199385,
-3380,-3324,14664,739,-2990,2476,-20000,33000,334000,1199388,
-3484,-3348,14584,713,-2702,2484,-20000,33000,335000,1199390,
-3924,-3200,14464,652,-1679,2461,-19000,33000,335000,1199403,
-4068,-3088,14424,631,-1502,2443,-19000,33000,335000,1199406,
-4140,-3116,14464,645,-1481,2430,-19000,33000,335000,1199408,
-4732,-2840,14500,538,-1584,2321,-19000,32000,335000,1199421,
-4796,-2776,14336,473,-1690,2312,-19000,32000,335000,1199423,
-4796,-2680,14348,414,-1742,2268,-19000,32000,335000,1199426,
-4228,-2408,14392,182,-1825,2039,-19000,32000,336000,1199439,
-4068,-2536,14484,124,-1761,1994,-19000,32000,336000,1199441,
-3904,-2432,14536,123,-1697,1966,-18000,32000,336000,1199443,
-3312,-2412,14704,-73,-771,1777,-18000,32000,336000,1199456,
-3212,-2484,14544,-74,-564,1779,-18000,32000,336000,1199459,
-2988,-2584,14720,-147,-348,1732,-18000,32000,336000,1199461,
-2784,-2468,14856,-270,1170,1550,-18000,32000,336000,1199474,
-2868,-2500,14848,-323,1520,1513,-18000,32000,336000,1199476,
-2772,-2496,14984,-265,1780,1471,-18000,32000,337000,1199479,
-3808,-2824,14876,-253,2637,1340,-18000,32000,337000,1199495,
-3932,-2868,14848,-277,2628,1324,-18000,32000,337000,1199498,
-4120,-2904,14908,-283,2596,1240,-18000,32000,337000,1199500,
-4584,-2868,14956,-329,1894,1014,-18000,32000,337000,1199513,
-4672,-3052,15204,-330,1713,943,-18000,32000,337000,1199515,
-4736,-2964,15312,-353,1530,934,-18000,32000,337000,1199518,
-5096,-3164,15148,-430,771,732,-18000,32000,337000,1199530,
-5136,-3052,14980,-467,705,724,-18000,32000,337000,1199533,
-4988,-3096,14820,-477,680,720,-18000,32000,337000,1199535,
-4860,-3020,14840,-499,686,705,-18000,32000,337000,1199548,
-4912,-3056,14800,-511,748,696,-18000,32000,337000,1199551,
-4756,-2996,14896,-476,766,628,-18000,32000,337000,1199553,
-4668,-3108,14772,-548,1169,420,-18000,32000,337000,1199566,
-4652,-3160,14884,-487,1211,374,-18000,32000,337000,1199568,
-4568,-3112,15032,-548,1251,375,-18000,32000,337000,1199571,
-5028,-3308,15128,-382,1520,262,-18000,32000,337000,1199583,
-5068,-3220,14940,-413,1516,268,-18000,32000,337000,1199586,
-5228,-3276,15048,-401,1551,259,-18000,32000,337000,1199588,
-5488,-3296,15104,-421,1330,227,-18000,32000,337000,1199601,
-5484,-3256,15216,-436,1272,194,-18000,32000,337000,1199604,
-5612,-3364,15048,-402,1180,199,-18000,32000,337000,1199606,
-5308,-3356,15264,-376,950,60,-18000,32000,337000,1199619,
-5204,-3172,15232,-394,833,107,-18000,32000,337000,1199621,
-5332,-3260,15236,-408,772,95,-18000,32000,337000,1199624,
-5232,-3276,15092,-376,609,111,-18000,32000,337000,1199636,
-5308,-3268,15072,-385,639,95,-18000,32000,337000,1199639,
-5264,-3216,15152,-341,619,67,-18000,32000,337000,1199641,
-5284,-3140,15088,-413,526,118,-18000,32000,337000,1199654,
-5360,-3180,15068,-379,506,108,-18000,32000,337000,1199657,
-5316,-3108,14948,-423,514,110,-18000,32000,337000,1199659,
-5068,-3156,15028,-425,671,163,-18000,32000,337000,1199672,
-5072,-3080,14908,-488,669,197,-18000,32000,337000,1199674,
-5008,-3084,14896,-490,660,204,-18000,32000,337000,1199677,
-5348,-3036,14788,-534,603,233,-18000,32000,337000,1199689,
-5332,-3096,14944,-514,614,248,-18000,32000,337000,1199692,
-5476,-3072,14952,-539,556,219,-18000,32000,337000,1199694,
-5356,-2972,14920,-679,494,212,-18000,32000,337000,1199707,
-5216,-3080,15016,-663,484,200,-18000,32000,337000,1199710,
-5180,-3032,15048,-685,489,229,-18000,32000,337000,1199712,
-5112,-3220,15124,-689,455,176,-18000,32000,337000,1199725,
-5112,-3328,15204,-723,444,214,-18000,32000,337000,1199727,
-5120,-3268,15180,-704,518,200,-18000,32000,337000,1199730,
-5016,-3360,15316,-710,645,249,-18000,32000,337000,1199742,
-5056,-3284,15280,-701,754,230,-18000,32000,337000,1199745,
-5036,-3256,15140,-689,791,218,-18000,32000,337000,1199747,
-4992,-3328,15104,-653,1230,214,-18000,32000,337000,1199760,
-5012,-3272,15208,-652,1229,228,-18000,32000,337000,1199762,
-4992,-3208,15300,-695,1267,240,-18000,32000,337000,1199765,
-5348,-3392,15040,-621,1247,199,-18000,32000,337000,1199777,
-5344,-3432,15164,-628,1167,188,-18000,32000,337000,1199780,
-5392,-3332,15232,-639,1157,160,-18000,32000,337000,1199782,
-5532,-3320,15188,-618,820,160,-18000,32000,337000,1199795,
-5636,-3252,15192,-629,839,145,-18000,32000,337000,1199798,
-5584,-3204,15380,-633,787,184,-18000,32000,337000,1199800,
-5472,-3376,15216,-667,837,250,-18000,32000,337000,1199813,
-5488,-3448,15248,-676,850,284,-18000,32000,337000,1199815,
-5492,-3372,15308,-698,824,272,-18000,32000,337000,1199818,
-5408,-3348,15272,-682,1076,300,-18000,32000,337000,1199830,
-5300,-3304,15228,-702,1172,308,-18000,32000,337000,1199833,
-5344,-3236,15016,-638,1259,286,-18000,32000,337000,1199835,
-5320,-3232,15028,-661,1636,309,-18000,32000,337000,1199848,
-5276,-3228,14824,-621,1734,301,-18000,32000,337000,1199850,
-5252,-3276,14932,-589,1769,338,-18000,32000,337000,1199853,
-5464,-3220,14904,-594,1965,324,-18000,33000,337000,1199866,
-5476,-3372,14692,-621,1925,346,-18000,33000,337000,1199868,
-5548,-3256,14792,-652,1923,339,-18000,33000,337000,1199870,
-5928,-3448,14716,-637,1777,263,-18000,33000,337000,1199883,
-5824,-3344,14768,-630,1767,279,-18000,33000,337000,1199886,
-6008,-3372,14836,-610,1727,275,-18000,33000,337000,1199888,
-5844,-3268,15020,-626,1706,263,-18000,33000,337000,1199901,
-5828,-3424,14932,-599,1674,254,-18000,33000,337000,1199903,
-5768,-3268,14980,-640,1688,268,-18000,33000,337000,1199906,
-5700,-3320,14916,-514,1488,177,-18000,33000,337000,1199919,
-5788,-3404,14976,-551,1419,159,-18000,33000,337000,1199921,
-5884,-3312,15088,-519,1409,127,-18000,33000,337000,1199924,
-6072,-3336,14880,-464,995,72,-18000,33000,337000,1199936,
-6092,-3220,14924,-456,945,60,-18000,33000,337000,1199939,
-6096,-3256,14868,-456,810,81,-18000,33000,337000,1199941,
-5756,-3188,14688,-445,510,81,-18000,33000,337000,1199954,
-5800,-3164,14672,-480,449,77,-18000,33000,337000,1199956,
-5716,-3144,14696,-512,454,52,-18000,33000,337000,1199959,
-5332,-3024,14872,-560,561,-50,-18000,33000,337000,1199971,
-5308,-2972,14788,-540,659,-83,-18000,33000,337000,1199974,
-5380,-3192,14932,-547,1126,-124,-18000,33000,337000,1199987,
-5328,-3156,14960,-508,1245,-156,-18000,33000,337000,1199989,
-5372,-3188,14900,-504,1276,-150,-18000,33000,337000,1199992,
-5704,-3312,15096,-393,1379,-234,-19000,33000,337000,1200004,
-5776,-3248,14940,-439,1297,-220,-19000,33000,337000,1200007,
-5900,-3344,14872,-457,1184,-216,-19000,33000,337000,1200009,
-6296,-3340,14932,-451,534,-347,-19000,33000,337000,1200022,
-6432,-3260,14956,-444,431,-379,-19000,33000,337000,1200024,
-6540,-3304,15000,-412,248,-369,-19000,33000,337000,1200027,
-6300,-3372,14996,-460,-183,-416,-19000,33000,337000,1200040,
-6116,-3312,14840,-423,-270,-428,-19000,33000,337000,1200042,
-6080,-3312,14896,-464,-225,-429,-19000,33000,337000,1200045,
-5368,-3260,14948,-430,86,-457,-19000,33000,337000,1200057,
-5288,-3320,14944,-462,236,-483,-19000,33000,337000,1200060,
-5244,-3288,15032,-451,405,-451,-19000,33000,337000,1200062,
-5244,-3368,15072,-352,1170,-388,-19000,33000,337000,1200075,
-5444,-3280,15008,-316,1375,-389,-19000,33000,337000,1200077,
-5452,-3364,14876,-290,1441,-353,-19000,33000,337000,1200080,
-5868,-3200,14856,-275,1875,-294,-19000,33000,337000,1200092,
