Ax,Ay,Az,Gx,Gy,Gz,Roll,Pitch,Yaw,Timestamp,Target
-11880,4728,10784,370,1189,371,15000,37000,146000,161622,
-11876,4852,11108,-262,-920,77,15000,37000,146000,161634,
-11688,4908,11084,-358,-1330,78,15000,37000,146000,161637,
-11692,4988,11152,-499,-1730,58,15000,37000,146000,161639,
-10696,5068,11276,-1192,-3283,162,14000,37000,146000,161651,
-10464,4920,11420,-1333,-3411,224,14000,37000,146000,161654,
-10380,4908,11444,-1406,-3507,238,14000,37000,146000,161656,
-9580,4928,11448,-1814,-3148,260,14000,37000,145000,161669,
-9556,4864,11376,-1836,-2976,243,14000,37000,145000,161671,
-9420,4916,11548,-1863,-2857,178,14000,36000,145000,161673,
-9420,4980,12712,-1712,-2049,-48,14000,36000,145000,161686,
-9316,4860,12792,-1650,-1950,-92,14000,36000,145000,161688,
-9464,4832,12540,-1584,-1843,-115,14000,36000,145000,161690,
-9716,5060,12968,-1507,-2045,-53,14000,36000,145000,161703,
-9496,5060,12896,-1538,-2094,-17,14000,36000,145000,161705,
0,0,0,0,0,0,14000,36000,145000,161705,
-2376,3492,16160,-109,-116,176,7000,6000,140000,168218,
-2060,3560,16432,-225,-161,284,7000,6000,140000,168230,
-1956,3588,16348,-258,-147,300,7000,6000,140000,168232,
-2480,3396,16424,-17,-27,100,7000,600,-584,13000,
-8404,4980,13304,-951,-707,-571,13000,35000,145000,161742,
-9380,4792,12780,-665,963,-219,13000,35000,145000,161754,
-9576,4684,12688,-617,1124,-60,13000,35000,145000,161757,
-9732,4572,12708,-540,1284,32,13000,35000,145000,161759,
-10504,4116,12672,-498,1401,617,13000,36000,145000,161771,
-10580,4108,12808,-495,1364,657,13000,36000,145000,161774,
-10572,4076,12656,-476,1305,678,13000,36000,145000,161776,
-10372,3836,12444,-438,923,521,13000,36000,145000,161789,
-10196,4036,12516,-434,836,451,13000,36000,146000,161791,
-10080,4048,12440,-414,777,379,13000,36000,146000,161793,
-9724,4288,12580,-338,684,-62,13000,36000,146000,161806,
-9692,4328,12704,-307,595,-160,13000,36000,146000,161808,
-9620,4388,12744,-290,494,-214,13000,36000,146000,161811,
-9344,4656,12764,-174,-24,-452,13000,36000,146000,161823,
-9316,4780,12776,-194,-68,-469,13000,36000,146000,161825,
-9380,4640,12748,-189,-85,-450,13000,36000,146000,161828,
-9316,4616,12552,-329,-76,-352,13000,36000,145000,161840,
-9304,4492,12680,-332,-60,-348,13000,36000,145000,161843,
-9320,4432,12544,-389,-1,-312,13000,36000,145000,161845,
-9464,4380,12440,-290,514,-79,13000,36000,146000,161857,
-9436,4348,12468,-267,660,-22,13000,36000,146000,161860,
-9448,4488,12548,-269,824,40,13000,36000,146000,161862,
-9828,4504,12108,-254,1369,448,14000,36000,146000,161875,
-9992,4652,12092,-269,1368,540,14000,36000,146000,161877,
-9956,4596,12148,-284,1393,584,14000,36000,146000,161879,
-10304,4616,12016,-271,1491,776,14000,36000,146000,161892,
-10108,4604,12216,-243,1419,763,14000,36000,146000,161894,
-10164,4712,12324,-298,1400,747,14000,36000,146000,161896,
-10236,4628,12500,-264,868,373,14000,36000,146000,161909,
-10076,4764,12384,-316,747,283,14000,36000,146000,161911,
-10124,4640,12496,-320,643,244,14000,36000,146000,161913,
-9612,4768,12744,-520,38,-79,14000,36000,146000,161926,
-9616,4832,12612,-501,-51,-106,14000,36000,146000,161928,
-9576,4796,12680,-526,-89,-142,14000,36000,146000,161931,
-9240,4996,12632,-478,-74,-252,14000,36000,146000,161943,
-9200,4980,12964,-434,12,-265,14000,36000,146000,161945,
-9144,5012,12876,-441,69,-261,14000,36000,146000,161948,
-9284,4800,12668,-299,614,-209,14000,36000,146000,161960,
-9232,4800,12708,-304,707,-166,14000,36000,146000,161962,
-9352,4836,12512,-262,819,-172,14000,36000,146000,161965,
-9476,4576,12204,-275,1274,-30,14000,36000,146000,161977,
-9572,4516,12304,-294,1325,7,14000,37000,146000,161980,
-9540,4384,11964,-288,1354,38,14000,37000,146000,161982,
-9712,4132,12264,-129,1964,31,14000,37000,146000,161994,
-9792,4256,12160,-99,2145,43,14000,37000,146000,161997,
-9772,4244,12376,-47,2303,26,14000,37000,146000,161999,
-10180,4356,12316,61,2347,-127,14000,37000,146000,162011,
-10392,4472,12192,65,2160,-162,14000,37000,146000,162014,
-10344,4424,12316,49,1954,-182,14000,37000,146000,162016,
-10164,4608,12100,-182,804,-306,14000,37000,146000,162029,
-10236,4608,12080,-217,646,-324,14000,37000,146000,162031,
-10108,4548,12360,-222,489,-370,14000,37000,146000,162033,
-9872,4568,12172,-272,196,-535,14000,37000,146000,162046,
-9852,4532,12224,-255,148,-554,14000,37000,146000,162048,
-9724,4516,12284,-257,144,-579,14000,37000,146000,162050,
-9776,4724,12160,-287,65,-560,14000,37000,146000,162063,
-9840,4632,11996,-319,104,-529,14000,37000,146000,162065,
-9936,4620,12164,-340,91,-518,14000,37000,146000,162068,
-10128,4880,11988,-375,395,-319,14000,37000,146000,162080,
-10120,4800,11896,-393,429,-285,14000,37000,146000,162082,
-10300,4796,11724,-384,545,-243,14000,37000,146000,162085,
-10652,4772,12036,-309,895,54,14000,37000,146000,162097,
-10824,4796,12056,-292,919,61,14000,37000,146000,162100,
-10760,4792,12024,-253,889,98,14000,37000,146000,162102,
-10804,4776,12212,-295,154,90,14000,37000,146000,162114,
-10660,4632,12420,-280,-86,60,14000,37000,146000,162117,
-10568,4700,12300,-331,-318,38,14000,37000,146000,162119,
-9916,4620,12504,-472,-1226,-130,14000,37000,146000,162132,
-9912,4536,12560,-462,-1308,-201,14000,37000,146000,162134,
-9788,4600,12432,-492,-1363,-183,14000,37000,146000,162136,
-9192,4520,12544,-423,-1123,-361,14000,37000,146000,162149,
-9104,4560,12388,-405,-989,-391,14000,37000,146000,162151,
-9064,4748,12600,-416,-844,-413,14000,37000,146000,162153,
-9340,4668,12272,-279,-142,-311,14000,37000,146000,162166,
-9400,4748,12256,-279,-22,-264,14000,37000,146000,162168,
-9532,4796,12328,-292,132,-274,14000,37000,146000,162170,
-10224,4784,12004,-213,880,-12,14000,37000,146000,162183,
-10364,4816,11976,-214,988,36,14000,37000,146000,162185,
-10436,4760,12224,-190,1031,90,14000,37000,146000,162188,
-10564,4604,12124,-126,881,159,14000,37000,146000,162200,
-10608,4592,12040,-138,746,164,14000,37000,146000,162203,
-10460,4640,12128,-161,620,143,14000,37000,146000,162205,
-10184,4488,12064,-334,-8,6,14000,37000,146000,162217,
-10236,4596,12184,-335,-95,-22,14000,37000,146000,162220,
-10016,4512,12280,-357,-125,-86,14000,37000,146000,162222,
-9964,4736,12312,-302,-107,-120,14000,37000,146000,162235,
-9996,4800,12196,-301,-126,-96,14000,37000,146000,162237,
-9956,4688,12360,-291,-171,-118,14000,37000,146000,162239,
-9908,4652,12260,-363,-492,-128,14000,37000,146000,162252,
-10020,4716,12344,-380,-608,-117,14000,37000,146000,162254,
-9980,4700,12228,-387,-657,-111,14000,37000,146000,162256,
-10120,4376,12320,-450,-752,-22,14000,37000,146000,162269,
-10112,4340,12168,-427,-751,-39,14000,37000,146000,162271,
-9932,4348,12320,-430,-695,16,14000,37000,146000,162273,
-9788,4260,12212,-328,-377,-2,14000,37000,146000,162286,
-9796,4316,12324,-285,-290,20,14000,37000,146000,162288,
-9932,4308,12324,-310,-208,25,14000,37000,146000,162291,
-9560,4572,12264,-262,149,48,14000,37000,147000,162303,
-9568,4616,12232,-260,246,33,14000,37000,147000,162305,
-9544,4720,12264,-275,274,-9,14000,37000,147000,162308,
-9644,4876,12048,-257,596,-44,14000,37000,147000,162320,
-9724,4888,12160,-245,675,-76,14000,37000,147000,162322,
-9668,4884,12396,-232,682,-86,14000,37000,147000,162325,
-9952,4724,12316,-182,892,-81,14000,37000,147000,162337,
-10056,4624,12396,-172,898,-98,14000,37000,147000,162339,
-10072,4720,12256,-182,901,-95,14000,37000,147000,162342,
-10336,4632,11944,-334,523,46,14000,37000,147000,162354,
-10400,4692,12004,-385,394,122,14000,37000,147000,162357,
-10412,4656,12088,-399,299,129,14000,37000,147000,162359,
-10320,4652,12060,-429,-173,279,14000,37000,147000,162372,
-10348,4672,11952,-446,-265,275,14000,37000,147000,162374,
-10324,4664,12072,-451,-366,268,14000,37000,147000,162376,
-10208,4636,12120,-452,-706,113,14000,37000,147000,162389,
-10104,4704,12228,-452,-785,78,14000,37000,147000,162391,
-10212,4608,12552,-437,-835,81,14000,37000,147000,162393,
-9900,4472,12368,-398,-1392,-10,14000,37000,147000,162406,
-9896,4492,12704,-396,-1485,-42,14000,37000,147000,162408,
-9960,4424,12716,-378,-1522,-53,14000,37000,147000,162411,
-9944,4444,12140,-298,-1984,-78,14000,37000,147000,162423,
-10000,4608,12124,-305,-2050,-65,14000,37000,147000,162425,
-10144,4596,12124,-291,-2128,-52,14000,37000,147000,162428,
-10584,4828,11800,-387,-2015,208,14000,37000,147000,162440,
-10640,4808,11848,-383,-1948,265,14000,37000,147000,162443,
-10724,4932,11824,-394,-1941,290,14000,37000,147000,162445,
-10636,4848,12048,-494,-2139,442,14000,36000,147000,162457,
-10372,4808,11800,-556,-2254,406,14000,36000,147000,162460,
-10440,4680,11768,-604,-2409,414,14000,36000,147000,162462,
-9896,4392,11384,-1011,-3293,81,14000,36000,147000,162475,
-9796,4368,11788,-1049,-3351,11,14000,36000,147000,162477,
-9592,4368,11736,-1104,-3416,-46,14000,36000,147000,162479,
-9768,4092,12308,-1249,-3132,-211,14000,36000,147000,162492,
-9920,4008,12244,-1265,-3086,-177,14000,36000,147000,162494,
-9984,4000,12284,-1262,-3057,-116,14000,36000,146000,162496,
-9660,3852,12332,-1243,-3405,60,13000,35000,146000,162508,
-9484,4032,12612,-1268,-3508,83,13000,35000,146000,162511,
-9328,4152,12740,-1252,-3551,72,13000,35000,146000,162513,
-8716,4316,12380,-1492,-3750,-222,13000,35000,146000,162525,
-8768,4348,12472,-1548,-3801,-301,13000,35000,146000,162528,
-8484,4380,12480,-1573,-3794,-341,13000,35000,146000,162530,
-8388,4424,13120,-1586,-3153,-738,13000,34000,146000,162543,
-8384,4552,13200,-1559,-2865,-818,13000,34000,146000,162545,
-8416,4684,13156,-1541,-2606,-890,13000,34000,146000,162547,
-8556,4776,13152,-1400,-1407,-1163,13000,34000,146000,162560,
-8768,4776,13196,-1381,-1333,-1228,13000,34000,146000,162562,
-9112,4836,13140,-1369,-1255,-1251,13000,34000,146000,162564,
-10132,4764,13096,-1498,-1216,-1258,12000,34000,146000,162577,
-10544,4704,12828,-1601,-1269,-1248,12000,34000,146000,162579,
-11520,4272,12456,-2049,-2427,-1017,12000,34000,145000,162592,
-11472,4108,12708,-2155,-2781,-996,12000,34000,145000,162594,
-11452,4136,12892,-2254,-3143,-946,12000,34000,145000,162597,
-11304,3892,13432,-2683,-4558,-996,12000,33000,145000,162609,
-11320,3956,13600,-2758,-4742,-1014,12000,33000,145000,162611,
-11372,4024,13512,-2844,-4944,-986,11000,33000,145000,162614,
-11068,4252,13532,-3186,-6080,-784,11000,33000,145000,162626,
-10924,4452,13664,-3225,-6291,-737,11000,33000,145000,162629,
-10828,4416,13684,-3284,-6444,-672,11000,32000,145000,162631,
-10068,4080,14012,-3480,-7022,-471,10000,32000,145000,162644,
-9872,4032,14096,-3491,-7085,-463,10000,32000,145000,162646,
-9712,3804,14236,-3486,-7070,-447,10000,32000,145000,162648,
-9360,3000,15396,-3236,-6757,-393,10000,31000,144000,162661,
-9412,2716,15496,-3157,-6718,-341,10000,31000,144000,162663,
-10228,1956,14492,-3038,-7130,341,9000,30000,144000,162676,
-10268,1960,14512,-3060,-7301,572,9000,30000,144000,162678,
-10516,1788,14308,-3110,-7496,811,9000,30000,144000,162680,
-12308,972,14484,-3270,-8347,3080,9000,29000,144000,162693,
-12284,544,14116,-3450,-8275,3508,9000,29000,144000,162695,
-12128,276,14092,-3594,-8159,3853,9000,29000,144000,162697,
-10408,-228,14348,-4125,-7409,4246,9000,28000,145000,162710,
-10168,-192,14748,-4113,-7428,4191,9000,28000,145000,162712,
-10060,-200,14852,-4110,-7460,4085,9000,28000,145000,162714,
-9148,-12,15060,-4268,-7352,3718,8000,27000,145000,162727,
-8948,12,15076,-4339,-7192,3597,8000,27000,145000,162729,
-8780,132,14920,-4431,-7009,3525,8000,27000,145000,162731,
-7480,664,15732,-4286,-5960,2905,8000,26000,145000,162744,
-7272,688,15732,-4195,-5883,2775,8000,26000,145000,162746,
-7112,752,15632,-4077,-5810,2661,8000,26000,145000,162748,
-6488,-900,15728,-3978,-6502,2123,7000,25000,146000,162761,
-6784,-1184,15756,-3943,-6774,2115,7000,25000,146000,162763,
-7048,-1316,15792,-3897,-7019,2073,7000,25000,146000,162765,
-7480,-2132,16772,-3026,-8785,1750,7000,24000,146000,162778,
-7040,-3492,16392,-3145,-9409,1649,7000,24000,146000,162780,
-7208,-4424,16292,-3350,-10132,1499,7000,24000,146000,162782,
-11852,-4452,18912,-3618,-16726,1234,6000,22000,145000,162795,
-11972,-2956,18640,-3392,-18047,1453,6000,22000,145000,162797,
-11488,-1984,18100,-3320,-18978,1731,6000,22000,145000,162799,
-4352,2788,15560,-3838,-16792,2303,6000,20000,146000,162812,
-2708,3692,15244,-3950,-15686,2236,6000,20000,146000,162814,
336,4812,16004,-3387,-11608,3566,5000,19000,146000,162827,
1008,4488,16124,-3224,-10970,3851,5000,18000,146000,162829,
1360,4348,15904,-3118,-10297,4093,5000,18000,146000,162831,
2496,2096,16888,-2328,-4763,3107,5000,18000,146000,162844,
2180,1540,17168,-2027,-3726,2616,5000,17000,146000,162846,
1780,1168,17212,-1817,-2795,2082,5000,17000,146000,162848,
-1400,-640,16992,-630,751,-89,5000,17000,146000,162861,
-2268,-764,17024,-503,1077,-269,5000,17000,146000,162863,
-2780,-844,16764,-420,1371,-386,5000,17000,146000,162865,
-5264,136,17368,15,1659,-329,5000,17000,146000,162878,
-5664,784,17356,45,1438,-239,5000,18000,146000,162880,
-5872,1056,17228,110,1183,-156,5000,18000,146000,162882,
-6980,2940,16268,-493,-1085,457,5000,17000,146000,162895,
-7144,3076,16428,-669,-1625,615,5000,17000,146000,162897,
-7192,3292,16488,-834,-2169,718,5000,17000,146000,162899,
-6848,3648,16760,-1889,-5288,1569,5000,17000,146000,162912,
-6448,3528,16888,-2017,-5747,1653,5000,17000,146000,162914,
-6184,3524,17012,-2173,-6256,1761,5000,17000,146000,162916,
-4760,2880,17960,-2231,-7337,1245,5000,16000,146000,162929,
-4336,2560,18132,-2094,-7384,1096,5000,16000,146000,162931,
-4224,2456,18576,-1905,-7290,908,5000,16000,146000,162933,
-3968,3256,17964,-1457,-6940,72,4000,15000,146000,162946,
-3988,3676,17888,-1585,-7168,-63,4000,15000,146000,162948,
-4012,3932,18004,-1731,-7432,-173,4000,15000,146000,162950,
-3544,4856,17540,-1993,-8745,-536,4000,14000,146000,162963,
-3308,4988,17672,-2002,-8773,-501,4000,14000,146000,162965,
-3140,5052,17784,-1999,-8881,-446,4000,14000,146000,162967,
-1656,4812,18936,-1749,-9514,172,4000,13000,146000,162980,
-1056,4548,19176,-1654,-9599,220,4000,12000,146000,162982,
-756,4560,19420,-1555,-9614,231,4000,12000,146000,162984,
1132,3848,19464,-1114,-9799,-658,4000,11000,146000,162997,
1480,3904,18952,-1148,-9645,-994,4000,11000,146000,162999,
1600,4204,18572,-1278,-9493,-1381,4000,11000,146000,163001,
8,3564,19936,-271,-7011,-2665,4000,10000,146000,163014,
-144,3432,19924,218,-6076,-2788,4000,10000,146000,163016,
-444,3296,19728,646,-5203,-2948,4000,10000,146000,163018,
-2816,2744,17924,1692,-2865,-3410,4000,10000,145000,163031,
-3108,2808,17696,1656,-3081,-3355,4000,10000,145000,163033,
-3520,2872,17428,1552,-3434,-3321,4000,10000,145000,163035,
-4536,3680,16308,786,-6163,-2903,4000,9000,145000,163048,
-4572,3976,16172,707,-6595,-2831,4000,9000,145000,163050,
-4472,4116,15900,621,-6959,-2789,4000,9000,145000,163052,
-3748,5600,14804,-283,-8568,-2467,4000,8000,144000,163065,
-3588,5800,14836,-496,-8837,-2428,4000,8000,144000,163067,
-3280,6112,14744,-649,-9097,-2338,4000,8000,144000,163069,
-1588,6620,14708,-1347,-9472,-1999,4000,7000,144000,163082,
-1324,6656,14760,-1449,-9325,-1976,4000,7000,144000,163084,
-1004,6644,14760,-1522,-9157,-2015,4000,7000,144000,163086,
-28,6328,14936,-1785,-7864,-2601,4000,6000,144000,163099,
36,6300,15136,-1814,-7585,-2763,4000,6000,144000,163101,
24,6212,15264,-1747,-7352,-2898,4000,6000,144000,163103,
-684,5812,15188,-1661,-6114,-3526,4000,5000,143000,163116,
-852,5740,15124,-1704,-5963,-3566,4000,5000,143000,163118,
-992,5732,14840,-1725,-5820,-3597,4000,5000,143000,163120,
-2236,5444,14648,-1990,-5277,-3328,4000,4000,143000,163133,
-2304,5400,14736,-2059,-5355,-3225,4000,4000,143000,163135,
-2496,5428,14864,-2098,-5478,-3085,4000,4000,143000,163137,
-2688,5324,15116,-2254,-5786,-2505,4000,4000,142000,163150,
-2844,5192,15120,-2227,-5721,-2461,4000,4000,142000,163152,
-2296,3436,16544,-274,-46,215,7000,6000,141000,168305,
-1876,3420,16476,-388,-117,238,7000,6000,141000,168317,
-1604,3436,16520,-424,-103,226,7000,6000,141000,168320,
-1380,3468,16652,-405,-76,185,7000,6000,141000,168322,
-1200,3448,16496,-453,206,-44,7000,6000,141000,168334,
-1204,3616,16332,-455,242,-100,7000,6000,141000,168336,
-1212,3512,16364,-421,281,-164,7000,6000,141000,168339,
-1676,3644,16540,-348,448,-413,7000,6000,141000,168351,
-1796,3596,16432,-326,435,-428,7000,6000,141000,168353,
-1808,3596,16164,-335,419,-441,7000,6000,140000,168356,
-1952,3568,16256,-374,226,-182,7000,6000,140000,168368,
-1972,3528,16444,-336,161,-126,7000,6000,140000,168370,
-1808,3412,16408,-343,148,-110,7000,6000,140000,168373,
-1480,3300,16312,-287,223,-282,7000,6000,140000,168385,
-1364,3188,16408,-288,307,-307,7000,6000,140000,168387,
-1312,3112,16116,-260,341,-391,7000,6000,140000,168390,
-1440,3120,15940,-365,474,-608,7000,6000,140000,168402,
-1432,3100,15916,-393,457,-634,7000,6000,140000,168404,
-1512,3072,15920,-393,468,-640,7000,6000,140000,168407,
-1440,3124,15624,-514,762,-715,7000,6000,140000,168419,
-1532,3116,15712,-501,785,-728,7000,6000,140000,168421,
-1516,3128,15640,-509,819,-711,7000,6000,140000,168423,
-1680,3324,15692,-580,863,-787,6000,6000,140000,168436,
-1680,3276,15732,-592,871,-778,6000,6000,140000,168438,
-1728,3312,15668,-565,871,-781,6000,6000,140000,168440,
-1728,3192,15632,-694,790,-838,6000,7000,140000,168453,
-1816,3168,15580,-728,774,-849,6000,7000,140000,168455,
-1740,3180,15468,-778,729,-892,6000,7000,140000,168457,
-1444,2980,14772,-1103,646,-1016,6000,7000,140000,168470,
-1464,2896,14504,-1207,666,-1031,6000,7000,140000,168472,
-1372,2876,14484,-1277,642,-1085,6000,7000,140000,168474,
-1044,2680,13840,-1747,669,-1332,6000,7000,140000,168487,
-1092,2620,13940,-1815,707,-1396,6000,7000,140000,168489,
-976,2616,13964,-1873,713,-1479,6000,7000,140000,168491,
-1228,2568,14172,-2205,861,-1835,6000,7000,140000,168504,
-1336,2568,14152,-2271,828,-1879,6000,7000,140000,168506,
-1228,2556,14212,-2336,840,-1890,6000,7000,140000,168508,
-1288,2584,14812,-2765,868,-1810,6000,7000,139000,168521,
-1332,2584,14876,-2793,892,-1826,5000,7000,139000,168523,
-1200,2592,15096,-2839,919,-1828,5000,7000,139000,168525,
-904,2588,15500,-3043,985,-2206,5000,7000,139000,168538,
-976,2472,15444,-3098,1017,-2315,5000,7000,139000,168540,
-984,2424,15600,-3111,1032,-2457,5000,7000,139000,168542,
-1684,2188,15720,-3202,1345,-3001,5000,7000,139000,168555,
-1896,2032,15780,-3248,1398,-3035,5000,7000,139000,168557,
-2072,1996,15644,-3224,1429,-3079,5000,7000,139000,168559,
-2876,1976,15680,-3496,1358,-2825,4000,7000,139000,168572,
-2996,1892,15676,-3548,1261,-2707,4000,7000,138000,168574,
-3080,2040,15704,-3621,1179,-2623,4000,8000,138000,168576,
-2476,2348,15792,-3935,1223,-2225,4000,8000,138000,168589,
-2320,2496,15664,-3973,1250,-2209,4000,8000,138000,168591,
-2124,2456,15860,-4057,1263,-2198,4000,8000,138000,168593,
-1396,2604,15900,-4211,1230,-2402,3000,8000,138000,168606,
-1372,2588,15872,-4215,1316,-2517,3000,8000,138000,168608,
-1332,2640,15660,-4239,1430,-2543,3000,8000,138000,168610,
-1536,2236,15324,-4209,2014,-2876,3000,8000,138000,168623,
-1556,2168,15076,-4201,1988,-2929,3000,8000,138000,168625,
-1784,1956,14944,-4234,1943,-2957,2000,8000,137000,168627,
-2392,1408,15004,-4301,1787,-3103,2000,8000,137000,168640,
-2540,1400,15180,-4330,1783,-3151,2000,8000,137000,168642,
-2800,1272,15124,-4349,1802,-3168,2000,8000,137000,168644,
-3316,1228,15884,-4499,1570,-3046,1000,9000,137000,168657,
-3396,1272,16140,-4507,1501,-2976,1000,9000,137000,168659,
-3396,1328,16136,-4545,1390,-2908,1000,9000,137000,168661,
-2952,1612,16656,-4654,982,-2767,1000,9000,136000,168673,
-2836,1576,16884,-4653,946,-2822,1000,9000,136000,168676,
-2864,1684,16964,-4636,1020,-2876,1000,9000,136000,168678,
-3212,1140,16436,-4595,715,-2928,0,9000,136000,168690,
-3200,1128,16380,-4624,610,-2916,0,9000,136000,168693,
-3364,920,16332,-4640,457,-2875,0,9000,136000,168695,
-3680,140,15836,-4688,-81,-2790,0,9000,136000,168707,
-3672,32,15700,-4706,-97,-2745,0,9000,136000,168710,
-3780,-52,15476,-4706,-124,-2761,0,9000,136000,168712,
-3712,-124,15444,-4734,-131,-2788,0,9000,136000,168714,
-3528,-432,15180,-4886,-81,-2843,0,9000,135000,168727,
-3424,-412,15152,-4930,-94,-2846,0,9000,135000,168729,
-3372,-488,15060,-5001,-43,-2877,-1000,9000,135000,168731,
-2852,-208,14828,-5323,378,-2957,-1000,9000,135000,168744,
-2772,-108,14780,-5395,614,-2963,-1000,9000,135000,168746,
-2452,-96,14544,-5489,811,-3010,-1000,9000,135000,168748,
-1944,-396,14652,-5528,1194,-2969,-2000,9000,134000,168761,
-1844,-556,14544,-5504,1156,-2934,-2000,9000,134000,168763,
-1604,-584,14664,-5449,1197,-2946,-2000,9000,134000,168765,
-2316,-1244,15060,-4790,1982,-3186,-3000,9000,134000,168777,
-2632,-1400,15176,-4641,2109,-3244,-3000,9000,134000,168780,
-2832,-1500,15092,-4462,2287,-3292,-3000,9000,134000,168782,
-4584,-2036,15340,-4124,2912,-3284,-3000,10000,134000,168794,
-4720,-2188,15364,-4137,2973,-3240,-3000,10000,134000,168797,
-5036,-2808,15924,-4053,3327,-2749,-4000,10000,133000,168809,
-4712,-2296,15268,-3955,3655,-2610,-4000,10000,133000,168811,
-4332,-1688,14524,-4316,3933,-2589,-4000,10000,133000,168814,
-2348,-288,15076,-5244,3091,-3134,-4000,10000,133000,168826,
-2088,-152,14868,-5317,3118,-3353,-5000,10000,133000,168828,
-1836,-96,14460,-5466,3200,-3600,-5000,11000,133000,168831,
-2384,224,13680,-6345,3002,-3731,-5000,11000,132000,168843,
-2452,116,13568,-6480,2975,-3645,-5000,11000,132000,168845,
-2340,208,13248,-6527,2953,-3629,-6000,11000,132000,168848,
-3260,-1116,12708,-5774,1217,-3293,-6000,11000,132000,168860,
-3264,-1144,12820,-5660,752,-3181,-6000,11000,132000,168862,
-3452,-1328,12936,-5599,419,-3103,-6000,11000,132000,168865,
-3828,-1764,14672,-4928,216,-2603,-7000,11000,131000,168877,
-3832,-1620,15036,-4908,704,-2524,-7000,11000,131000,168879,
-3940,-1464,15176,-4960,1273,-2507,-7000,11000,131000,168882,
-3056,-4,15428,-6507,2348,-3248,-8000,11000,131000,168894,
-3120,272,15436,-6995,2009,-3450,-8000,11000,131000,168896,
-3084,500,15356,-7473,1637,-3588,-8000,11000,131000,168899,
-2132,944,16148,-9488,398,-4758,-9000,11000,130000,168911,
-2132,1012,16192,-9726,396,-5048,-9000,11000,130000,168914,
-1888,780,15856,-9953,380,-5312,-9000,11000,130000,168916,
-3516,1640,13264,-11286,910,-6522,-10000,11000,130000,168928,
-4208,1552,14076,-11312,1575,-6345,-11000,11000,130000,168931,
-4988,332,15164,-11338,4066,-5454,-12000,11000,129000,168943,
-4856,148,15040,-11551,4165,-5264,-12000,12000,129000,168945,
-4780,48,14968,-11704,4148,-5124,-12000,12000,129000,168948,
-2956,-760,14636,-12515,2594,-4978,-13000,12000,128000,168960,
-2596,-940,14588,-12658,2181,-5023,-14000,12000,128000,168962,
-2220,-1008,14252,-12803,1843,-5127,-14000,12000,128000,168965,
-396,-1588,14356,-13010,1491,-5584,-15000,12000,128000,168977,
-452,-1540,14756,-12897,1694,-5660,-15000,12000,127000,168979,
-448,-1744,14944,-12796,2025,-5734,-16000,12000,127000,168982,
-1700,-1924,15804,-11986,3799,-5758,-17000,12000,127000,168994,
-1904,-2020,15732,-11885,4111,-5776,-17000,12000,127000,168996,
-3580,-2596,15552,-11559,4990,-6027,-18000,12000,126000,169009,
-3844,-2616,15636,-11594,4901,-6122,-19000,12000,126000,169011,
-4080,-2852,15732,-11635,4783,-6173,-19000,12000,126000,169014,
-4780,-3420,14524,-12243,3104,-6589,-20000,12000,125000,169026,
-4724,-3484,14496,-12383,2817,-6649,-20000,12000,125000,169028,
-4704,-3616,14344,-12560,2466,-6717,-21000,12000,125000,169031,
-3948,-3852,14404,-13246,1590,-7076,-22000,12000,124000,169043,
-3780,-3972,14592,-13293,1587,-7163,-22000,12000,124000,169046,
-3772,-4656,15392,-13176,2121,-7503,-24000,12000,123000,169058,
-3940,-4848,15392,-13085,2188,-7481,-24000,12000,123000,169060,
-4188,-4948,15432,-12992,2245,-7413,-24000,12000,123000,169063,
-4532,-6484,15444,-12429,2245,-6834,-25000,12000,122000,169075,
-4512,-6660,15216,-12319,2224,-6789,-26000,12000,122000,169077,
-4368,-6832,15408,-12273,2245,-6734,-26000,12000,122000,169080,
-4100,-7672,15372,-11885,2710,-6703,-27000,12000,121000,169092,
-4124,-7660,15376,-11853,2937,-6713,-27000,12000,121000,169094,
-3568,-7468,15284,-11657,4191,-6863,-29000,12000,120000,169107,
-3584,-7204,15176,-11594,4481,-6955,-29000,12000,120000,169109,
-3656,-7100,15112,-11555,4718,-7013,-29000,12000,120000,169111,
-3908,-6864,14032,-11402,5732,-7335,-30000,12000,119000,169124,
-3984,-6872,13740,-11413,5709,-7386,-31000,12000,119000,169126,
-4240,-6920,13748,-11436,5636,-7440,-31000,12000,119000,169128,
-5208,-7836,13432,-11302,4949,-7289,-32000,12000,118000,169141,
-5200,-7928,13396,-11206,5159,-7174,-32000,12000,118000,169143,
-4628,-8936,13088,-10788,6712,-6567,-34000,12000,117000,169156,
-4652,-9164,13004,-10848,6617,-6589,-34000,12000,117000,169158,
-4572,-9288,13012,-10943,6307,-6724,-34000,12000,116000,169160,
-4440,-10916,12628,-11903,3085,-7817,-35000,12000,116000,169173,
-4260,-11088,12700,-12133,2612,-7992,-36000,12000,115000,169175,
-4192,-11200,12516,-12345,2240,-8200,-36000,12000,115000,169177,
-4144,-11320,13412,-13107,2076,-8654,-37000,12000,115000,169190,
-4024,-11248,13192,-13149,2300,-8604,-38000,12000,114000,169192,
-3416,-10592,13024,-13354,3091,-8509,-39000,12000,114000,169205,
-3216,-10500,13192,-13337,3124,-8577,-39000,11000,113000,169207,
-3132,-10488,13256,-13329,3178,-8632,-40000,11000,113000,169209,
-3236,-10688,12856,-13036,3875,-8954,-41000,11000,112000,169222,
-3164,-10744,12792,-12923,4124,-8942,-41000,11000,112000,169224,
-3332,-11940,11596,-12340,5672,-8508,-43000,11000,111000,169237,
-3424,-12288,11704,-12320,5802,-8473,-43000,11000,111000,169239,
-3180,-12796,11356,-12360,5866,-8567,-43000,11000,111000,169241,
-2904,-14908,10240,-12837,5017,-9838,-45000,11000,110000,169254,
-2920,-15032,10108,-12946,4809,-10053,-45000,10000,110000,169256,
-3444,-15552,9836,-13667,4627,-10588,-47000,10000,109000,169269,
-3592,-15468,10000,-13789,4729,-10583,-47000,10000,108000,169271,
-3672,-15480,9816,-13814,4853,-10558,-47000,10000,108000,169273,
-3888,-14592,10272,-14167,5379,-10393,-49000,10000,107000,169286,
-3948,-14424,10032,-14193,5420,-10370,-49000,9000,107000,169288,
-3880,-14144,8920,-14584,4589,-10386,-51000,9000,106000,169301,
-3764,-14164,8636,-14702,4401,-10386,-51000,9000,106000,169303,
-3656,-14120,8732,-14849,4142,-10350,-51000,9000,106000,169305,
-3004,-14276,8748,-15622,3028,-10515,-53000,8000,105000,169318,
-2704,-14488,8644,-15743,2906,-10573,-53000,8000,105000,169320,
-2652,-14720,8688,-15840,2812,-10700,-53000,8000,104000,169322,
-2112,-15936,8908,-16718,2015,-11544,-55000,7000,104000,169335,
-2108,-16144,9052,-16847,1845,-11628,-56000,7000,103000,169337,
-3364,-17324,9420,-17240,1175,-11948,-57000,6000,103000,169350,
-3704,-17600,9260,-17255,991,-11873,-58000,6000,103000,169352,
-3876,-17796,9136,-17292,798,-11569,-58000,6000,102000,169354,
-4476,-18472,9412,-17519,-312,-10671,-60000,5000,102000,169367,
-4348,-18588,9612,-17547,-511,-10516,-60000,5000,102000,169369,
-4384,-18748,10120,-17485,-635,-10411,-60000,5000,102000,169371,
-4376,-19100,11476,-16960,-1063,-10127,-62000,4000,101000,169384,
-4432,-19072,11464,-16753,-1053,-10053,-62000,4000,101000,169386,
-4680,-18696,11372,-16047,-1700,-9388,-64000,3000,101000,169398,
-4456,-18472,11156,-15938,-1893,-9248,-64000,3000,101000,169401,
-4552,-18468,11076,-15840,-2070,-9115,-64000,2000,101000,169403,
-4632,-18400,10932,-15271,-2578,-8380,-66000,2000,101000,169416,
-4628,-18452,11040,-15112,-2536,-8166,-66000,2000,101000,169418,
-4400,-18696,11620,-14038,-1978,-6809,-67000,1000,101000,169430,
-3948,-18524,11868,-13771,-1861,-6562,-68000,1000,101000,169433,
-3356,-17960,12324,-13391,-1833,-6378,-68000,1000,101000,169435,
-3076,-18464,10196,-12319,-106,-4961,-69000,0,101000,169447,
-2996,-18256,10052,-12202,212,-4637,-69000,0,101000,169450,
-3016,-18292,9864,-12072,294,-4295,-69000,0,101000,169452,
-1552,-17532,9564,-11735,-1257,-2851,-70000,0,101000,169465,
-1244,-17452,10156,-11692,-1609,-2744,-71000,0,101000,169467,
-876,-17456,10096,-11613,-1945,-2707,-71000,0,101000,169469,
292,-17516,9652,-10717,-2987,-3389,-72000,0,101000,169482,
556,-17532,8728,-10497,-2490,-3589,-72000,0,101000,169484,
652,-17472,7964,-10341,-1989,-3870,-72000,0,101000,169486,
-1084,-17480,8520,-10651,-2694,-3812,-73000,0,101000,169499,
-1168,-17520,8312,-10662,-3056,-3735,-73000,0,101000,169501,
-1188,-17436,7980,-10645,-3164,-3690,-73000,0,101000,169503,
-1576,-17216,7820,-10654,-2865,-3468,-74000,-1000,101000,169516,
-1680,-17132,7976,-10571,-2900,-3346,-75000,-1000,101000,169518,
-1108,-17264,7892,-10371,-3034,-2604,-76000,-1000,101000,169530,
-872,-17212,7868,-10309,-3008,-2465,-76000,-1000,101000,169533,
-584,-17276,8048,-10249,-2929,-2321,-76000,-1000,102000,169535,
268,-16884,8512,-9475,-1944,-1736,-77000,-1000,102000,169547,
260,-16940,9080,-9250,-1742,-1644,-77000,-1000,102000,169550,
144,-16920,9108,-9151,-1840,-1549,-77000,-1000,102000,169552,
1232,-18056,7520,-7615,-930,-1695,-78000,-2000,102000,169564,
1444,-18120,6848,-7428,-293,-1971,-78000,-2000,102000,169567,
536,-17960,4928,-7782,-94,-2986,-78000,-2000,102000,169579,
336,-17596,4932,-8030,-495,-3074,-79000,-2000,102000,169582,
324,-17400,4764,-8228,-861,-3106,-79000,-2000,102000,169584,
-456,-16636,6136,-8545,-1381,-3390,-80000,-2000,102000,169596,
-576,-16684,6544,-8378,-1273,-3380,-80000,-2000,102000,169599,
-768,-16660,6624,-8148,-1086,-3351,-80000,-2000,102000,169601,
-1592,-16588,6724,-7179,-235,-2904,-80000,-3000,102000,169613,
-1508,-16548,6660,-7029,-164,-2768,-80000,-3000,102000,169616,
-1644,-16680,6548,-6926,-178,-2577,-81000,-3000,102000,169618,
-1784,-16768,6024,-6430,-78,-1910,-81000,-3000,102000,169630,
-1760,-16800,5672,-6403,-86,-1803,-81000,-3000,102000,169633,
-1696,-16680,5100,-5876,73,-1384,-82000,-3000,102000,169645,
-1612,-16576,4780,-5905,-7,-1309,-82000,-3000,102000,169647,
-1788,-16540,4604,-5926,-127,-1174,-82000,-3000,102000,169650,
-1552,-16124,4628,-6108,-921,-737,-82000,-3000,102000,169662,
-1432,-16116,4744,-6112,-1022,-735,-83000,-3000,102000,169664,
-1360,-15988,4916,-6096,-1077,-745,-83000,-3000,102000,169667,
-1036,-16148,5496,-5652,-947,-523,-83000,-3000,102000,169679,
-900,-16300,5760,-5547,-835,-453,-83000,-3000,102000,169681,
-812,-16328,5960,-5387,-709,-408,-83000,-3000,102000,169684,
128,-16512,6824,-4247,900,-495,-84000,-3000,102000,169696,
204,-16572,6740,-4006,1280,-591,-84000,-3000,102000,169699,
224,-16588,6472,-3755,1689,-683,-84000,-3000,102000,169701,
-344,-16380,6408,-2763,3046,-1018,-84000,-3000,101000,169713,
-464,-16360,6396,-2597,3139,-1021,-84000,-3000,101000,169715,
-1684,-15860,5964,-1688,4045,-812,-84000,-3000,101000,169728,
-1892,-15988,5804,-1596,4173,-639,-84000,-3000,101000,169730,
-2164,-15768,5820,-1509,4176,-486,-84000,-3000,101000,169733,
-2348,-15460,5652,-1488,3633,254,-84000,-3000,100000,169745,
-2244,-15404,5972,-1488,3491,277,-84000,-3000,100000,169747,
-2264,-15380,6204,-1456,3365,299,-84000,-3000,100000,169750,
-1860,-15168,6304,-1479,2491,24,-84000,-3000,100000,169762,
-1932,-15156,6200,-1468,2351,-45,-84000,-3000,100000,169764,
-1928,-15232,6388,-1425,2254,-81,-84000,-3000,100000,169766,
-2224,-15376,6396,-1140,1725,-67,-84000,-3000,100000,169779,
-2332,-15456,6036,-1098,1694,-64,-84000,-3000,100000,169781,
-2436,-15604,6020,-1055,1620,-11,-84000,-3000,100000,169783,
-2644,-15764,5820,-905,1179,520,-84000,-3000,100000,169796,
-2528,-15764,5804,-866,1102,620,-84000,-3000,100000,169798,
-2632,-15808,5988,-754,1086,669,-84000,-2000,100000,169801,
-2792,-15560,6208,-221,1186,1116,-84000,-2000,100000,169813,
-2824,-15472,6196,-177,1217,1220,-84000,-2000,100000,169815,
-3072,-14816,5440,-125,705,1864,-84000,-2000,99000,169828,
-3124,-14916,5572,-196,485,1976,-84000,-2000,99000,169830,
-3104,-14840,5484,-252,159,2094,-84000,-2000,99000,169832,
-2380,-15248,5564,-315,-906,2354,-84000,-2000,100000,169845,
-2428,-15476,5764,-267,-988,2398,-84000,-2000,100000,169847,
-2236,-15440,5672,-185,-1030,2430,-84000,-1000,100000,169849,
-1232,-16448,5884,-15,-1312,2861,-84000,-1000,100000,169862,
-860,-16744,5856,51,-1396,2893,-84000,-1000,100000,169864,
-552,-16900,6388,153,-1423,2881,-84000,-1000,100000,169867,
792,-17080,7624,1173,-149,2485,-83000,-1000,100000,169879,
956,-16896,7916,1431,230,2396,-83000,-1000,100000,169881,
860,-16848,7984,1691,636,2324,-83000,-1000,100000,169883,
644,-16224,8304,2985,2028,2001,-83000,-1000,100000,169896,
500,-16088,8320,3176,2196,1952,-83000,-1000,100000,169898,
308,-16044,8352,3340,2270,1861,-83000,-1000,100000,169901,
-1048,-16048,8500,4154,2466,1686,-82000,0,99000,169913,
-1388,-16140,8596,4300,2425,1739,-82000,0,99000,169915,
-1748,-16160,8400,4433,2354,1791,-82000,0,99000,169918,
-2756,-16800,9216,4997,1870,2736,-81000,0,99000,169930,
-2876,-16772,9156,5101,1725,2988,-81000,0,99000,169932,
-2916,-16968,9404,5193,1686,3210,-81000,0,99000,169935,
-2128,-17428,10464,5818,1169,4591,-80000,0,99000,169947,
-1800,-17540,10948,5947,1023,4795,-80000,0,99000,169949,
-1488,-17596,11448,6160,947,5006,-80000,0,99000,169952,
884,-18040,12144,7891,1919,5342,-79000,0,99000,169964,
1416,-18128,12292,8290,2303,5326,-79000,1000,99000,169966,
1696,-18312,12176,8684,2645,5286,-79000,1000,99000,169969,
2916,-18572,10728,10346,3997,4689,-78000,1000,99000,169981,
2888,-18648,10708,10653,4231,4493,-78000,1000,99000,169984,
2972,-18756,10752,10852,4363,4263,-77000,1000,99000,169986,
2256,-19084,11616,11545,4699,2750,-76000,2000,98000,169998,
1968,-19108,12296,11707,4773,2528,-76000,2000,98000,170000,
1668,-19268,12552,11973,4893,2344,-76000,2000,98000,170003,
-116,-20128,14072,14206,6349,2477,-74000,2000,98000,170015,
-356,-20244,14124,14672,6732,2598,-74000,2000,97000,170017,
-356,-20300,14148,15124,7088,2795,-74000,2000,97000,170020,
-1288,-20504,13220,16802,7958,3238,-72000,3000,97000,170032,
-1428,-20240,12376,16633,7752,3289,-72000,3000,97000,170034,
-1672,-19852,11928,16409,7495,3284,-71000,3000,96000,170037,
-3088,-21076,14192,17739,6568,3990,-70000,3000,96000,170049,
-3240,-21112,14596,18390,6792,4273,-69000,4000,96000,170052,
-3416,-21296,14668,19011,7200,4583,-69000,4000,96000,170054,
-4276,-21156,13420,21343,9099,6743,-67000,5000,95000,170066,
-4276,-21192,13260,21532,9080,7117,-67000,5000,95000,170069,
-4384,-21188,13124,21643,8896,7442,-66000,5000,95000,170071,
-3952,-20888,12240,21849,6976,8288,-64000,6000,95000,170083,
-3908,-20776,12240,21866,6653,8283,-64000,6000,95000,170086,
-4040,-20544,12276,21790,6216,8243,-63000,6000,95000,170088,
-5116,-20460,12960,21013,3181,7766,-61000,7000,95000,170101,
-5132,-20600,13408,21199,2744,7835,-61000,7000,95000,170103,
-5936,-21128,14572,23064,2316,9173,-59000,8000,95000,170115,
-5924,-21216,14648,23353,2480,9507,-58000,8000,95000,170118,
-6120,-21128,14780,23628,2625,9838,-58000,9000,95000,170120,
-5488,-21128,13788,24560,1882,10984,-55000,10000,96000,170132,
-5368,-20968,13684,24683,1621,10996,-55000,10000,96000,170135,
-5328,-20864,13660,24776,1281,10951,-54000,10000,96000,170137,
-6220,-20364,12500,25156,-616,10407,-52000,11000,96000,170149,
-6436,-20216,12440,25189,-935,10362,-51000,11000,97000,170152,
-6964,-20220,12420,25245,-1234,10401,-51000,11000,97000,170154,
-8544,-19452,11852,25040,-2647,11231,-48000,12000,98000,170167,
-8736,-19324,11908,24935,-2924,11483,-48000,12000,98000,170169,
-8376,-18948,12344,24236,-4459,12856,-45000,13000,99000,170181,
-8092,-18968,12488,24114,-4798,13031,-45000,13000,99000,170184,
-7740,-18924,12636,24052,-5030,13182,-45000,13000,99000,170186,
-5784,-18384,13276,23875,-5721,13350,-42000,13000,101000,170198,
-5428,-18184,13120,23492,-5775,13138,-42000,13000,101000,170201,
-4996,-18060,12992,23104,-5991,12779,-41000,13000,101000,170203,
-5576,-18404,16364,23847,-7197,11047,-39000,14000,102000,170215,
-5820,-18432,16776,24537,-6983,10987,-38000,14000,103000,170218,
-7848,-17508,15028,27430,-3923,11866,-35000,14000,104000,170230,
-8096,-17340,14396,27470,-3601,12064,-35000,14000,104000,170233,
-8568,-17136,13776,27356,-3629,12371,-34000,14000,104000,170235,
-9820,-16564,13264,26725,-5468,13586,-31000,15000,106000,170247,
-9628,-16380,13248,26654,-5602,13682,-31000,15000,106000,170250,
-8848,-15520,14376,26584,-5979,14120,-28000,15000,107000,170262,
-8692,-15336,14284,26626,-6161,14223,-27000,15000,108000,170264,
-8540,-15188,14424,26654,-6331,14381,-27000,15000,108000,170267,
-7200,-14208,14908,26797,-7165,14907,-24000,15000,110000,170279,
-7068,-14068,14876,26848,-7157,14897,-24000,15000,110000,170282,
-7076,-13264,16056,27501,-7141,14282,-21000,15000,111000,170294,
-7192,-13216,15884,27684,-7118,14133,-20000,15000,112000,170296,
-7360,-13104,15832,27812,-7077,14031,-20000,15000,112000,170298,
-8592,-11960,14920,27601,-7037,14058,-17000,15000,113000,170311,
-8832,-11784,15120,27527,-7122,14132,-16000,15000,114000,170313,
-8620,-11060,15096,27318,-7318,14829,-13000,14000,115000,170326,
-8512,-10604,14688,27273,-7269,14983,-13000,14000,116000,170328,
-8576,-10380,14448,27206,-7254,15122,-12000,14000,116000,170330,
-7924,-8984,14176,26809,-7531,15709,-9000,14000,118000,170343,
-7584,-8580,13856,26715,-7547,15738,-9000,14000,118000,170345,
-7488,-8360,13840,26661,-7514,15708,-8000,14000,118000,170347,
-7112,-6752,12860,25872,-7859,15545,-5000,13000,120000,170360,
-7196,-6476,12668,25679,-8028,15552,-5000,13000,120000,170362,
-7180,-5336,12100,24497,-8768,15788,-2000,13000,122000,170375,
-7168,-5280,11824,24281,-8931,15910,-2000,12000,122000,170377,
-7128,-5100,11812,24052,-9160,16010,-1000,12000,122000,170379,
-5648,-4280,11256,22889,-9640,16670,0,12000,124000,170392,
-5264,-4132,11112,22672,-9634,16773,0,11000,124000,170394,
-4988,-3896,10984,22445,-9623,16874,1000,11000,124000,170396,
-2708,-2368,10396,21056,-10164,17201,3000,10000,126000,170409,
-2092,-1952,10132,20755,-10328,17165,4000,10000,126000,170411,
-1512,-1688,10180,20449,-10489,17037,4000,10000,127000,170413,
1776,-284,9872,18885,-10745,14926,6000,8000,128000,170426,
1972,92,9912,18449,-10930,14231,6000,8000,128000,170428,
2196,380,9932,18138,-11153,13548,7000,8000,128000,170430,
1244,2832,10348,17037,-11380,10591,8000,7000,129000,170443,
884,2896,10560,16948,-11037,10312,9000,6000,129000,170445,
512,3192,10548,16898,-10653,10080,9000,6000,129000,170447,
-1980,3268,9688,16435,-8725,9777,11000,5000,130000,170460,
-2264,3056,9548,16121,-8618,9885,11000,5000,130000,170462,
-2344,2980,9228,16226,-8579,10013,11000,5000,131000,170464,
-2060,1988,7520,14556,-9364,10917,13000,4000,131000,170477,
-1920,1928,7188,14122,-9571,11011,13000,4000,132000,170479,
-1644,1752,7224,13637,-9798,11088,13000,4000,132000,170481,
632,1652,7468,11165,-11294,10565,14000,2000,132000,170494,
1036,1768,7688,10768,-11567,10325,15000,2000,132000,170496,
1288,1964,7752,10378,-11813,10078,15000,2000,133000,170498,
2260,3080,8816,8886,-11996,8403,16000,0,133000,170511,
2104,3288,9632,8931,-11803,8355,16000,0,133000,170513,
1860,3304,10280,9340,-11432,8478,16000,0,133000,170515,
3188,3756,9964,11136,-6216,8979,17000,0,134000,170528,
3240,3908,9824,11147,-5357,8919,17000,0,134000,170530,
3240,3952,9944,11132,-4713,8797,17000,0,134000,170532,
3112,4228,9340,10880,-3576,8003,19000,-1000,135000,170545,
2948,4236,9348,10762,-3451,7809,19000,-1000,135000,170547,
2908,4244,9208,10567,-3282,7593,19000,-1000,135000,170549,
1564,4584,8500,9277,-2772,6329,20000,-2000,135000,170562,
1312,4584,8596,9078,-2783,6211,20000,-2000,136000,170564,
1056,4624,8384,8905,-2784,6093,20000,-2000,136000,170566,
-420,4780,7380,7675,-3101,6071,21000,-3000,136000,170579,
-336,4836,7428,7370,-3132,6162,21000,-3000,136000,170581,
-448,4960,7604,7115,-3219,6213,21000,-3000,136000,170583,
196,5148,7560,5272,-4145,6587,22000,-3000,137000,170596,
384,5172,7548,4943,-4350,6596,22000,-3000,137000,170598,
568,5200,7692,4554,-4522,6570,22000,-3000,137000,170600,
2672,5348,8540,2943,-4729,5961,22000,-4000,137000,170613,
2888,5412,8780,2770,-4660,5793,22000,-4000,137000,170615,
3104,5424,8924,2615,-4537,5604,22000,-4000,137000,170617,
4172,5480,9732,2223,-3244,4280,23000,-5000,137000,170630,
4248,5548,9744,2220,-2974,4071,23000,-5000,138000,170632,
4188,5456,10088,2247,-2729,3851,23000,-5000,138000,170634,
3888,5884,9844,2158,-1864,2886,23000,-6000,138000,170647,
3808,5984,9888,2135,-1731,2740,23000,-6000,138000,170649,
3588,6132,9788,2013,-1507,2581,23000,-6000,138000,170651,
2248,6744,9796,1317,-686,2083,23000,-6000,138000,170664,
2244,6784,9764,1165,-643,2063,23000,-6000,138000,170666,
1980,6876,9748,1020,-650,2101,23000,-6000,138000,170668,
2096,6892,10028,17,-819,2504,23000,-6000,138000,170681,
2200,6944,10324,-158,-772,2551,23000,-6000,138000,170683,
2448,6972,10196,-354,-730,2569,23000,-6000,138000,170685,
3388,6712,11024,-1133,-150,2170,23000,-6000,138000,170698,
3604,6552,11316,-1233,-109,2014,23000,-6000,138000,170700,
3636,6572,11316,-1264,-60,1853,23000,-6000,138000,170702,
3476,6184,12164,-1443,228,852,23000,-6000,139000,170715,
3420,6216,12284,-1448,281,659,23000,-6000,139000,170717,
3308,6164,12360,-1435,278,505,23000,-6000,139000,170719,
2424,6296,12760,-1508,732,-11,23000,-6000,139000,170732,
2240,6272,12772,-1545,822,-23,23000,-6000,139000,170734,
2168,6252,12612,-1553,869,-19,23000,-6000,139000,170736,
2032,6412,12984,-1878,1172,199,23000,-6000,139000,170749,
2172,6404,13016,-1950,1178,251,23000,-6000,139000,170751,
2192,6448,13204,-2030,1188,273,23000,-6000,139000,170753,
2884,6380,13536,-2244,1141,179,22000,-6000,139000,170766,
3040,6464,13852,-2277,1169,92,22000,-6000,139000,170768,
2980,6468,13900,-2253,1180,-21,22000,-6000,139000,170770,
2960,6348,14672,-2110,1437,-790,22000,-6000,139000,170783,
2868,6436,14688,-2040,1479,-947,22000,-6000,139000,170785,
2828,6376,14912,-1946,1463,-1054,22000,-6000,139000,170787,
1844,6508,15500,-1622,1480,-1402,22000,-6000,139000,170800,
1672,6584,15348,-1552,1460,-1405,22000,-6000,139000,170802,
1544,6552,15588,-1488,1420,-1397,22000,-6000,139000,170804,
916,7140,15400,-1305,1285,-1193,22000,-6000,139000,170817,
832,7140,15588,-1308,1232,-1142,22000,-5000,139000,170819,
844,7264,15632,-1313,1139,-1065,22000,-5000,139000,170821,
1160,7620,15220,-1555,761,-865,22000,-5000,139000,170834,
1208,7624,15316,-1623,667,-833,22000,-5000,139000,170836,
1324,7656,15276,-1678,594,-814,22000,-5000,139000,170838,
2228,7628,15304,-1950,0,-711,21000,-5000,138000,170850,
2356,7496,15516,-2007,-77,-725,21000,-5000,138000,170853,
2380,7532,15564,-1994,-153,-763,21000,-5000,138000,170855,
2976,7336,15784,-1826,111,-1190,21000,-5000,138000,170868,
2988,7224,16032,-1785,216,-1254,21000,-5000,138000,170870,
2964,7288,15916,-1688,307,-1349,21000,-5000,138000,170872,
2436,7364,16272,-1243,702,-1647,21000,-5000,138000,170884,
2320,7444,16236,-1176,734,-1667,21000,-5000,138000,170887,
2316,7500,16132,-1119,770,-1662,21000,-5000,138000,170889,
1484,7880,16120,-810,1062,-1636,21000,-5000,138000,170901,
1304,8048,16280,-793,1109,-1595,21000,-5000,138000,170904,
1228,8064,16068,-720,1098,-1572,21000,-5000,138000,170906,
788,8208,15816,-706,977,-1305,21000,-5000,138000,170918,
584,8024,15984,-736,888,-1242,21000,-5000,138000,170921,
628,8136,15932,-781,848,-1151,21000,-5000,138000,170923,
828,8020,15520,-1135,476,-822,21000,-5000,138000,170935,
1020,7936,15400,-1202,378,-706,21000,-5000,138000,170937,
1008,7892,15372,-1245,278,-685,21000,-5000,138000,170940,
1560,7776,15568,-1501,58,-575,21000,-5000,138000,170952,
1616,7984,15592,-1547,67,-616,21000,-5000,138000,170954,
1700,7776,15416,-1523,95,-597,21000,-5000,138000,170957,
1756,7824,15788,-1527,388,-700,21000,-4000,138000,170969,
1748,7820,15904,-1504,456,-683,21000,-4000,138000,170972,
1732,7792,15892,-1495,510,-692,21000,-4000,138000,170974,
1504,7840,15816,-1293,680,-652,20000,-4000,138000,170986,
1424,7868,15860,-1273,762,-669,20000,-4000,138000,170989,
1324,7884,15840,-1267,759,-654,20000,-4000,138000,170991,
472,7856,15732,-1228,662,-502,20000,-4000,138000,171003,
312,7864,15540,-1286,622,-486,20000,-4000,138000,171005,
148,7928,15540,-1303,586,-427,20000,-4000,138000,171008,
-136,7952,15444,-1588,147,121,20000,-4000,138000,171020,
-40,7928,15456,-1675,44,243,20000,-4000,138000,171022,
-68,7816,15464,-1731,-72,324,20000,-4000,138000,171025,
756,7620,15264,-2124,-545,669,20000,-4000,138000,171037,
1100,7616,15328,-2190,-568,674,20000,-4000,138000,171039,
1212,7612,15288,-2224,-594,658,20000,-4000,138000,171042,
2128,7276,15664,-2308,-626,533,20000,-4000,138000,171054,
2192,7292,15568,-2266,-562,479,20000,-4000,138000,171056,
2324,7192,15720,-2232,-516,425,20000,-4000,138000,171059,
2376,7180,15904,-1869,12,109,20000,-4000,138000,171071,
2256,7072,15912,-1808,139,32,19000,-4000,138000,171073,
2040,7080,15952,-1755,229,25,19000,-4000,138000,171075,
1400,7176,15888,-1435,817,-77,19000,-4000,138000,171088,
1276,7192,16240,-1392,871,-88,19000,-4000,138000,171090,
924,7040,16104,-1314,935,-69,19000,-4000,138000,171092,
220,6868,16084,-1072,694,201,19000,-4000,138000,171105,
32,6868,15860,-1032,625,238,19000,-4000,138000,171107,
-88,6812,16184,-1001,494,301,19000,-4000,138000,171109,
-96,6672,15840,-984,-146,481,19000,-4000,138000,171122,
-148,6504,15796,-1034,-245,533,19000,-4000,138000,171124,
-12,6604,15736,-1076,-365,604,19000,-4000,138000,171126,
836,6496,15500,-1329,-981,761,19000,-4000,138000,171139,
1092,6588,15564,-1365,-1088,808,19000,-4000,138000,171141,
1472,6580,15732,-1396,-1132,807,19000,-4000,138000,171143,
2764,6532,15780,-1212,-787,557,19000,-4000,138000,171156,
2984,6612,15920,-1120,-609,435,19000,-4000,138000,171158,
3020,6548,15888,-1035,-431,355,19000,-4000,138000,171160,
3276,6620,16056,-369,634,-346,19000,-4000,138000,171173,
3184,6664,15932,-270,876,-448,19000,-4000,138000,171175,
3160,6680,15940,-140,1070,-581,19000,-4000,138000,171177,
1920,6664,15720,409,1943,-1052,19000,-4000,138000,171190,
1848,6736,15616,505,2029,-1106,19000,-4000,138000,171192,
1672,6724,15612,533,2050,-1120,19000,-4000,138000,171194,
384,6884,15084,596,2046,-1007,19000,-4000,138000,171206,
220,6864,15356,577,1951,-910,19000,-4000,138000,171209,
148,6900,15064,517,1947,-847,19000,-4000,138000,171211,
-208,7096,15128,250,1314,-394,19000,-4000,138000,171223,
-244,7108,15172,192,1118,-354,19000,-4000,138000,171226,
-248,7040,15260,153,983,-304,19000,-4000,138000,171228,
356,6900,15288,-153,126,-300,19000,-4000,138000,171240,
308,7076,15304,-197,11,-311,19000,-4000,138000,171243,
512,6904,15424,-249,-75,-309,19000,-4000,138000,171245,
1052,7008,15680,-321,-207,-342,19000,-4000,138000,171257,
1104,6940,15704,-318,-171,-376,19000,-4000,138000,171259,
1276,6980,15892,-329,-96,-404,19000,-4000,138000,171262,
1784,7020,15864,-217,332,-423,19000,-4000,138000,171274,
1836,6940,15908,-195,453,-449,19000,-4000,138000,171276,
1808,7000,16140,-176,576,-478,19000,-4000,138000,171279,
2036,7132,15760,-42,1355,-664,19000,-3000,138000,171291,
1908,7096,15892,6,1478,-719,19000,-3000,138000,171293,
1904,7128,15676,26,1602,-739,19000,-3000,138000,171295,
1112,6884,15476,37,1815,-791,19000,-3000,138000,171308,
1012,6880,15248,4,1786,-779,19000,-3000,138000,171310,
872,6872,15376,-32,1843,-742,19000,-3000,138000,171312,
132,6772,15304,-254,1647,-606,19000,-3000,138000,171325,
-24,6928,15284,-305,1577,-536,19000,-3000,138000,171327,
-76,6908,15356,-386,1483,-480,19000,-3000,138000,171329,
-228,7100,15580,-798,929,-50,19000,-3000,138000,171342,
-224,7048,15644,-895,803,26,19000,-3000,138000,171344,
-140,7160,15700,-987,713,83,19000,-3000,138000,171346,
580,7000,15768,-1355,273,360,19000,-3000,138000,171359,
512,6940,15788,-1428,174,374,19000,-3000,138000,171361,
828,6924,15544,-1481,156,382,19000,-3000,138000,171364,
1608,6592,15912,-1630,45,322,19000,-3000,138000,171376,
1584,6580,15908,-1636,48,311,19000,-3000,138000,171378,
1616,6572,15908,-1642,94,270,19000,-3000,138000,171381,
1860,6484,15756,-1582,477,119,19000,-3000,138000,171393,
1916,6552,15896,-1566,539,80,19000,-3000,138000,171395,
1780,6532,15664,-1532,607,85,19000,-3000,138000,171398,
1468,6540,15496,-1503,945,26,18000,-3000,138000,171410,
1328,6624,15384,-1501,964,31,18000,-3000,138000,171412,
1348,6656,15380,-1520,971,2,18000,-3000,138000,171415,
908,6488,15180,-1662,956,54,18000,-2000,138000,171427,
840,6560,15220,-1730,910,46,18000,-2000,138000,171429,
864,6528,15340,-1724,859,50,18000,-2000,138000,171432,
776,6468,15348,-2000,487,115,18000,-2000,138000,171444,
832,6492,15200,-2067,432,88,18000,-2000,138000,171446,
732,6376,15460,-2107,354,109,18000,-2000,138000,171449,
984,6340,15504,-2246,36,102,18000,-2000,138000,171461,
952,6328,15732,-2269,8,73,18000,-2000,138000,171464,
1152,6252,15800,-2266,-23,67,18000,-2000,138000,171466,
1368,6324,15992,-2211,-19,-130,18000,-2000,138000,171478,
1292,6376,15972,-2154,27,-138,18000,-2000,138000,171481,
1404,6304,15948,-2156,78,-163,18000,-2000,138000,171483,
1364,6152,16068,-1995,232,-284,17000,-2000,138000,171495,
1392,6112,16104,-1957,244,-316,17000,-2000,138000,171497,
1360,6172,15944,-1904,307,-330,17000,-2000,138000,171500,
1384,5980,15796,-1790,582,-469,17000,-2000,138000,171512,
1424,6100,15728,-1765,593,-506,17000,-2000,138000,171514,
1484,6052,15776,-1751,663,-527,17000,-2000,138000,171517,
1208,6136,15816,-1706,756,-560,17000,-2000,138000,171529,
1344,6084,15760,-1670,796,-593,17000,-2000,138000,171531,
1232,6104,15928,-1646,801,-604,17000,-2000,138000,171534,
1040,6100,15836,-1544,989,-785,17000,-2000,138000,171546,
984,6172,15796,-1515,990,-808,17000,-2000,138000,171548,
896,6144,16044,-1528,1005,-853,17000,-2000,138000,171551,
428,6308,16024,-1506,874,-978,17000,-2000,138000,171563,
324,6260,15904,-1523,815,-1001,17000,-2000,138000,171565,
356,6136,15944,-1529,809,-1000,17000,-2000,138000,171568,
176,5968,16068,-1537,506,-907,16000,-2000,138000,171580,
232,6000,16020,-1530,466,-892,16000,-2000,138000,171582,
272,6004,16136,-1526,427,-903,16000,-2000,137000,171585,
552,5796,16280,-1441,271,-873,16000,-2000,137000,171597,
648,5924,16304,-1408,273,-875,16000,-2000,137000,171599,
776,5928,16452,-1402,274,-894,16000,-2000,137000,171602,
812,6028,16444,-1216,584,-1025,16000,-2000,137000,171614,
964,6096,16408,-1183,683,-1038,16000,-2000,137000,171616,
980,6100,16248,-1154,742,-1077,16000,-2000,137000,171619,
916,6292,16172,-1076,865,-1175,16000,-1000,137000,171631,
864,6216,16184,-1074,849,-1171,16000,-1000,137000,171633,
808,6352,16112,-1053,882,-1190,16000,-1000,137000,171636,
552,6404,16344,-918,1022,-1106,16000,-1000,137000,171648,
544,6516,16216,-904,1071,-1062,16000,-1000,137000,171650,
436,6504,16340,-911,1107,-1056,16000,-1000,137000,171653,
200,6488,16228,-799,1112,-906,16000,-1000,137000,171665,
84,6456,16268,-810,1086,-892,16000,-1000,137000,171667,
108,6384,16312,-821,1084,-855,16000,-1000,137000,171670,
160,6412,16428,-848,847,-759,16000,-1000,137000,171682,
128,6416,16568,-893,757,-741,16000,-1000,137000,171684,
144,6368,16500,-909,744,-700,16000,-1000,137000,171687,
220,6396,16464,-995,733,-684,16000,-1000,137000,171699,
196,6356,16472,-1032,726,-663,16000,-1000,137000,171701,
104,6320,16416,-1030,686,-669,16000,-1000,137000,171703,
88,6256,16416,-1021,514,-707,16000,-1000,137000,171716,
-88,6468,16488,-1035,440,-696,16000,-1000,137000,171718,
-84,6468,16496,-1093,360,-660,16000,-1000,137000,171720,
36,6476,16556,-1071,22,-383,16000,-1000,137000,171733,
52,6332,16752,-1070,95,-347,16000,-1000,137000,171735,
148,6388,16592,-1072,107,-305,16000,-1000,137000,171737,
496,6284,16496,-1068,121,-213,15000,-1000,137000,171750,
520,6380,16360,-1157,40,-231,15000,-1000,137000,171752,
440,6308,16512,-1166,-33,-247,15000,-1000,137000,171754,
648,6164,16464,-1136,-102,-406,15000,-1000,137000,171767,
724,6300,16716,-1113,-99,-398,15000,-1000,137000,171769,
664,6296,16412,-1073,-76,-441,15000,-1000,137000,171771,
612,6148,16708,-847,187,-416,15000,-1000,137000,171784,
576,6168,16768,-813,196,-418,15000,-1000,137000,171786,
612,6116,16480,-797,219,-361,15000,-1000,137000,171788,
584,6172,16576,-747,376,-291,15000,-1000,137000,171801,
516,6136,16672,-693,342,-281,15000,-1000,137000,171803,
540,6244,16448,-699,408,-291,15000,-1000,137000,171805,
532,6244,16340,-683,355,-412,15000,-1000,137000,171818,
432,6360,16420,-723,307,-427,15000,-1000,137000,171820,
304,6296,16328,-743,289,-434,15000,-1000,137000,171822,
132,6232,16064,-866,79,-384,15000,-1000,137000,171834,
-64,6184,16192,-866,28,-357,15000,-1000,137000,171837,
48,6288,16016,-885,6,-330,15000,-1000,137000,171839,
92,6156,16184,-894,-40,-307,15000,-1000,137000,171841,
116,6108,16080,-858,-133,-191,15000,-1000,137000,171854,
124,6164,16020,-891,-128,-192,15000,-1000,136000,171856,
104,6228,15944,-858,-97,-161,15000,-1000,136000,171858,
272,6340,16060,-840,-16,-201,15000,-1000,136000,171870,
232,6376,16348,-831,23,-241,15000,-1000,136000,171873,
180,6308,16136,-783,62,-232,15000,-1000,136000,171875,
-52,6356,16144,-678,154,-330,15000,-1000,136000,171887,
48,6300,16236,-659,167,-338,15000,-1000,136000,171890,
-104,6288,16200,-640,134,-325,15000,-1000,136000,171892,
-284,6036,16276,-557,98,-268,15000,0,136000,171904,
-440,6000,16480,-545,52,-226,15000,0,136000,171907,
-412,5872,16372,-494,37,-194,15000,0,136000,171909,
-396,5780,16436,-453,56,-189,15000,0,136000,171911,
-468,5792,16252,-307,252,-38,15000,0,136000,171924,
-416,5800,16032,-316,242,-23,15000,0,136000,171926,
-500,5760,15928,-313,227,-8,15000,0,136000,171928,
-352,5708,15836,-487,20,10,15000,0,136000,171941,
-320,5756,15752,-478,10,4,15000,0,136000,171943,
-260,5904,15640,-491,64,7,15000,0,136000,171945,
-328,5824,15820,-502,72,-10,15000,0,136000,171947,
-196,5844,16036,-460,242,52,15000,0,136000,171960,
-100,5792,15968,-459,265,65,15000,0,136000,171962,
-148,5736,16024,-421,315,69,15000,0,136000,171964,
-220,5776,16052,-391,352,77,15000,0,136000,171967,
-260,5728,16184,-334,516,39,15000,0,136000,171979,
-140,5732,16004,-312,510,35,15000,0,136000,171981,
-164,5644,16312,-283,556,21,15000,0,136000,171984,
-288,5676,16188,-304,555,26,15000,0,136000,171986,
-252,5668,16184,-201,609,21,15000,0,136000,171998,
-392,5672,16252,-178,618,-3,15000,0,136000,172000,
-376,5704,16296,-162,649,20,15000,0,136000,172003,
-472,5688,16304,-116,659,135,15000,0,136000,172015,
-464,5784,16028,-122,627,169,15000,0,137000,172017,
-428,5796,16208,-115,660,177,15000,0,137000,172020,
-376,5784,16112,-151,658,211,15000,0,137000,172022,
-188,5828,15868,-204,515,275,15000,0,137000,172034,
-88,5976,15972,-272,469,275,15000,0,137000,172037,
-116,5944,16016,-294,432,270,15000,0,137000,172039,
52,5868,16076,-379,367,182,15000,0,137000,172051,
-16,5800,16136,-359,407,179,15000,0,137000,172054,
44,5884,16168,-340,409,151,15000,0,137000,172056,
-64,5856,16172,-358,400,134,15000,0,137000,172058,
28,5732,16212,-381,413,88,15000,0,137000,172070,
16,5732,16120,-360,394,84,15000,0,137000,172073,
132,5732,16156,-376,430,69,15000,0,137000,172075,
288,5720,16160,-342,405,74,15000,0,137000,172077,
20,5644,15964,-414,447,132,15000,0,137000,172089,
4,5852,15896,-439,432,161,15000,0,137000,172092,
76,5792,16108,-472,439,184,15000,0,137000,172094,
-40,5828,16120,-479,431,241,15000,0,137000,172096,
48,5784,16032,-484,557,301,15000,0,137000,172108,
92,5844,16132,-451,598,303,15000,0,137000,172111,
48,5736,16068,-472,603,290,15000,0,137000,172113,
144,5704,16024,-590,466,183,15000,0,137000,172125,
60,5716,16148,-583,452,150,15000,0,137000,172128,
84,5784,16200,-602,425,133,15000,0,137000,172130,
52,5620,16216,-638,362,57,15000,0,137000,172132,
-52,5436,16504,-645,279,-159,15000,0,137000,172144,
-84,5528,16452,-621,256,-151,15000,0,137000,172147,
-60,5492,16472,-596,229,-181,15000,0,137000,172149,
-92,5496,16520,-578,239,-185,15000,0,137000,172151,
-12,5496,16584,-543,230,-106,15000,0,137000,172164,
-136,5628,16564,-548,197,-91,15000,0,137000,172166,
0,5468,16508,-527,183,-85,15000,0,137000,172168,
248,5388,16564,-432,259,-38,15000,0,137000,172181,
300,5528,16536,-407,258,-84,15000,0,137000,172183,
372,5636,16560,-402,327,-56,15000,0,137000,172185,
280,5548,16468,-376,293,-41,15000,0,137000,172187,
292,5900,16312,-299,550,-129,15000,0,137000,172200,
284,5780,16224,-306,557,-150,15000,0,137000,172202,
356,5780,16284,-274,568,-130,15000,0,137000,172204,
-52,5992,16212,-321,573,-114,15000,0,137000,172217,
72,5940,16000,-315,551,-103,15000,0,137000,172219,
-144,5844,15952,-349,550,-97,15000,0,137000,172221,
-76,5912,15848,-334,565,-66,15000,0,137000,172223,
-144,5916,16072,-589,397,56,15000,0,137000,172236,
-188,5944,15840,-634,335,52,15000,0,137000,172238,
-100,5912,15900,-711,326,63,15000,0,137000,172240,
-108,5840,16024,-726,297,77,15000,0,137000,172243,
100,5864,15808,-932,245,58,15000,0,137000,172255,
184,5836,15720,-923,296,70,15000,0,137000,172257,
