Ax,Ay,Az,Gx,Gy,Gz,Roll,Pitch,Yaw,Timestamp,Target
-1596,1860,16472,69,-115,-90,8000,6000,128000,148734,
-1372,1760,16448,110,-83,-150,8000,5000,128000,148747,
-1384,1736,16160,110,-93,-166,8000,5000,128000,148749,
-1372,1700,16356,107,-35,-185,8000,5000,128000,148751,
-1388,1936,16380,104,74,-131,8000,5000,128000,148764,
-1552,1980,16296,87,66,-134,8000,5000,128000,148766,
-1604,1896,16312,83,109,-105,8000,5000,128000,148768,
-1556,1888,16388,32,132,-98,8000,6000,128000,148780,
-1740,1852,16280,40,103,-94,8000,6000,128000,148783,
-1616,1912,16288,26,121,-87,8000,6000,128000,148785,
-1736,1860,16204,38,86,-74,8000,6000,128000,148787,
-1788,1800,16276,9,35,-171,8000,6000,128000,148800,
-1688,1740,16352,24,30,-180,8000,6000,128000,148802,
-1716,1764,16508,20,-7,-187,8000,6000,128000,148804,
-1652,1740,16224,-10,-82,-178,8000,6000,128000,148817,
-1744,1760,16468,-23,-92,-182,8000,6000,128000,148819,
-1640,1788,16436,-24,-98,-181,7000,6000,128000,148821,
-1680,1736,16496,-44,-112,-160,7000,6000,128000,148824,
-1708,1808,16280,-78,-64,-140,7000,6000,128000,148836,
-1688,1888,16460,-110,-50,-140,7000,6000,128000,148838,
-1624,1952,16264,-90,-64,-142,7000,6000,128000,148840,
-1716,1856,16452,-130,43,-161,7000,6000,128000,148853,
-1688,1912,16432,-125,62,-139,7000,6000,128000,148855,
-1788,1888,16420,-134,47,-134,7000,6000,128000,148857,
-1788,1900,16500,-80,33,-111,7000,6000,128000,148870,
-1824,1920,16832,-119,8,-101,7000,6000,128000,148872,
-1784,1940,16552,-93,-14,-105,7000,6000,128000,148874,
-1840,1956,16500,-99,-27,-97,7000,6000,128000,148877,
-1664,1828,16508,-107,-77,-90,7000,6000,128000,148889,
-1824,1836,16776,-112,-103,-115,7000,6000,128000,148891,
-1616,1848,16508,-113,-86,-115,7000,6000,128000,148894,
-1728,1788,16728,-85,-69,-100,7000,5000,128000,148906,
-1740,1768,16652,-86,-45,-108,7000,5000,128000,148908,
-1644,1808,16676,-76,-55,-129,7000,5000,128000,148910,
-1696,1768,16668,-85,-48,-105,7000,5000,128000,148923,
-1608,1776,16476,-92,-73,-115,7000,5000,128000,148925,
-1740,1768,16556,-73,-79,-99,7000,5000,128000,148927,
-1776,1924,16608,-78,-56,-100,7000,5000,128000,148940,
-1692,1792,16664,-81,-30,-79,7000,5000,128000,148942,
-1728,1872,16628,-81,-37,-71,7000,5000,128000,148944,
-1616,1784,16508,-70,86,-82,7000,5000,128000,148957,
-1604,1800,16636,-70,69,-105,7000,5000,128000,148959,
-1724,1808,16764,-74,84,-91,7000,5000,128000,148961,
-1752,1764,16668,-55,103,-97,7000,5000,128000,148963,
-1820,1768,16680,-56,27,-114,7000,6000,128000,148976,
-1908,1892,16572,-51,15,-153,7000,6000,128000,148978,
-1960,1812,16664,-54,-22,-130,7000,6000,128000,148980,
-1852,1904,16932,-24,-118,-157,7000,5000,128000,148993,
-1780,1920,16760,-4,-135,-159,7000,5000,128000,148995,
-1824,1932,16704,-26,-142,-177,7000,5000,128000,148997,
-1632,1744,16864,-5,-71,-136,7000,5000,128000,149010,
-1632,1864,16636,14,-76,-150,7000,5000,128000,149012,
-1496,1852,16548,-7,-22,-148,7000,5000,128000,149014,
-1564,1676,16708,18,1,-156,7000,5000,128000,149016,
-1696,1704,16620,89,138,-109,7000,5000,128000,149029,
-1632,1748,16684,113,154,-109,7000,5000,128000,149031,
-1676,1748,16664,122,181,-76,7000,6000,128000,149033,
-1932,1968,16804,87,119,-69,7000,6000,128000,149046,
-1984,2048,16716,62,97,-70,7000,6000,128000,149048,
-1820,1996,16756,77,85,-87,7000,6000,128000,149050,
-1844,1900,16644,40,63,-88,7000,6000,128000,149053,
-1640,1692,16676,34,-78,-122,7000,6000,128000,149065,
-1836,1732,16760,37,-62,-143,7000,6000,128000,149067,
-1836,1640,16592,23,-88,-151,7000,6000,128000,149070,
-1784,1760,16532,88,-56,-121,7000,6000,128000,149082,
-1676,1700,16620,74,-25,-109,7000,6000,128000,149084,
-1776,1676,16612,88,-20,-87,7000,6000,128000,149087,
-1700,1680,16552,92,3,-66,7000,6000,128000,149089,
-1704,1756,16492,85,34,-26,7000,6000,128000,149101,
-1680,1736,16484,80,44,-8,7000,6000,128000,149104,
-1816,1756,16400,72,35,-13,7000,6000,128000,149106,
-1788,1720,16672,55,-23,-28,7000,6000,128000,149119,
-1828,1696,16612,70,-26,-14,7000,6000,128000,149121,
-1760,1744,16424,61,-48,-41,7000,6000,128000,149123,
-1816,1664,16588,65,-34,-49,7000,6000,128000,149125,
-1696,1672,16464,53,-25,-91,7000,6000,128000,149138,
-1740,1656,16508,74,-34,-94,7000,6000,128000,149140,
-1664,1580,16460,61,26,-87,7000,6000,128000,149142,
-1592,1732,16636,144,171,-46,7000,6000,128000,149155,
-1504,1616,16376,130,199,-40,7000,6000,128000,149157,
-1596,1664,16420,138,244,-31,7000,6000,128000,149159,
-1596,1704,16556,165,297,-44,7000,6000,128000,149162,
-1736,1676,16472,134,475,-19,7000,6000,128000,149174,
-1696,1768,16660,157,468,-22,7000,6000,128000,149176,
-1788,1748,16680,138,459,-38,7000,6000,128000,149179,
-2040,1860,16672,117,293,-3,7000,6000,128000,149191,
-2004,1732,16372,98,244,-14,7000,6000,128000,149193,
-2036,1680,16616,112,168,-17,7000,6000,128000,149196,
-2148,1656,16688,108,96,-23,7000,6000,128000,149198,
-1828,1604,16504,102,-162,-104,7000,6000,128000,149210,
-1864,1640,16576,163,-172,-113,7000,6000,128000,149213,
-1900,1700,16468,137,-193,-121,7000,6000,128000,149215,
-1636,1848,16636,107,-149,-107,7000,6000,128000,149227,
-1732,1876,16468,103,-133,-80,7000,6000,128000,149230,
-1652,1768,16592,101,-100,-71,7000,6000,128000,149232,
-1748,1756,16516,45,29,24,7000,6000,128000,149244,
-1688,1708,16560,47,83,36,7000,6000,128000,149246,
-1672,1756,16512,33,94,71,7000,6000,128000,149249,
-1760,1764,16416,36,135,50,7000,6000,128000,149251,
-1732,1616,16416,76,151,13,7000,6000,128000,149263,
-1756,1688,16616,105,171,3,7000,6000,128000,149266,
-1828,1660,16572,110,132,23,7000,6000,128000,149268,
-1824,1856,16508,117,22,3,7000,6000,128000,149280,
-1876,1820,16452,94,-2,-9,7000,6000,128000,149283,
-1908,1756,16620,95,-16,3,7000,6000,128000,149285,
-1872,1896,16540,91,-49,1,7000,6000,128000,149287,
-1772,1732,16420,67,-39,6,7000,6000,128000,149300,
-1820,1596,16592,71,-71,-1,7000,6000,128000,149302,
-1756,1720,16580,56,-48,-3,7000,6000,128000,149304,
-1740,1732,16448,55,-30,-10,7000,6000,128000,149306,
-1756,1700,16512,73,6,-43,7000,6000,128000,149319,
-1688,1760,16476,72,4,-22,7000,6000,128000,149321,
-1704,1652,16500,101,22,-38,7000,6000,128000,149323,
-1596,1756,16472,51,60,-8,7000,6000,128000,149336,
-1604,1860,16464,34,64,-20,7000,6000,128000,149338,
-1648,1808,16436,15,67,-28,7000,6000,128000,149340,
-1612,1824,16304,15,68,-28,7000,6000,128000,149343,
-1708,1576,16352,28,106,-61,7000,6000,128000,149355,
-1636,1596,16576,53,98,-38,7000,6000,128000,149357,
-1728,1600,16388,62,91,-55,7000,6000,128000,149359,
-1660,1844,16448,65,12,-118,7000,6000,128000,149372,
-1756,1732,16340,51,39,-150,7000,6000,128000,149374,
-1752,1860,16476,46,8,-134,7000,6000,128000,149376,
-1732,1788,16492,58,-11,-152,7000,6000,128000,149379,
-1696,1784,16320,-30,-88,-121,7000,6000,128000,149391,
-1704,1860,16436,-30,-99,-115,7000,6000,128000,149394,
-1632,1916,16320,-31,-119,-134,7000,6000,128000,149396,
-1720,1828,16444,-50,-146,-155,7000,6000,128000,149408,
-1836,1736,16468,-44,-148,-167,7000,6000,128000,149411,
-1656,1636,16544,-51,-159,-176,7000,6000,128000,149413,
-1668,1764,16216,-111,-118,-225,7000,6000,128000,149425,
-1720,1732,16496,-120,-136,-231,7000,6000,128000,149428,
-1708,1768,16332,-113,-114,-232,7000,6000,128000,149430,
-1660,1804,16424,-100,-55,-233,7000,6000,128000,149442,
-1704,1840,16504,-94,-49,-227,7000,6000,128000,149445,
-1680,1776,16412,-96,-35,-222,7000,6000,128000,149447,
-1792,1728,16508,-129,-29,-269,7000,6000,128000,149459,
-1812,1852,16488,-124,-30,-285,7000,6000,128000,149461,
-1780,1676,16720,-101,-3,-285,7000,6000,128000,149464,
-1804,1688,16584,-165,-13,-291,7000,6000,128000,149476,
-1844,1648,16648,-156,34,-266,7000,6000,128000,149478,
-1736,1704,16572,-141,-19,-260,7000,6000,128000,149481,
-1876,1644,16600,-100,98,-183,7000,6000,128000,149493,
-1828,1596,16712,-68,69,-190,7000,6000,128000,149495,
-1676,1584,16704,-81,78,-201,7000,6000,128000,149498,
-1892,1628,16588,-75,57,-215,7000,6000,128000,149500,
-1968,1748,16668,-61,-28,-203,7000,6000,128000,149513,
-1968,1824,16664,-73,-55,-240,7000,6000,128000,149515,
-1956,1820,16572,-93,-45,-232,7000,6000,128000,149517,
-1852,1648,16808,-91,-76,-224,7000,6000,128000,149529,
-1856,1600,16588,-76,-49,-208,7000,6000,128000,149532,
-1904,1664,16652,-85,-65,-208,7000,6000,128000,149534,
-1988,1756,16728,-36,-16,-177,7000,6000,128000,149546,
-1912,1708,16668,-34,-5,-152,7000,6000,128000,149549,
-1892,1764,16660,-52,-9,-179,7000,6000,128000,149551,
-1912,1740,16748,-57,-10,-155,7000,6000,128000,149553,
-1972,1632,16800,-79,-58,-112,7000,6000,128000,149566,
-2056,1680,16684,-96,-80,-123,7000,6000,128000,149568,
-2044,1840,16696,-64,-78,-86,7000,6000,128000,149570,
-1984,1760,16880,-32,-136,-74,7000,6000,127000,149582,
-2072,1676,16796,-35,-133,-71,7000,6000,127000,149585,
-1988,1616,16928,2,-136,-76,7000,6000,127000,149587,
-1948,1752,16836,20,-141,-40,7000,6000,127000,149599,
-1900,1524,17000,36,-137,-40,7000,6000,127000,149602,
-1964,1608,16872,50,-118,-54,7000,6000,127000,149604,
-1716,1640,17044,49,-81,-52,7000,6000,127000,149606,
-1548,1756,16708,126,55,-42,7000,6000,127000,149619,
-1760,1780,16792,128,64,-55,7000,6000,127000,149621,
-1668,1708,16672,149,116,-45,7000,6000,127000,149623,
-1984,1660,16864,195,122,-16,7000,6000,127000,149636,
-1876,1688,16884,204,124,-14,7000,6000,127000,149638,
-1816,1636,16824,192,91,-38,7000,6000,127000,149640,
-1888,1732,16784,191,94,-50,7000,6000,127000,149642,
-2072,1852,16672,166,-5,-77,7000,6000,127000,149655,
-1932,1808,16932,162,3,-66,7000,6000,127000,149657,
-2060,1752,16812,163,-24,-100,7000,6000,127000,149659,
-1868,1676,16712,168,-154,-112,7000,6000,127000,149672,
-1944,1664,16728,161,-142,-122,7000,6000,127000,149674,
-1928,1644,16872,146,-154,-96,7000,6000,127000,149676,
-1768,1644,16948,175,-130,-48,7000,6000,127000,149689,
-1864,1676,16736,163,-93,-21,7000,6000,127000,149691,
-1848,1560,16644,173,-113,-24,7000,6000,127000,149693,
-1908,1644,16624,203,-54,28,7000,6000,127000,149706,
-1932,1512,16616,222,-38,10,7000,6000,127000,149708,
-1772,1652,16692,245,-50,20,7000,6000,127000,149710,
-2004,1608,16744,251,-59,13,7000,6000,127000,149712,
-1944,1628,16760,269,-192,15,7000,6000,127000,149725,
-1944,1608,16636,275,-216,16,7000,6000,127000,149727,
-1928,1572,16588,272,-218,27,7000,6000,127000,149730,
-1776,1776,16768,304,-260,-14,7000,6000,127000,149742,
-1824,1684,16664,279,-231,-9,7000,6000,127000,149744,
-1708,1656,16628,260,-200,-11,7000,6000,127000,149746,
-1704,1720,16512,272,-98,110,7000,6000,127000,149759,
-1716,1676,16520,256,-61,99,7000,6000,127000,149761,
-1564,1736,16516,269,-29,103,7000,6000,127000,149763,
-1632,1664,16528,280,15,108,7000,6000,127000,149766,
-1632,1656,16444,295,168,99,7000,6000,127000,149778,
-1588,1684,16524,273,204,109,7000,6000,127000,149781,
-1616,1728,16476,279,200,134,7000,6000,127000,149783,
-1812,1796,16524,270,218,113,7000,6000,127000,149795,
-1924,1816,16548,265,196,116,7000,6000,127000,149798,
-1808,1832,16432,268,161,113,7000,6000,127000,149800,
-1840,1744,16352,256,159,100,7000,6000,127000,149802,
-1828,1844,16376,210,-32,55,7000,6000,127000,149814,
-1784,1844,16416,200,-68,32,7000,6000,127000,149817,
-1708,1812,16444,207,-102,12,7000,6000,127000,149819,
-1768,1776,16320,164,-159,-34,7000,6000,127000,149832,
-1704,1800,16348,167,-124,-36,7000,6000,127000,149834,
-1600,1680,16380,149,-129,-50,7000,6000,127000,149836,
-1652,1784,16320,148,-56,15,7000,6000,127000,149848,
-1548,1736,16408,148,-2,38,7000,6000,127000,149851,
-1500,1784,16252,130,6,50,7000,6000,127000,149853,
-1556,1740,16536,132,32,60,7000,6000,127000,149855,
-1676,1844,16448,105,53,103,7000,6000,127000,149868,
-1724,1884,16420,103,53,52,7000,6000,127000,149870,
-1668,1684,16392,85,59,60,7000,6000,127000,149872,
-1792,1724,16388,79,25,29,7000,6000,127000,149885,
-1688,1684,16596,76,11,19,7000,6000,127000,149887,
-1796,1692,16432,101,-37,37,7000,6000,127000,149889,
-1576,1796,16360,113,-25,11,7000,6000,127000,149891,
-1628,1688,16492,108,-31,-35,7000,6000,127000,149904,
-1564,1580,16468,114,-30,-75,7000,6000,127000,149906,
-1568,1668,16428,118,-27,-68,7000,6000,127000,149908,
-1544,1772,16380,97,59,-84,7000,6000,127000,149921,
-1664,1772,16400,116,69,-114,7000,6000,127000,149923,
-1540,1760,16572,112,101,-65,7000,6000,127000,149925,
-1572,1872,16436,112,106,-71,7000,6000,127000,149928,
-1780,1876,16556,94,132,-47,7000,6000,127000,149940,
-1640,1868,16464,67,119,-45,7000,6000,127000,149942,
-1692,2004,16464,62,128,-27,7000,6000,127000,149945,
-1636,1752,16620,52,94,-24,7000,6000,127000,149957,
-1640,1736,16628,32,99,-27,7000,6000,127000,149959,
-1652,1560,16556,41,87,-41,7000,6000,127000,149962,
-1696,1528,16752,64,87,-39,7000,6000,127000,149964,
-1712,1608,16472,120,55,-45,7000,6000,127000,149976,
-1688,1680,16528,105,66,-52,7000,6000,127000,149979,
-1604,1552,16448,124,60,-30,7000,6000,127000,149981,
-1572,1708,16348,106,76,-51,7000,6000,127000,149993,
-1688,1880,16356,111,83,-49,7000,6000,127000,149996,
-1564,1712,16428,106,100,-56,7000,6000,127000,149998,
-1720,1864,16272,91,99,-55,7000,6000,127000,150000,
-1688,1824,16372,58,115,-77,7000,6000,127000,150013,
-1704,1612,16520,26,93,-96,7000,6000,127000,150015,
-1752,1832,16236,37,107,-73,7000,6000,127000,150017,
-1740,1696,16436,-29,40,-112,7000,6000,127000,150030,
-1696,1716,16284,-32,34,-110,7000,6000,127000,150032,
-1608,1780,16260,-59,40,-111,7000,6000,127000,150034,
-1692,1688,16336,-55,33,-138,7000,6000,127000,150036,
-1732,1656,16468,-76,-16,-124,7000,6000,127000,150049,
-1748,1764,16436,-79,-35,-118,7000,6000,127000,150051,
-1748,1688,16428,-89,-34,-130,7000,6000,127000,150053,
-1708,1836,16580,-87,-86,-210,7000,6000,127000,150066,
-1664,1640,16524,-126,-83,-216,7000,6000,127000,150068,
-1792,1748,16420,-122,-100,-230,7000,6000,127000,150070,
-1620,1636,16696,-153,-37,-242,7000,6000,127000,150083,
-1756,1616,16640,-142,-1,-228,7000,6000,127000,150085,
-1720,1592,16564,-129,33,-218,7000,6000,127000,150087,
-1656,1560,16384,-73,146,-136,7000,6000,127000,150100,
-1852,1524,16564,-73,166,-148,7000,6000,127000,150102,
-1884,1588,16592,-30,165,-143,7000,6000,127000,150104,
-1996,1552,16680,28,114,-85,7000,6000,127000,150117,
-2056,1540,16652,43,98,-120,7000,6000,127000,150119,
-1928,1724,16616,29,77,-123,7000,6000,127000,150121,
-2032,1596,16736,33,58,-106,7000,6000,127000,150123,
-1916,1720,16664,-7,-65,-73,7000,6000,127000,150136,
-2008,1616,16568,0,-106,-103,7000,6000,127000,150138,
-1980,1632,16736,-5,-99,-93,7000,6000,127000,150140,
-1696,1672,16556,14,-165,-12,7000,6000,127000,150153,
-1796,1616,16696,53,-147,-23,7000,6000,127000,150155,
-1684,1612,16724,22,-120,-28,7000,6000,127000,150157,
-1864,1608,16600,18,-116,-11,7000,6000,127000,150159,
-1600,1692,16800,17,-18,-22,7000,6000,127000,150172,
-1740,1668,16736,15,-21,-25,7000,6000,127000,150174,
-1624,1652,16600,55,23,-55,7000,6000,127000,150177,
-1504,1628,16600,48,116,-23,7000,6000,127000,150189,
-1616,1700,16592,27,151,-14,7000,6000,127000,150191,
-1676,1584,16792,57,136,-47,7000,6000,127000,150194,
-1636,1728,16796,64,161,-10,7000,6000,127000,150196,
-1664,1756,16920,86,220,-54,7000,6000,127000,150208,
-1704,1748,16832,106,187,-56,7000,6000,127000,150211,
-1664,1696,16864,114,187,-91,7000,6000,127000,150213,
-1772,1780,16908,115,96,-94,7000,6000,127000,150225,
-1808,1808,16744,109,54,-102,7000,6000,127000,150228,
-1936,1768,16908,107,49,-100,7000,6000,127000,150230,
-2028,1776,16744,113,17,-116,7000,6000,127000,150232,
-1884,1672,16708,151,-87,-129,7000,6000,127000,150244,
-1844,1760,16860,169,-120,-142,7000,6000,127000,150247,
-1752,1736,16728,175,-118,-155,7000,6000,127000,150249,
-1800,1832,17024,149,-66,-180,7000,6000,127000,150261,
-1664,1712,16896,165,-117,-171,7000,6000,127000,150264,
-1804,1708,16812,169,-54,-160,7000,6000,127000,150266,
-1828,1692,16868,213,36,-120,7000,6000,127000,150279,
-1736,1672,16920,177,52,-108,7000,6000,127000,150281,
-1716,1712,16896,214,53,-99,7000,6000,127000,150283,
-1720,1832,16760,225,77,-73,7000,6000,127000,150285,
-1944,1800,17036,288,96,48,7000,6000,127000,150298,
-1916,1716,16824,290,74,34,7000,6000,127000,150300,
-1980,1696,16960,292,53,45,7000,6000,127000,150302,
-2016,1664,16856,304,34,-3,7000,6000,127000,150315,
-1864,1732,16904,334,10,-10,7000,6000,127000,150317,
-2024,1664,17068,355,11,-22,7000,6000,127000,150319,
-1844,1668,17068,348,43,-15,7000,6000,127000,150322,
-1948,1788,17084,448,-6,22,7000,6000,127000,150334,
-2028,1696,17084,470,-3,-3,7000,6000,127000,150336,
-1984,1828,17096,479,16,29,7000,6000,127000,150339,
-2000,1980,17008,511,79,66,7000,6000,127000,150351,
-1920,1952,17272,535,94,75,7000,6000,127000,150353,
-2088,2032,17028,534,90,52,7000,6000,127000,150356,
-2052,1944,17052,549,118,60,7000,6000,127000,150358,
-2116,1932,17304,606,228,25,7000,6000,127000,150370,
-2248,1956,17496,627,249,4,7000,6000,127000,150373,
-2108,2052,17124,615,288,-4,7000,6000,127000,150375,
-2296,2052,17440,672,362,37,7000,6000,127000,150387,
-2448,2028,17324,706,375,50,7000,6000,127000,150389,
-2404,2020,17104,722,371,77,7000,6000,127000,150392,
-2560,2092,17304,732,375,81,7000,6000,127000,150394,
-2708,2020,17264,855,345,127,7000,6000,127000,150406,
-2736,2184,17060,860,345,104,7000,6000,127000,150409,
-2704,2164,17340,887,317,99,7000,6000,127000,150411,
-2780,2196,17100,986,395,112,7000,6000,127000,150423,
-2824,2280,17100,962,395,138,7000,6000,127000,150426,
-2772,2092,17212,968,426,173,7000,6000,127000,150428,
-2812,2320,17156,993,443,172,7000,6000,127000,150430,
-2944,2240,16936,1058,502,356,8000,6000,127000,150442,
-2884,2220,17024,1068,536,396,8000,6000,127000,150445,
-3036,2196,17068,1072,582,467,8000,6000,127000,150447,
-3132,2152,16800,1145,767,737,8000,6000,127000,150459,
-3096,2180,16556,1153,820,789,8000,6000,127000,150462,
-3064,2112,16620,1152,832,842,8000,6000,127000,150464,
-3428,2076,16456,1229,889,1052,8000,6000,128000,150476,
-3448,2068,16564,1185,874,1114,8000,6000,128000,150479,
-3496,2064,16460,1214,861,1136,8000,6000,128000,150481,
-3592,2148,16312,1187,697,1344,8000,6000,128000,150493,
-3536,2116,16188,1185,674,1367,8000,6000,128000,150496,
-3508,2224,16044,1164,653,1421,8000,6000,128000,150498,
-3528,2304,15828,1098,510,1621,8000,6000,128000,150510,
-3548,2332,15904,1056,481,1654,8000,6000,128000,150513,
-3540,2344,15892,1081,469,1672,8000,6000,128000,150515,
-3380,2424,15596,983,429,1925,8000,7000,128000,150528,
-3356,2480,15936,972,406,1965,8000,7000,128000,150530,
-3432,2460,15736,949,429,2041,8000,7000,128000,150532,
-3164,2516,15372,846,508,2187,8000,7000,128000,150544,
-3264,2484,15520,826,528,2245,9000,7000,129000,150547,
-3148,2460,15456,813,562,2260,9000,7000,129000,150549,
-3080,2540,15380,764,705,2430,9000,7000,129000,150561,
-2920,2456,15452,756,720,2460,9000,7000,129000,150564,
-2856,2596,15228,749,749,2499,9000,7000,129000,150566,
-2924,2676,15188,685,916,2691,9000,7000,129000,150578,
-2904,2644,15388,677,953,2733,9000,7000,129000,150581,
-2924,2700,15076,620,972,2746,9000,7000,129000,150583,
-2860,2856,14800,448,1079,2828,9000,7000,130000,150595,
-2824,2860,14796,425,1111,2827,9000,7000,130000,150598,
-2776,2888,14720,380,1126,2845,9000,7000,130000,150600,
-2668,2804,14780,311,1276,2848,9000,7000,130000,150612,
-2740,2892,14800,308,1290,2868,9000,7000,130000,150614,
-2688,2768,14684,262,1326,2873,9000,7000,130000,150617,
-2568,2876,14344,85,1487,2933,9000,7000,130000,150629,
-2516,2972,14252,58,1534,2965,9000,7000,130000,150632,
-2528,2904,14392,10,1554,2955,9000,7000,130000,150634,
-2484,2856,14048,-184,1851,2997,9000,7000,131000,150646,
-2528,2884,14156,-211,1930,3041,9000,7000,131000,150648,
-2344,2840,14240,-224,1957,3028,9000,7000,131000,150651,
-2396,2900,13672,-408,2345,3115,9000,8000,131000,150663,
-2380,2788,13440,-441,2435,3139,9000,8000,131000,150665,
-2240,2856,13596,-499,2475,3137,9000,8000,131000,150668,
-2356,2732,13244,-773,2836,3244,9000,8000,132000,150680,
-2384,2848,13012,-822,2866,3282,9000,8000,132000,150682,
-2348,2908,12928,-897,2892,3292,9000,8000,132000,150685,
-2520,3056,12712,-1273,2750,3433,9000,8000,132000,150697,
-2692,2852,12672,-1392,2679,3425,9000,8000,132000,150699,
-2768,2948,12888,-1468,2610,3445,9000,8000,132000,150702,
-2940,2832,12700,-1991,2004,3469,9000,8000,133000,150714,
-2920,2812,12872,-2079,1884,3449,9000,8000,133000,150716,
-2948,2796,12724,-2211,1718,3431,9000,8000,133000,150719,
-2648,2564,12656,-2752,1140,3308,9000,8000,133000,150731,
-2492,2408,12512,-2815,1050,3311,9000,8000,133000,150733,
-2468,2380,12808,-2909,1004,3298,9000,8000,133000,150736,
-1784,1924,12536,-3272,1003,3218,8000,9000,134000,150748,
-1680,1932,12848,-3342,1038,3222,8000,9000,134000,150750,
-1660,1848,12756,-3393,1144,3216,8000,9000,134000,150752,
-1436,1524,13020,-3651,1485,3289,8000,9000,134000,150765,
-1460,1384,13052,-3701,1521,3288,8000,9000,134000,150767,
-1352,1364,13200,-3746,1582,3285,8000,9000,134000,150770,
-1372,1260,13352,-4031,1852,3226,8000,9000,135000,150782,
-1312,1412,13456,-4112,1901,3204,7000,9000,135000,150784,
-1348,1228,13612,-4104,1925,3184,7000,9000,135000,150787,
-1176,976,14044,-4386,2070,3019,7000,9000,135000,150799,
-1320,1124,14224,-4419,2092,3006,7000,9000,135000,150801,
-1156,984,14200,-4460,2086,2968,7000,9000,135000,150804,
-996,620,14620,-4678,2039,2826,6000,9000,135000,150816,
-1016,728,14792,-4698,2033,2795,6000,9000,135000,150819,
-932,660,14768,-4751,2003,2749,6000,9000,135000,150821,
-884,416,15096,-4915,1931,2551,6000,9000,136000,150833,
-780,340,15276,-4923,1893,2517,6000,9000,136000,150836,
-804,352,15284,-4957,1869,2472,6000,9000,136000,150838,
-580,-4,15784,-5001,1782,2212,5000,9000,136000,150850,
-528,-80,15904,-5016,1785,2140,5000,9000,136000,150853,
-460,-148,16108,-5031,1784,2078,5000,9000,136000,150855,
-252,-340,16216,-5011,1904,1721,5000,10000,136000,150867,
-188,-316,16268,-4989,1944,1649,4000,10000,136000,150870,
-192,-444,16220,-4981,1986,1615,4000,10000,136000,150872,
68,-800,16416,-4899,2307,1259,4000,10000,136000,150884,
148,-680,16548,-4886,2333,1193,4000,10000,137000,150887,
-20,-780,16424,-4860,2418,1111,4000,10000,137000,150889,
-24,-756,16664,-4793,2524,735,3000,10000,137000,150901,
-192,-764,16564,-4770,2543,670,3000,10000,137000,150903,
-320,-768,16684,-4782,2528,587,3000,10000,137000,150906,
-588,-840,17032,-4787,2320,221,3000,10000,137000,150918,
-568,-868,16996,-4797,2270,142,2000,10000,137000,150920,
-520,-964,17000,-4790,2227,65,2000,10000,137000,150923,
-640,-1228,17100,-4788,1960,-358,2000,10000,137000,150935,
-624,-1408,17112,-4770,1919,-428,2000,10000,137000,150938,
-652,-1368,17000,-4764,1904,-477,2000,10000,137000,150940,
-496,-1460,16980,-4638,1815,-820,1000,11000,137000,150952,
-488,-1496,17156,-4620,1843,-884,1000,11000,137000,150955,
-572,-1580,17208,-4594,1867,-911,1000,11000,137000,150957,
-556,-1672,17104,-4495,1878,-1202,0,11000,136000,150969,
-524,-1672,17052,-4498,1888,-1247,0,11000,136000,150972,
-612,-1708,17112,-4499,1891,-1324,0,11000,136000,150974,
-1048,-1836,17556,-4431,1747,-1567,0,11000,136000,150986,
-1008,-1936,17772,-4410,1695,-1638,0,11000,136000,150989,
-1036,-1976,17740,-4373,1664,-1695,0,11000,136000,150991,
-1000,-2380,17840,-4208,1530,-2098,0,11000,136000,151003,
-932,-2384,17732,-4186,1549,-2191,0,11000,136000,151006,
-944,-2340,17620,-4157,1518,-2275,0,11000,136000,151008,
-704,-2412,17616,-3923,1747,-2621,-1000,11000,136000,151020,
-624,-2616,17588,-3847,1805,-2687,-1000,11000,136000,151023,
-684,-2524,17388,-3816,1864,-2695,-1000,11000,135000,151025,
-720,-2804,17068,-3573,2400,-2879,-1000,11000,135000,151038,
-732,-2816,17108,-3533,2500,-2895,-1000,11000,135000,151040,
-676,-2904,17176,-3489,2597,-2939,-1000,11000,135000,151042,
-1356,-2388,17188,-3378,2724,-3135,-2000,12000,135000,151055,
-1440,-2476,17100,-3372,2685,-3183,-2000,12000,135000,151057,
-1688,-2280,17264,-3403,2610,-3230,-2000,12000,135000,151059,
-2300,-2332,17684,-3511,1879,-3505,-2000,12000,134000,151072,
-2492,-2496,17608,-3539,1721,-3571,-2000,12000,134000,151074,
-2380,-2536,17856,-3544,1530,-3665,-3000,12000,134000,151077,
-2140,-2888,18104,-3425,802,-4213,-3000,12000,134000,151089,
-1932,-3152,18056,-3377,762,-4317,-3000,12000,134000,151092,
-2064,-3160,18100,-3343,653,-4385,-3000,12000,134000,151094,
-1612,-3360,17964,-3031,558,-4728,-4000,12000,133000,151107,
-1436,-3228,17832,-2966,569,-4776,-4000,12000,133000,151109,
-1424,-3404,17864,-2915,633,-4807,-4000,12000,133000,151111,
-1576,-2800,18204,-2644,897,-5005,-4000,12000,132000,151124,
-1500,-2700,18204,-2634,883,-5009,-4000,12000,132000,151126,
-1520,-2748,18396,-2584,929,-5020,-4000,12000,132000,151128,
-2248,-2740,18884,-2564,963,-5299,-5000,12000,132000,151141,
-2400,-2888,19012,-2561,950,-5324,-5000,12000,132000,151143,
-2724,-3428,19216,-2421,722,-5658,-5000,12000,131000,151156,
-2584,-3500,19124,-2368,645,-5727,-5000,12000,131000,151158,
-2724,-3484,18996,-2304,543,-5821,-5000,12000,131000,151160,
-2868,-3744,18764,-1972,139,-6125,-6000,12000,130000,151173,
-2936,-3772,18752,-1884,72,-6193,-6000,12000,130000,151175,
-2900,-3808,18740,-1813,-29,-6185,-6000,12000,130000,151178,
-2944,-3668,18856,-1483,-318,-6483,-6000,12000,129000,151190,
-2920,-3516,18976,-1447,-391,-6520,-6000,12000,129000,151193,
-3000,-3436,18948,-1394,-397,-6587,-6000,12000,129000,151195,
-3072,-3184,19520,-1139,-406,-6856,-6000,11000,128000,151207,
-3032,-3272,19336,-1137,-402,-6889,-6000,11000,128000,151210,
-3096,-3344,19424,-1129,-400,-6929,-7000,11000,128000,151212,
-2888,-3616,19428,-963,-271,-7167,-7000,11000,127000,151225,
-2792,-3704,19440,-907,-241,-7228,-7000,11000,127000,151227,
-2792,-3700,19428,-837,-189,-7224,-7000,11000,127000,151229,
-2912,-3968,19356,-354,326,-7388,-7000,11000,126000,151242,
-2848,-3984,19356,-267,408,-7391,-7000,11000,126000,151244,
-2784,-4084,19420,-154,466,-7417,-7000,11000,126000,151247,
-3072,-3536,19380,267,873,-7534,-7000,11000,125000,151259,
-3252,-3484,19204,297,887,-7514,-7000,11000,125000,151261,
-3364,-3332,19096,367,889,-7544,-7000,11000,125000,151264,
-4020,-3296,19268,575,619,-7491,-7000,11000,124000,151276,
-4112,-3220,19324,624,512,-7498,-7000,11000,124000,151278,
-4212,-3332,19324,651,450,-7538,-7000,11000,124000,151281,
-4660,-3536,19292,895,-212,-7585,-8000,11000,123000,151293,
-4840,-3440,19152,929,-341,-7566,-8000,11000,123000,151296,
-4892,-3484,19224,960,-492,-7566,-8000,11000,123000,151298,
-4848,-3472,19128,1209,-1019,-7530,-8000,11000,122000,151311,
-4844,-3412,19068,1284,-1122,-7518,-8000,11000,122000,151313,
-4780,-3580,19200,1313,-1168,-7527,-8000,11000,122000,151315,
-4736,-3356,19248,1634,-1232,-7401,-8000,10000,121000,151328,
-4756,-3244,19336,1674,-1201,-7407,-8000,10000,121000,151330,
-4728,-3396,19360,1725,-1159,-7345,-8000,10000,121000,151332,
-4900,-3008,19300,1926,-975,-6970,-8000,10000,121000,151345,
-4820,-3052,19412,1961,-924,-6902,-8000,10000,120000,151347,
-5052,-3048,19552,2223,-866,-6508,-7000,10000,120000,151360,
-5156,-3100,19340,2258,-855,-6424,-7000,10000,120000,151362,
-5172,-3088,19568,2346,-867,-6363,-7000,10000,120000,151365,
-5308,-3132,19292,2666,-850,-6122,-7000,10000,119000,151377,
-5348,-3252,19192,2723,-865,-6074,-7000,10000,119000,151379,
-5412,-3100,19208,2816,-874,-6004,-7000,10000,119000,151382,
-5444,-2932,19300,3285,-946,-5770,-7000,10000,118000,151394,
-5456,-2832,19120,3372,-964,-5709,-7000,10000,118000,151397,
-5532,-2936,19244,3472,-1020,-5639,-7000,10000,118000,151399,
-5504,-2764,19004,3706,-1093,-5260,-7000,9000,118000,151412,
-5500,-2640,18920,3771,-1070,-5197,-7000,9000,117000,151414,
-5396,-2624,19004,3792,-1039,-5137,-7000,9000,117000,151416,
-5224,-2672,18856,4071,-638,-4769,-6000,9000,117000,151429,
-5112,-2812,18804,4115,-558,-4705,-6000,9000,117000,151431,
-5276,-2688,18636,4188,-466,-4642,-6000,9000,117000,151434,
-5396,-2360,18528,4431,-128,-4239,-6000,9000,116000,151446,
-5536,-2288,18544,4454,-74,-4196,-6000,9000,116000,151449,
-5632,-2316,18292,4491,-87,-4100,-6000,9000,116000,151451,
-5952,-2028,18324,4595,-258,-3651,-5000,9000,116000,151463,
-6064,-2032,18304,4596,-305,-3585,-5000,9000,116000,151466,
-6120,-2024,18092,4632,-364,-3526,-5000,9000,116000,151468,
-6188,-2084,18152,4775,-740,-3154,-5000,9000,115000,151481,
-6244,-1932,17988,4786,-836,-3077,-5000,9000,115000,151483,
-6116,-1892,17972,4828,-894,-3016,-5000,9000,115000,151485,
-6068,-1576,17724,5015,-1252,-2710,-4000,9000,115000,151498,
-5972,-1576,17544,5024,-1259,-2640,-4000,9000,115000,151500,
-5840,-1472,17576,5047,-1314,-2579,-4000,9000,115000,151502,
-5848,-1360,17268,5088,-1427,-2187,-3000,9000,115000,151515,
-5648,-1372,17368,5102,-1424,-2119,-3000,9000,115000,151517,
-5712,-1244,17344,5112,-1434,-2051,-3000,9000,115000,151520,
-5920,-1108,17088,5142,-1570,-1662,-3000,9000,114000,151532,
-6016,-972,17028,5123,-1589,-1587,-3000,9000,114000,151535,
-5924,-980,16920,5144,-1628,-1513,-3000,9000,114000,151537,
-5860,-704,16912,5113,-1891,-1156,-2000,9000,114000,151549,
-5892,-572,17076,5108,-1942,-1117,-2000,9000,114000,151552,
-5888,-552,16800,5121,-2000,-1070,-2000,9000,114000,151554,
-5772,-576,16700,5091,-2295,-745,-2000,8000,114000,151567,
-5804,-512,16664,5069,-2353,-685,-1000,8000,114000,151569,
-5760,-460,16712,5069,-2378,-625,-1000,8000,114000,151571,
-5496,-736,16672,5081,-2385,-309,-1000,8000,114000,151583,
-5312,-812,16604,5085,-2357,-248,-1000,8000,114000,151586,
-5228,-752,16600,5110,-2314,-202,-1000,8000,114000,151588,
-4976,-288,16268,5243,-1907,26,0,8000,114000,151600,
-4888,-364,16252,5241,-1804,83,0,8000,114000,151603,
-4816,-348,16356,5238,-1714,132,0,8000,114000,151605,
-4660,32,15912,5260,-1136,542,0,8000,114000,151617,
-4676,44,15904,5232,-1021,618,0,8000,114000,151620,
-4672,168,15924,5236,-929,699,0,8000,114000,151622,
-4644,52,15820,5234,-829,790,0,8000,114000,151624,
-4876,132,15512,5195,-455,1314,0,8000,114000,151637,
-4988,96,15944,5186,-439,1377,0,8000,114000,151639,
-4912,84,15984,5180,-414,1429,0,8000,114000,151641,
-5256,108,16124,5146,-586,1767,1000,8000,115000,151653,
-5300,224,16136,5134,-698,1813,1000,8000,115000,151656,
-5444,204,15960,5091,-774,1855,1000,8000,115000,151658,
-5396,368,16052,4951,-1429,2089,2000,8000,115000,151670,
-5256,388,16044,4922,-1537,2135,2000,8000,115000,151673,
-5248,500,15836,4913,-1658,2144,2000,8000,115000,151675,
-4720,528,15704,4799,-2239,2315,2000,8000,115000,151688,
-4684,488,15856,4791,-2317,2356,2000,8000,115000,151690,
-4712,636,15848,4796,-2355,2399,2000,8000,115000,151692,
-4092,612,15780,4806,-2392,2664,3000,7000,116000,151704,
-3976,764,15828,4795,-2345,2734,3000,7000,116000,151707,
-3920,640,15776,4754,-2310,2794,3000,7000,116000,151709,
-3536,788,15812,4577,-1856,3131,4000,7000,116000,151721,
-3488,712,15668,4556,-1757,3162,4000,7000,116000,151724,
-3428,684,15636,4532,-1646,3209,4000,7000,116000,151726,
-3480,804,15664,4484,-1139,3467,4000,7000,116000,151739,
-3448,792,15752,4517,-1024,3507,4000,7000,116000,151741,
-3400,836,15816,4528,-977,3543,4000,7000,116000,151743,
-3268,1160,15556,4555,-603,3761,5000,7000,117000,151755,
-3292,1016,15620,4564,-553,3803,5000,7000,117000,151758,
-3232,1168,15572,4537,-514,3826,5000,7000,117000,151760,
-3212,1200,15384,4409,-382,3959,6000,7000,117000,151772,
-3312,1380,15284,4357,-358,3980,6000,7000,117000,151774,
-3252,1280,15256,4344,-372,4003,6000,7000,117000,151777,
-3168,1212,15240,4239,-435,4078,6000,7000,118000,151789,
-3140,1252,15064,4224,-411,4092,6000,7000,118000,151791,
-3036,1224,14896,4198,-435,4071,6000,7000,118000,151794,
-2864,1260,14676,4106,-337,4131,7000,7000,118000,151806,
-2800,1392,14724,4078,-329,4121,7000,7000,118000,151808,
-2896,1528,14724,4065,-288,4158,7000,7000,118000,151811,
-2784,1648,14272,3886,-143,4278,7000,7000,119000,151823,
-2672,1772,14396,3838,-109,4311,7000,7000,119000,151825,
-2684,1868,14428,3790,-84,4361,7000,7000,119000,151827,
-2804,2124,14208,3514,-111,4621,8000,7000,119000,151840,
-2868,2096,14204,3415,-141,4662,8000,7000,120000,151842,
-2844,2156,14220,3355,-135,4688,8000,7000,120000,151845,
-2672,2032,14224,3055,-307,4715,8000,6000,120000,151857,
-2652,2052,14164,3010,-378,4670,8000,6000,120000,151859,
-2660,2060,14376,2985,-408,4655,8000,6000,120000,151861,
-2336,2004,14284,2799,-573,4535,9000,6000,121000,151874,
-2292,1932,14144,2744,-586,4523,9000,6000,121000,151876,
-2160,2004,14136,2736,-601,4502,9000,6000,121000,151878,
-1812,1872,14016,2587,-509,4529,9000,6000,121000,151891,
-1628,1924,13988,2563,-449,4531,9000,6000,121000,151893,
-1568,1928,14168,2555,-375,4546,9000,6000,121000,151895,
-1344,2192,13768,2394,209,4618,10000,6000,122000,151908,
-1320,2292,13816,2355,343,4652,10000,6000,122000,151910,
-1212,2368,13792,2328,463,4647,10000,6000,122000,151912,
-1168,2420,13816,2078,1182,4634,10000,6000,122000,151925,
-1144,2520,13768,2054,1306,4667,10000,6000,123000,151927,
-1268,2604,13784,1995,1371,4639,10000,6000,123000,151929,
-1616,2572,13932,1745,1580,4745,10000,6000,123000,151942,
-1856,2476,14248,1672,1578,4751,10000,6000,123000,151944,
-1936,2560,14232,1634,1539,4760,10000,6000,123000,151946,
-1980,2648,14260,1448,1133,4749,10000,6000,124000,151959,
-2012,2764,14324,1417,1024,4721,10000,6000,124000,151961,
-2180,2632,14392,1346,914,4689,10000,6000,124000,151963,
-1948,2820,14356,1000,157,4427,11000,6000,124000,151975,
-1896,2784,14576,976,44,4410,11000,6000,124000,151978,
-1764,2644,14376,904,-75,4353,11000,6000,124000,151980,
-1084,2516,14556,826,-326,4180,11000,6000,125000,151992,
-992,2416,14664,794,-346,4177,11000,6000,125000,151995,
-900,2496,14488,798,-328,4129,11000,6000,125000,151997,
-604,2808,14428,652,-217,4103,11000,6000,125000,152009,
-620,2840,14468,611,-188,4079,11000,6000,125000,152012,
-552,2944,14236,552,-160,4106,11000,6000,125000,152014,
-368,2692,14536,308,16,4078,11000,6000,126000,152026,
-324,2772,14488,280,34,4034,11000,6000,126000,152029,
-380,2696,14564,236,48,4044,11000,6000,126000,152031,
-468,2660,14680,218,32,3980,11000,6000,126000,152033,
-300,2932,15028,8,6,3817,11000,6000,126000,152046,
-376,2908,15208,-40,18,3837,11000,5000,126000,152048,
-276,2864,15196,-65,56,3806,11000,5000,127000,152050,
272,2460,15396,-183,328,3590,11000,5000,127000,152063,
380,2420,15332,-184,415,3540,11000,5000,127000,152065,
440,2420,15504,-165,523,3502,11000,5000,127000,152067,
896,2312,15340,-88,1163,3337,11000,5000,127000,152080,
760,2156,15300,-94,1284,3303,11000,5000,127000,152082,
760,2320,15476,-88,1365,3275,11000,5000,127000,152084,
516,2276,15432,-86,1691,3166,11000,5000,128000,152097,
284,2308,15696,-47,1661,3136,11000,5000,128000,152099,
280,2436,15504,-66,1631,3089,11000,5000,128000,152101,
-296,2744,15720,-194,1137,2787,11000,5000,128000,152114,
-380,2824,15988,-225,1031,2698,11000,5000,128000,152116,
-472,2800,15884,-277,912,2643,11000,5000,128000,152118,
-368,2604,16048,-434,348,2369,11000,5000,129000,152131,
-176,2496,15968,-444,283,2279,11000,5000,129000,152133,
-128,2552,16040,-471,256,2252,11000,5000,129000,152135,
200,2412,16032,-515,207,2042,11000,5000,129000,152148,
244,2440,16044,-541,236,2030,11000,5000,129000,152150,
292,2388,16096,-534,256,2009,11000,5000,129000,152152,
268,2584,16296,-586,356,1887,11000,5000,129000,152165,
312,2524,16280,-595,344,1830,11000,5000,129000,152167,
320,2616,16216,-605,364,1843,11000,5000,129000,152169,
148,2596,16384,-636,337,1620,11000,5000,129000,152182,
156,2572,16364,-651,349,1589,11000,5000,129000,152184,
172,2412,16508,-647,324,1557,11000,5000,129000,152186,
-16,2428,16572,-586,317,1266,11000,5000,129000,152199,
60,2308,16716,-572,321,1202,11000,5000,129000,152201,
100,2336,16712,-568,338,1149,11000,5000,129000,152203,
8,2460,16760,-525,348,883,11000,5000,130000,152216,
-144,2544,16724,-528,320,854,11000,5000,130000,152218,
-216,2564,16704,-522,298,832,11000,5000,130000,152220,
-216,2612,16528,-514,313,825,11000,5000,130000,152222,
-424,2548,16768,-503,220,697,11000,5000,130000,152235,
-256,2488,16896,-486,246,663,11000,5000,130000,152237,
-416,2536,16944,-522,242,621,11000,5000,130000,152239,
-228,2256,16748,-448,504,379,11000,5000,130000,152252,
-336,2244,16660,-449,573,363,11000,5000,130000,152254,
-184,2276,16860,-428,638,313,11000,5000,130000,152256,
-476,2256,16640,-296,894,231,10000,5000,130000,152268,
-416,2364,16632,-253,908,201,10000,5000,130000,152271,
-520,2340,16540,-249,937,191,10000,5000,130000,152273,
-720,2352,16476,-239,927,178,10000,5000,130000,152275,
-1136,2536,16696,-282,724,89,10000,5000,130000,152288,
-1164,2544,16532,-296,668,31,10000,5000,130000,152290,
-1200,2548,16696,-314,607,8,10000,5000,130000,152292,
-1484,2508,16712,-353,215,-182,10000,5000,130000,152305,
-1524,2652,16720,-369,186,-223,10000,5000,130000,152307,
-1388,2652,16580,-384,165,-248,10000,5000,130000,152309,
-1268,2504,16412,-424,31,-328,10000,5000,130000,152322,
-1260,2516,16332,-404,-16,-335,10000,5000,130000,152324,
-1276,2508,16320,-396,-2,-361,10000,5000,130000,152326,
-1368,2428,16428,-421,55,-339,10000,5000,130000,152339,
-1452,2416,16516,-414,73,-338,10000,5000,130000,152341,
-1344,2268,16540,-421,78,-343,10000,5000,130000,152343,
-1368,2244,16520,-423,149,-358,10000,5000,130000,152356,
-1340,2300,16192,-408,162,-360,10000,5000,130000,152358,
-1392,2288,16372,-398,155,-365,10000,5000,130000,152360,
-1376,2328,16404,-378,341,-335,10000,5000,130000,152373,
-1396,2304,16408,-381,386,-300,10000,5000,130000,152375,
-1428,2388,16296,-359,437,-293,10000,5000,130000,152377,
-1584,2304,16336,-326,641,-131,10000,5000,130000,152390,
-1744,2324,16276,-311,644,-101,10000,5000,130000,152392,
-1684,2284,16532,-305,682,-90,10000,5000,130000,152394,
-1964,2164,16512,-332,561,-60,10000,6000,130000,152407,
-1972,2240,16400,-327,509,-84,10000,6000,130000,152409,
-1840,2252,16376,-318,489,-74,10000,6000,130000,152411,
-1964,2244,16520,-351,208,-134,10000,6000,130000,152424,
-2032,2284,16392,-346,192,-146,10000,6000,130000,152426,
-1868,2280,16520,-368,136,-149,10000,6000,130000,152428,
-1836,2288,16496,-419,-98,-122,10000,6000,130000,152441,
-1808,2424,16696,-430,-123,-112,10000,6000,130000,152443,
-1892,2320,16620,-420,-166,-121,10000,6000,130000,152445,
-1984,2276,16716,-379,-291,-90,10000,6000,130000,152458,
-1744,2244,16784,-383,-332,-101,10000,6000,130000,152460,
-1692,2232,16896,-378,-295,-101,10000,6000,130000,152462,
-1484,2372,16916,-387,-213,-181,10000,6000,130000,152475,
-1572,2416,16732,-371,-189,-182,10000,6000,130000,152477,
-1640,2424,16824,-367,-140,-173,10000,5000,130000,152479,
-1528,2176,16824,-312,-83,-90,10000,5000,130000,152491,
-1704,2268,16908,-289,-87,-89,10000,5000,130000,152494,
-1684,2308,16856,-300,-94,-66,10000,5000,130000,152496,
-1692,2312,16880,-210,-109,-55,10000,5000,130000,152508,
-1744,2364,16864,-195,-108,-82,10000,5000,130000,152511,
-1732,2416,16996,-213,-115,-124,10000,5000,130000,152513,
-1628,2452,17056,-99,-118,-215,9000,5000,130000,152525,
-1744,2440,17068,-87,-109,-238,9000,5000,130000,152528,
-1824,2504,16884,-69,-109,-250,9000,5000,130000,152530,
-1632,2520,16708,-66,-13,-283,9000,5000,129000,152542,
-1584,2596,16872,-63,6,-268,9000,5000,129000,152545,
-1616,2372,16848,-50,11,-259,9000,5000,129000,152547,
-1608,2592,16584,-58,45,-266,9000,5000,129000,152549,
-1680,2520,16640,-40,191,-156,9000,5000,129000,152562,
-1696,2404,16728,-35,185,-152,9000,5000,129000,152564,
-1644,2472,16856,-28,179,-144,9000,5000,129000,152566,
-1904,2408,16736,-20,123,-164,9000,6000,129000,152579,
-1884,2520,16716,-52,112,-159,9000,6000,129000,152581,
-1948,2408,16628,-33,89,-168,9000,6000,129000,152583,
-1928,2480,16488,-46,-88,-271,9000,6000,129000,152596,
-2036,2448,16620,-36,-115,-269,9000,6000,129000,152598,
-2044,2380,16696,-40,-138,-268,9000,6000,129000,152600,
-1924,2396,16684,-26,-244,-266,9000,5000,129000,152612,
-1900,2344,16596,-18,-230,-254,9000,5000,129000,152615,
-1888,2400,16612,-11,-238,-244,9000,5000,129000,152617,
-1920,2448,16596,-10,-130,-155,9000,5000,129000,152629,
-1768,2328,16328,-21,-102,-136,9000,5000,129000,152632,
-1808,2336,16484,-8,-68,-142,9000,5000,129000,152634,
-1752,2312,16388,34,115,-83,9000,5000,129000,152647,
-1692,2248,16184,42,121,-63,9000,5000,129000,152649,
-1728,2324,16308,52,134,-77,9000,5000,129000,152651,
-1844,2308,16460,49,175,-55,9000,5000,129000,152653,
-1868,2328,16360,81,211,0,9000,6000,129000,152666,
-1888,2308,16356,74,187,10,9000,6000,129000,152668,
-1840,2372,16344,65,175,8,9000,6000,129000,152670,
-1860,2500,16272,14,81,-6,9000,6000,129000,152683,
-1804,2516,16192,-2,59,-30,9000,6000,129000,152685,
-1884,2540,16204,0,5,-29,9000,6000,129000,152687,
-1900,2440,16196,-27,7,-18,9000,6000,129000,152689,
-1884,2588,16288,-85,-169,-6,9000,6000,129000,152702,
-1888,2516,16208,-105,-181,-27,9000,6000,129000,152704,
-1828,2532,16208,-131,-203,10,9000,6000,129000,152706,
-1596,2500,16388,-206,-229,-30,9000,5000,129000,152719,
-1676,2400,16200,-250,-183,-50,9000,5000,129000,152721,
-1696,2328,16216,-226,-151,-26,9000,5000,129000,152723,
-1608,2176,16256,-180,-57,-42,9000,5000,129000,152736,
-1616,2280,16272,-147,-51,-40,9000,5000,129000,152738,
-1604,2340,16340,-151,-30,-22,9000,5000,129000,152740,
-1700,2316,16412,-115,1,-60,9000,5000,129000,152753,
-1688,2328,16352,-109,14,-78,9000,5000,129000,152755,
-1524,2424,16276,-130,5,-63,9000,5000,129000,152757,
-1616,2352,16420,-126,9,-109,9000,5000,129000,152759,
-1704,2348,16328,-97,2,-157,9000,5000,129000,152772,
-1768,2488,16308,-105,7,-171,9000,5000,129000,152774,
-1808,2492,16232,-103,-9,-143,9000,5000,129000,152776,
-1760,2412,16448,-147,-33,-150,9000,5000,129000,152789,
-1640,2328,16288,-162,-1,-170,9000,5000,129000,152791,
-1716,2432,16444,-165,-3,-162,9000,5000,129000,152793,
-1692,2320,16376,-236,109,-159,9000,5000,129000,152806,
-1584,2232,16404,-219,140,-146,9000,5000,129000,152808,
-1640,2368,16304,-212,163,-167,9000,6000,129000,152810,
-1660,2240,16384,-216,218,-80,9000,6000,129000,152823,
-1748,2256,16404,-238,243,-50,9000,6000,129000,152825,
-1784,2264,16352,-223,213,-19,9000,6000,129000,152827,
-1868,2200,16528,-216,122,-35,9000,6000,129000,152839,
-1868,2200,16544,-197,120,-49,9000,6000,129000,152842,
-1756,2088,16492,-224,94,-48,9000,6000,129000,152844,
-1748,2040,16504,-139,15,-128,9000,6000,129000,152856,
-1832,2020,16640,-140,26,-119,9000,6000,129000,152859,
-1772,2072,16564,-166,12,-137,9000,6000,129000,152861,
-1632,2104,16284,-136,25,-139,9000,6000,129000,152873,
-1820,2164,16448,-134,1,-105,9000,6000,129000,152875,
-1680,2292,16404,-166,27,-114,9000,6000,129000,152878,
-1748,2196,16328,-139,28,-95,9000,6000,129000,152880,
-1696,2208,16428,-178,79,-76,9000,6000,129000,152892,
-1664,2192,16520,-184,91,-81,9000,6000,129000,152895,
-1676,2156,16336,-213,92,-59,9000,6000,129000,152897,
-1804,2160,16320,-256,98,-77,9000,6000,129000,152909,
-1664,2140,16388,-263,89,-82,9000,6000,129000,152912,
-1752,2120,16492,-268,123,-79,9000,6000,129000,152914,
-1736,2124,16740,-235,54,-103,9000,6000,129000,152926,
-1812,2232,16684,-235,57,-118,9000,6000,129000,152929,
-1792,2096,16652,-217,37,-87,9000,6000,129000,152931,
-1704,2284,16588,-222,-19,-146,9000,6000,129000,152943,
-1756,2280,16680,-223,-25,-179,9000,6000,129000,152945,
-1884,2276,16596,-244,-36,-144,9000,6000,129000,152948,
-1648,2144,16544,-213,-37,-171,9000,6000,129000,152960,
-1616,2176,16408,-198,15,-199,9000,6000,129000,152962,
-1708,2136,16580,-200,-3,-171,9000,6000,129000,152964,
-1768,2212,16580,-122,-4,-180,9000,6000,129000,152977,
-1632,2164,16696,-127,-8,-191,9000,6000,129000,152979,
-1636,2288,16604,-112,23,-175,9000,6000,129000,152981,
-1712,2264,16572,-191,45,-201,9000,6000,129000,152994,
-1680,2268,16636,-210,68,-224,9000,6000,129000,152996,
-1748,2252,16760,-207,73,-227,9000,6000,129000,152998,
-1764,2124,16452,-191,72,-245,9000,6000,129000,153001,
