Ax,Ay,Az,Gx,Gy,Gz,Roll,Pitch,Yaw,Timestamp,Target
448,-1872,16544,-459,106,-12,-13000,2000,103000,859654,
416,-1868,16684,-431,37,-9,-13000,2000,103000,859666,
380,-1884,16684,-440,22,5,-13000,2000,103000,859669,
240,-1860,16732,-448,63,-2,-13000,2000,103000,859671,
236,-1764,16624,-409,23,-5,-13000,2000,103000,859673,
244,-1836,16536,-422,-3,-10,-13000,2000,103000,859686,
348,-1720,16632,-440,-10,25,-13000,2000,103000,859688,
424,-1784,16644,-455,-27,39,-13000,2000,103000,859691,
428,-1728,16620,-419,37,57,-13000,2000,103000,859703,
508,-1804,16564,-435,107,55,-13000,2000,103000,859706,
536,-1792,16636,-469,141,53,-13000,2000,103000,859708,
492,-1776,16712,-433,109,34,-13000,2000,103000,859711,
564,-1648,16776,-434,104,50,-13000,2000,103000,859723,
536,-1700,16572,-438,138,90,-13000,2000,103000,859726,
472,-1668,16596,-446,130,78,-13000,2000,103000,859728,
544,-1808,16712,-412,240,96,-13000,2000,103000,859741,
476,-1728,16652,-467,285,106,-13000,2000,103000,859743,
508,-1664,16720,-465,297,53,-13000,2000,103000,859745,
484,-1760,16572,-419,235,106,-13000,2000,103000,859748,
444,-1616,16732,-442,337,105,-13000,2000,103000,859760,
456,-1800,16780,-427,256,110,-13000,2000,103000,859763,
520,-1744,16788,-460,265,105,-13000,2000,103000,859765,
372,-1668,16688,-446,280,140,-13000,2000,103000,859778,
324,-1672,16808,-451,293,115,-13000,2000,103000,859780,
456,-1736,16840,-438,315,123,-13000,2000,103000,859782,
300,-1760,16600,-459,267,165,-13000,2000,103000,859795,
384,-1664,16696,-439,303,147,-13000,2000,103000,859797,
352,-1712,16444,-458,277,178,-13000,2000,103000,859810,
564,-1760,16668,-444,325,154,-13000,2000,103000,859812,
472,-1736,16688,-453,291,200,-13000,2000,103000,859815,
416,-1660,16540,-449,395,153,-13000,2000,103000,859827,
496,-1728,16672,-464,396,210,-13000,2000,103000,859830,
360,-1692,16600,-475,452,182,-13000,2000,103000,859832,
480,-1760,16564,-502,484,150,-13000,2000,103000,859845,
380,-1636,16712,-505,541,179,-13000,2000,103000,859847,
364,-1748,16772,-456,505,133,-13000,2000,103000,859849,
328,-1740,16632,-500,554,147,-13000,2000,103000,859862,
284,-1736,16624,-466,552,119,-13000,2000,103000,859864,
308,-1676,16552,-523,525,129,-13000,2000,103000,859866,
256,-1824,16784,-412,467,109,-13000,2000,103000,859879,
288,-1776,16596,-456,422,114,-13000,2000,103000,859881,
248,-1836,16688,-483,397,129,-13000,2000,103000,859884,
280,-1816,16696,-504,271,128,-13000,2000,103000,859896,
196,-1744,16584,-496,281,128,-13000,2000,103000,859899,
276,-1740,16704,-470,256,91,-13000,2000,103000,859901,
520,-1800,16664,-508,265,85,-13000,2000,103000,859914,
368,-1828,16668,-461,240,81,-13000,2000,103000,859916,
412,-1740,16728,-497,222,98,-13000,2000,103000,859918,
432,-1732,16684,-503,292,96,-13000,2000,103000,859921,
332,-1880,16764,-450,240,103,-13000,2000,103000,859934,
268,-1856,16700,-482,256,62,-13000,2000,103000,859936,
216,-1820,16680,-445,290,56,-13000,2000,103000,859938,
144,-1824,16776,-435,217,35,-13000,2000,103000,859951,
160,-1856,16680,-459,229,21,-13000,2000,103000,859953,
300,-1836,16764,-451,159,23,-13000,2000,103000,859955,
140,-1740,16544,-493,149,48,-13000,2000,103000,859958,
232,-1652,16620,-438,77,-9,-13000,2000,103000,859971,
144,-1760,16716,-476,88,-11,-13000,2000,103000,859973,
136,-1676,16492,-441,59,-47,-13000,2000,103000,859975,
148,-1700,16608,-504,-9,-49,-13000,2000,103000,859988,
228,-1676,16668,-450,-40,-55,-13000,2000,103000,859990,
180,-1668,16696,-504,-92,-48,-13000,2000,103000,859993,
292,-1780,16716,-446,-131,-77,-13000,2000,103000,860005,
244,-1688,16688,-479,-173,-69,-13000,2000,103000,860008,
412,-1816,16788,-498,-136,-94,-13000,2000,103000,860010,
400,-1816,16848,-470,-118,-73,-13000,2000,103000,860023,
500,-1764,16680,-478,-95,-85,-13000,2000,103000,860025,
444,-1744,16768,-436,-93,-88,-13000,2000,103000,860027,
384,-1744,16688,-450,-44,-60,-13000,2000,103000,860040,
456,-1856,16600,-433,-10,-60,-13000,2000,103000,860042,
436,-1780,16640,-447,-48,-52,-13000,2000,103000,860045,
496,-1860,16660,-480,155,-55,-13000,2000,103000,860057,
532,-1796,16544,-455,142,-42,-13000,2000,103000,860059,
544,-1736,16672,-481,197,-39,-13000,2000,103000,860062,
524,-1664,16692,-469,123,-34,-13000,2000,103000,860074,
444,-1752,16752,-471,131,-7,-13000,2000,103000,860077,
352,-1728,16608,-445,146,-35,-13000,2000,103000,860079,
336,-1772,16708,-453,135,31,-13000,2000,103000,860092,
356,-1700,16564,-470,161,4,-13000,2000,103000,860094,
400,-1760,16716,-452,105,26,-13000,2000,103000,860096,
328,-1768,16632,-476,101,35,-13000,2000,103000,860099,
316,-1804,16692,-465,68,37,-13000,2000,103000,860111,
392,-1724,16648,-466,89,15,-13000,2000,103000,860114,
412,-1732,16708,-447,124,12,-13000,2000,103000,860116,
512,-1648,16512,-500,172,61,-13000,2000,103000,860129,
396,-1748,16572,-449,175,32,-13000,2000,103000,860131,
516,-1720,16516,-477,152,45,-13000,2000,103000,860133,
444,-1824,16616,-470,198,60,-13000,2000,103000,860136,
636,-1776,16664,-486,277,80,-13000,2000,103000,860148,
608,-1804,16624,-490,323,52,-13000,2000,103000,860151,
544,-1748,16704,-467,364,48,-13000,2000,103000,860153,
452,-1828,16792,-508,463,66,-13000,2000,103000,860166,
560,-1776,16600,-469,468,67,-13000,2000,103000,860168,
488,-1792,16796,-505,471,106,-13000,2000,103000,860170,
356,-1848,16676,-460,517,113,-13000,2000,103000,860183,
388,-1788,16732,-476,477,119,-13000,2000,103000,860185,
316,-1828,16736,-514,495,127,-13000,2000,103000,860188,
160,-1828,16528,-506,428,134,-13000,2000,103000,860200,
212,-1752,16544,-525,473,130,-13000,2000,103000,860203,
296,-1768,16588,-471,490,100,-13000,2000,103000,860205,
296,-1688,16620,-490,371,104,-13000,2000,103000,860218,
288,-1712,16716,-484,386,99,-13000,2000,103000,860220,
204,-1732,16656,-496,325,130,-13000,2000,103000,860223,
304,-1772,16660,-449,312,46,-13000,2000,103000,860235,
252,-1760,16700,-476,287,46,-13000,2000,103000,860238,
268,-1860,16752,-494,270,52,-13000,2000,103000,860240,
208,-1856,16744,-473,309,29,-13000,2000,103000,860242,
260,-1752,16748,-409,124,36,-13000,2000,103000,860259,
308,-1728,16756,-462,120,59,-13000,2000,103000,860261,
276,-1840,16684,-472,141,50,-13000,2000,103000,860263,
172,-1776,16672,-473,34,6,-13000,2000,103000,860276,
252,-1880,16632,-458,69,8,-13000,2000,103000,860278,
348,-1732,16592,-419,53,22,-13000,2000,103000,860281,
188,-1828,16596,-451,45,29,-13000,2000,103000,860283,
348,-1912,16612,-451,67,-11,-13000,2000,103000,860296,
348,-1892,16608,-488,27,28,-13000,2000,103000,860298,
364,-1756,16556,-493,91,11,-13000,2000,103000,860300,
424,-1804,16740,-488,71,-12,-13000,2000,103000,860313,
416,-1804,16600,-521,106,-20,-13000,2000,103000,860315,
408,-1688,16640,-461,75,0,-13000,2000,103000,860318,
312,-1680,16628,-496,109,-8,-13000,2000,103000,860320,
564,-1804,16588,-447,114,-22,-13000,2000,103000,860333,
432,-1824,16716,-471,148,-7,-13000,2000,103000,860335,
540,-1756,16700,-480,167,-34,-13000,2000,103000,860338,
208,-1776,16744,-486,169,4,-13000,2000,103000,860350,
360,-1828,16676,-478,194,4,-13000,2000,103000,860353,
312,-1724,16724,-464,179,4,-13000,2000,103000,860355,
408,-1736,16744,-505,148,2,-13000,2000,103000,860357,
336,-1692,16600,-435,119,12,-13000,2000,103000,860370,
304,-1776,16872,-476,84,37,-13000,2000,103000,860372,
308,-1772,16716,-473,125,17,-13000,2000,103000,860375,
284,-1792,16696,-463,64,17,-13000,2000,103000,860387,
360,-1724,16600,-446,91,45,-13000,2000,103000,860390,
372,-1672,16620,-449,13,26,-13000,2000,103000,860392,
340,-1760,16776,-469,21,64,-13000,2000,103000,860394,
476,-1800,16656,-433,46,43,-13000,2000,103000,860407,
448,-1660,16596,-479,67,28,-13000,2000,103000,860409,
452,-1716,16596,-471,123,32,-13000,2000,103000,860412,
468,-1736,16784,-455,175,55,-13000,2000,103000,860424,
468,-1732,16708,-460,204,41,-13000,2000,103000,860427,
380,-1808,16644,-429,215,63,-13000,2000,103000,860429,
492,-1676,16564,-483,232,71,-13000,2000,103000,860432,
556,-1808,16652,-453,256,79,-13000,2000,103000,860444,
376,-1672,16820,-472,292,85,-13000,2000,103000,860447,
412,-1688,16660,-473,311,68,-13000,2000,103000,860449,
480,-1816,16716,-469,322,70,-13000,2000,103000,860462,
348,-1844,16656,-501,393,59,-13000,2000,103000,860464,
400,-1760,16680,-442,342,33,-13000,2000,103000,860466,
312,-1756,16672,-457,373,93,-13000,2000,103000,860469,
360,-1752,16680,-417,360,96,-13000,2000,103000,860482,
328,-1796,16648,-470,346,103,-13000,2000,103000,860484,
376,-1792,16696,-488,361,106,-13000,2000,103000,860486,
184,-1784,16756,-467,253,136,-13000,2000,103000,860499,
304,-1784,16676,-461,252,93,-13000,2000,103000,860501,
304,-1768,16708,-409,219,137,-13000,2000,103000,860504,
348,-1752,16628,-447,152,150,-13000,2000,103000,860516,
336,-1860,16628,-379,83,141,-13000,2000,103000,860519,
296,-1736,16668,-434,94,173,-13000,2000,103000,860521,
288,-1716,16664,-447,114,146,-13000,2000,103000,860523,
344,-1772,16612,-441,92,148,-13000,2000,103000,860536,
396,-1656,16656,-468,130,134,-13000,2000,103000,860538,
524,-1832,16576,-410,130,84,-13000,2000,103000,860541,
508,-1656,16700,-451,197,79,-13000,2000,103000,860553,
380,-1676,16624,-423,214,68,-13000,2000,103000,860556,
444,-1732,16624,-431,194,85,-13000,2000,103000,860558,
468,-1808,16708,-425,228,82,-13000,2000,103000,860570,
424,-1708,16696,-454,198,75,-13000,2000,103000,860573,
208,-1732,16692,-471,210,65,-13000,2000,103000,860575,
208,-1624,16704,-421,217,38,-13000,2000,103000,860578,
264,-1640,16672,-454,193,65,-13000,2000,103000,860590,
284,-1688,16556,-417,160,45,-13000,2000,103000,860593,
304,-1644,16740,-455,174,59,-13000,2000,103000,860595,
404,-1800,16696,-486,174,61,-13000,2000,103000,860608,
424,-1664,16616,-482,212,87,-13000,2000,103000,860610,
404,-1724,16540,-501,206,50,-13000,2000,103000,860612,
484,-1704,16684,-451,208,71,-13000,2000,103000,860615,
496,-1684,16632,-510,261,75,-13000,2000,103000,860627,
448,-1700,16652,-454,263,55,-13000,2000,103000,860630,
376,-1716,16516,-508,279,100,-13000,2000,103000,860632,
268,-1772,16744,-493,270,50,-13000,2000,103000,860649,
224,-1720,16804,-474,298,55,-13000,2000,103000,860651,
332,-1824,16752,-466,251,41,-13000,2000,103000,860653,
268,-1868,16832,-481,287,62,-13000,2000,103000,860656,
224,-1848,16708,-434,177,63,-13000,2000,103000,860668,
328,-1840,16696,-444,186,39,-13000,2000,103000,860671,
292,-1912,16744,-422,197,40,-13000,2000,103000,860673,
252,-1884,16584,-467,108,62,-13000,2000,103000,860686,
268,-1832,16692,-434,120,56,-13000,2000,103000,860688,
224,-1724,16544,-433,50,41,-13000,2000,103000,860690,
268,-1716,16548,-451,62,40,-13000,2000,103000,860693,
340,-1760,16584,-470,17,25,-13000,2000,103000,860705,
348,-1616,16672,-477,31,35,-13000,2000,103000,860708,
380,-1680,16596,-460,86,-15,-13000,2000,103000,860710,
456,-1720,16640,-481,76,-2,-13000,2000,103000,860723,
300,-1764,16744,-474,116,-13,-13000,2000,103000,860725,
444,-1716,16628,-470,70,-7,-13000,2000,103000,860727,
400,-1908,16764,-492,99,-2,-13000,2000,103000,860730,
344,-1760,16760,-481,103,0,-13000,2000,103000,860743,
356,-1756,16804,-468,121,5,-13000,2000,103000,860745,
356,-1672,16712,-417,112,-31,-13000,2000,103000,860747,
296,-1712,16636,-459,67,3,-13000,2000,103000,860760,
244,-1724,16756,-438,74,-26,-13000,2000,103000,860762,
252,-1676,16768,-458,16,-16,-13000,2000,103000,860765,
308,-1648,16656,-459,15,-30,-13000,2000,103000,860767,
432,-1704,16824,-449,-2,-29,-13000,2000,103000,860780,
388,-1776,16748,-439,-15,-9,-13000,2000,103000,860782,
316,-1764,16652,-439,18,-39,-13000,2000,103000,860784,
316,-1784,16772,-468,51,-8,-13000,2000,103000,860797,
340,-1844,16820,-431,83,-22,-13000,2000,103000,860799,
436,-1796,16684,-412,32,-28,-13000,2000,103000,860802,
432,-1720,16748,-472,-3,-15,-13000,2000,103000,860804,
380,-1848,16712,-458,140,45,-13000,2000,103000,860817,
452,-1872,16712,-438,202,40,-13000,2000,103000,860819,
504,-1848,16760,-439,258,49,-13000,2000,103000,860821,
340,-1620,16592,-460,159,31,-13000,2000,103000,860834,
400,-1740,16664,-468,210,29,-13000,2000,103000,860836,
452,-1740,16668,-443,179,36,-13000,2000,103000,860839,
552,-1912,16688,-467,195,52,-13000,2000,103000,860841,
476,-1824,16716,-427,104,25,-13000,2000,103000,860854,
480,-1716,16736,-464,122,54,-13000,2000,103000,860856,
524,-1808,16632,-457,155,40,-13000,2000,103000,860858,
560,-1808,16796,-482,228,84,-13000,2000,103000,860871,
556,-1760,16656,-454,249,42,-13000,2000,103000,860873,
508,-1684,16624,-439,232,60,-13000,2000,103000,860876,
416,-1844,16672,-474,274,79,-13000,2000,103000,860878,
484,-1780,16660,-448,318,81,-13000,2000,103000,860891,
324,-1804,16596,-480,316,91,-13000,2000,103000,860893,
380,-1744,16600,-476,379,52,-13000,2000,103000,860896,
380,-1752,16644,-489,302,77,-13000,2000,103000,860908,
408,-1844,16592,-473,342,35,-13000,2000,103000,860911,
352,-1764,16756,-449,305,50,-13000,2000,103000,860913,
372,-1688,16588,-493,269,43,-13000,2000,103000,860915,
288,-1748,16732,-453,187,52,-13000,2000,103000,860928,
280,-1816,16756,-488,179,53,-13000,2000,103000,860930,
260,-1804,16516,-456,196,46,-13000,2000,103000,860933,
300,-1764,16672,-471,93,36,-13000,2000,103000,860945,
188,-1728,16680,-478,127,46,-13000,2000,103000,860948,
272,-1824,16788,-437,78,49,-13000,2000,103000,860950,
256,-1676,16664,-455,58,67,-13000,2000,103000,860952,
408,-1800,16788,-428,4,32,-13000,2000,103000,860965,
372,-1720,16612,-481,-16,45,-13000,2000,103000,860967,
364,-1700,16560,-466,49,29,-13000,2000,103000,860970,
452,-1668,16708,-465,76,18,-13000,1000,103000,860982,
392,-1612,16748,-493,120,-13,-13000,1000,103000,860985,
464,-1672,16700,-437,93,-1,-13000,1000,103000,860987,
536,-1768,16680,-504,133,8,-13000,1000,103000,860989,
624,-1768,16792,-453,169,-6,-13000,1000,103000,861002,
552,-1752,16868,-463,160,23,-13000,1000,103000,861004,
332,-1780,16776,-474,146,2,-13000,1000,103000,861007,
424,-1828,16816,-496,125,41,-13000,1000,103000,861019,
308,-1760,16708,-474,180,16,-13000,1000,103000,861021,
292,-1848,16720,-438,138,40,-13000,1000,103000,861024,
400,-1864,16656,-451,104,56,-13000,1000,103000,861026,
412,-1732,16648,-413,66,82,-13000,1000,103000,861039,
300,-1688,16592,-449,54,55,-13000,1000,103000,861041,
348,-1760,16584,-447,91,60,-13000,1000,103000,861044,
476,-1756,16688,-452,47,74,-13000,1000,103000,861056,
392,-1724,16780,-446,43,70,-13000,1000,103000,861059,
468,-1816,16552,-436,43,42,-13000,1000,103000,861061,
476,-1804,16528,-476,59,61,-13000,1000,103000,861064,
624,-1728,16552,-445,158,70,-13000,1000,103000,861076,
528,-1816,16540,-498,220,68,-13000,1000,103000,861078,
684,-1848,16680,-474,263,43,-13000,1000,103000,861081,
536,-1772,16740,-487,338,84,-13000,1000,103000,861093,
536,-1692,16628,-487,399,64,-13000,1000,103000,861096,
612,-1712,16704,-464,392,73,-13000,1000,103000,861098,
464,-1740,16756,-477,388,100,-13000,1000,103000,861101,
436,-1836,16536,-477,396,118,-13000,1000,103000,861113,
504,-1864,16776,-467,404,92,-13000,1000,103000,861116,
372,-1860,16696,-499,419,110,-13000,1000,103000,861118,
328,-1680,16608,-451,333,88,-13000,1000,103000,861134,
300,-1792,16768,-471,328,101,-13000,1000,103000,861137,
372,-1752,16644,-496,369,92,-13000,1000,103000,861139,
444,-1720,16748,-492,272,97,-13000,1000,103000,861152,
468,-1896,16600,-489,341,80,-13000,1000,103000,861154,
356,-1672,16584,-445,292,87,-13000,1000,103000,861156,
428,-1696,16704,-503,295,111,-13000,1000,103000,861159,
328,-1712,16884,-434,376,75,-13000,2000,103000,861171,
364,-1840,16764,-485,353,92,-13000,2000,103000,861174,
364,-1712,16720,-495,381,40,-13000,2000,103000,861176,
232,-1792,16716,-485,329,102,-13000,2000,103000,861189,
308,-1740,16732,-423,284,91,-13000,2000,103000,861191,
208,-1796,16740,-455,237,93,-13000,2000,103000,861194,
196,-1760,16740,-460,221,105,-13000,2000,103000,861196,
256,-1720,16712,-436,82,105,-13000,2000,103000,861209,
232,-1660,16628,-455,56,117,-13000,2000,103000,861211,
288,-1704,16708,-440,81,62,-13000,2000,103000,861214,
408,-1644,16624,-458,7,93,-13000,2000,103000,861226,
432,-1672,16572,-454,43,27,-13000,1000,103000,861228,
364,-1760,16664,-447,-2,62,-13000,1000,103000,861231,
324,-1688,16764,-446,5,68,-13000,1000,103000,861233,
540,-1740,16668,-473,54,73,-13000,1000,103000,861246,
472,-1664,16688,-457,100,78,-13000,1000,103000,861248,
480,-1768,16668,-424,88,49,-13000,1000,103000,861251,
524,-1632,16712,-491,123,58,-13000,1000,103000,861263,
456,-1664,16664,-429,111,38,-13000,1000,103000,861265,
360,-1744,16796,-476,118,72,-13000,1000,103000,861268,
408,-1748,16588,-460,159,71,-13000,1000,103000,861270,
464,-1700,16764,-468,164,103,-13000,1000,103000,861283,
436,-1736,16748,-478,206,59,-13000,1000,103000,861285,
320,-1748,16616,-429,175,71,-13000,1000,103000,861287,
464,-1672,16540,-532,240,74,-13000,1000,103000,861300,
432,-1756,16672,-515,216,88,-13000,1000,103000,861302,
288,-1668,16592,-563,208,104,-13000,1000,103000,861305,
468,-1604,16688,-558,279,119,-13000,1000,103000,861317,
444,-1684,16628,-585,304,98,-13000,1000,103000,861320,
416,-1804,16488,-563,304,59,-13000,1000,103000,861322,
384,-1720,16632,-590,291,102,-13000,1000,103000,861324,
356,-1764,16824,-562,299,40,-13000,1000,103000,861337,
352,-1740,16752,-598,280,66,-13000,1000,103000,861339,
440,-1872,16844,-595,296,57,-13000,1000,103000,861342,
348,-1828,16892,-545,196,21,-13000,1000,103000,861354,
304,-1912,16740,-567,179,21,-13000,1000,103000,861357,
400,-1868,16792,-532,172,-3,-13000,1000,103000,861359,
212,-1820,16812,-545,9,-20,-13000,1000,103000,861372,
192,-1756,16824,-501,-2,-53,-13000,1000,103000,861374,
220,-1792,16668,-522,-87,-24,-13000,1000,103000,861376,
156,-1760,16736,-550,-109,-37,-13000,1000,103000,861379,
180,-1956,16648,-652,-356,-91,-13000,1000,103000,861391,
216,-1904,16940,-592,-282,-65,-13000,1000,103000,861394,
272,-1888,16988,-488,-252,-56,-13000,1000,103000,861396,
620,-1992,16924,-616,-513,-94,-13000,1000,103000,861409,
544,-1904,16872,-556,-442,-123,-13000,1000,103000,861411,
568,-1884,16840,-519,-399,-86,-13000,1000,103000,861413,
652,-1796,16628,-597,-229,-130,-13000,1000,103000,861426,
492,-1716,16688,-650,-244,-71,-13000,1000,103000,861428,
632,-1592,16704,-680,-187,-23,-13000,1000,103000,861431,
712,-1564,16820,-635,-192,149,-13000,1000,103000,861443,
612,-1828,16768,-704,-210,155,-13000,1000,103000,861446,
852,-1660,16776,-630,-196,134,-13000,1000,103000,861448,
920,-2064,17412,-647,-389,24,-13000,1000,103000,861461,
868,-2064,17500,-609,-446,-15,-13000,1000,103000,861463,
872,-2056,17704,-646,-479,-27,-13000,1000,103000,861465,
1160,-2188,18932,-433,-74,-281,-13000,1000,103000,861478,
1372,-2216,18940,-343,87,-326,-13000,1000,103000,861480,
1596,-2196,19284,-260,208,-398,-13000,1000,103000,861483,
2156,-1968,19020,-132,1293,-727,-13000,1000,103000,861495,
2304,-2156,19704,5,1618,-780,-13000,1000,103000,861497,
2260,-2264,19560,216,1966,-827,-13000,1000,103000,861500,
2452,-2452,18160,402,2948,-577,-13000,1000,103000,861513,
2444,-2640,18136,468,3018,-533,-13000,1000,103000,861515,
2396,-2888,18316,485,2887,-540,-13000,1000,103000,861517,
1424,-3844,17780,1135,2472,-545,-12000,2000,103000,861530,
1200,-3712,17324,1238,2418,-490,-12000,2000,103000,861532,
780,-3716,17244,1325,2314,-422,-12000,2000,103000,861535,
756,-2832,17944,2204,379,-395,-12000,2000,103000,861547,
892,-2676,18360,2320,-41,-505,-12000,2000,103000,861550,
1676,-1756,20184,3037,-1960,-1292,-12000,1000,103000,861562,
1920,-1784,20468,3210,-2104,-1518,-12000,1000,103000,861564,
2192,-1776,20376,3361,-2190,-1705,-12000,1000,103000,861567,
3600,-2008,20888,4179,-1450,-2678,-11000,1000,102000,861579,
3812,-1952,21068,4318,-1212,-2784,-11000,1000,102000,861582,
3928,-1992,20944,4442,-920,-2915,-11000,1000,102000,861584,
4168,-2176,20820,5037,1117,-3239,-11000,1000,102000,861597,
4208,-2096,20848,5133,1549,-3288,-10000,1000,102000,861599,
4148,-2184,20872,5245,1974,-3346,-10000,1000,102000,861602,
3580,-1864,20620,5737,3515,-3609,-10000,1000,101000,861614,
3468,-1964,20644,5868,3700,-3695,-10000,1000,101000,861617,
3352,-1848,20524,5934,3765,-3767,-10000,1000,101000,861619,
2740,-1744,20216,6395,4032,-4250,-9000,1000,101000,861632,
2648,-1752,20036,6406,3951,-4330,-9000,1000,101000,861634,
2608,-1700,20044,6414,3947,-4442,-9000,2000,101000,861636,
2392,-1588,19596,6670,3629,-4960,-8000,2000,100000,861649,
2388,-1440,19472,6669,3558,-5103,-8000,2000,100000,861651,
2340,-1328,19476,6692,3524,-5256,-8000,2000,100000,861654,
2444,-1068,18848,6707,3080,-5770,-7000,2000,99000,861666,
2352,-916,18784,6743,3009,-5905,-7000,2000,99000,861668,
2308,-808,18844,6724,2830,-5988,-7000,2000,99000,861671,
2356,-164,18404,6576,2135,-6804,-6000,2000,98000,861683,
2176,-144,18464,6493,1827,-6957,-6000,2000,98000,861686,
2036,-36,18328,6431,1616,-7157,-6000,2000,98000,861688,
1800,124,17984,6143,27,-7898,-5000,2000,97000,861701,
1692,180,17952,6085,-268,-7999,-5000,2000,97000,861703,
1944,108,18092,6054,-519,-8109,-5000,2000,97000,861706,
2144,380,18004,5683,-1768,-8585,-5000,2000,96000,861718,
2376,360,17856,5643,-1844,-8759,-5000,2000,96000,861721,
2388,308,17780,5572,-2024,-8804,-4000,1000,96000,861723,
2884,760,17396,5138,-2301,-9574,-4000,1000,95000,861736,
3020,772,17388,5032,-2371,-9656,-4000,1000,95000,861738,
2880,772,17128,4915,-2352,-9813,-4000,1000,95000,861740,
3072,840,16648,4447,-2357,-10483,-3000,1000,94000,861753,
3092,800,16704,4331,-2371,-10545,-3000,1000,94000,861755,
3012,912,16368,4232,-2349,-10744,-3000,0,93000,861758,
2960,904,16312,3619,-2371,-11229,-3000,0,92000,861770,
3088,900,16116,3531,-2341,-11368,-3000,0,92000,861772,
3072,864,16156,3442,-2351,-11440,-3000,0,92000,861775,
2964,868,16208,3318,-2353,-11541,-3000,0,92000,861777,
3020,544,15840,2824,-2190,-12265,-2000,0,90000,861790,
2960,400,15644,2728,-2129,-12311,-2000,0,90000,861792,
3020,392,15704,2641,-2031,-12475,-2000,0,90000,861794,
2772,120,15548,2154,-1824,-13158,-2000,0,89000,861807,
2856,-32,15340,2115,-1756,-13328,-2000,0,89000,861809,
2820,-100,15272,2011,-1777,-13358,-2000,0,88000,861812,
2732,-216,15120,1517,-1481,-13944,-2000,0,87000,861824,
2656,-260,15136,1379,-1456,-13947,-2000,0,87000,861827,
2668,-304,15028,1297,-1443,-14067,-2000,0,86000,861829,
2804,-400,15024,924,-1232,-14515,-1000,-1000,85000,861842,
2664,-484,15120,831,-1183,-14630,-1000,-1000,85000,861844,
2580,-588,15016,785,-1073,-14816,-1000,-1000,85000,861847,
2480,-740,15052,490,-677,-15205,-1000,-1000,83000,861859,
2556,-768,15072,480,-595,-15342,-1000,-1000,83000,861862,
2528,-968,15192,412,-539,-15356,-1000,-1000,83000,861864,
2324,-1084,14976,161,126,-15873,-1000,-1000,81000,861877,
2256,-1196,15120,143,179,-15841,-1000,-1000,81000,861879,
2248,-1232,14988,107,329,-15925,-1000,-1000,80000,861881,
2060,-1528,14904,-46,901,-16065,-1000,-1000,79000,861894,
2040,-1476,14912,-58,1022,-16111,-1000,-1000,79000,861896,
1992,-1544,14852,-70,1155,-16178,-1000,-1000,78000,861899,
1880,-1540,15016,-243,1503,-16243,-1000,-1000,77000,861911,
1932,-1536,14992,-205,1555,-16307,-1000,-1000,76000,861914,
1832,-1468,15108,-239,1597,-16278,-1000,-1000,76000,861916,
1848,-1500,15124,-281,1865,-16558,-1000,-1000,74000,861929,
1844,-1440,14964,-308,1860,-16559,-1000,-1000,74000,861931,
1752,-1480,15044,-358,1955,-16660,-1000,-1000,74000,861933,
1716,-1604,14976,-339,2305,-16897,-1000,-1000,72000,861946,
1768,-1588,14928,-348,2412,-16981,-1000,-1000,72000,861948,
1688,-1584,14876,-315,2531,-17083,-1000,-1000,72000,861951,
1620,-1468,14932,-399,3070,-17152,-1000,0,70000,861963,
1612,-1436,14792,-384,3195,-17218,-1000,0,70000,861966,
1460,-1420,14976,-440,3272,-17154,-1000,0,69000,861968,
1488,-1644,14876,-512,3937,-17327,-1000,0,68000,861981,
1484,-1472,14884,-512,4001,-17295,-1000,0,67000,861983,
1440,-1548,14904,-533,4122,-17348,-1000,0,67000,861985,
1268,-1620,15028,-601,4707,-17471,-2000,0,65000,861998,
1372,-1516,15052,-630,4816,-17525,-2000,0,65000,862000,
1364,-1596,14984,-557,4973,-17579,-2000,0,65000,862003,
1412,-1696,15196,-616,5529,-17623,-2000,0,63000,862015,
1304,-1692,15132,-582,5677,-17723,-2000,0,63000,862018,
1252,-1860,15052,-595,5773,-17645,-2000,0,62000,862020,
1076,-1520,15528,-577,6726,-17801,-2000,1000,61000,862033,
1068,-1508,15356,-623,6864,-17725,-2000,1000,60000,862035,
956,-1472,15360,-654,7047,-17769,-2000,1000,60000,862037,
824,-1192,15700,-621,8117,-17784,-2000,2000,58000,862050,
776,-1324,15468,-665,8375,-17841,-2000,2000,58000,862052,
792,-1224,15792,-636,8605,-17878,-2000,2000,58000,862055,
-12,-1416,15744,-576,9601,-18030,-2000,3000,56000,862067,
36,-1500,15592,-502,9850,-18092,-2000,3000,55000,862070,
-212,-1664,15496,-466,9924,-18043,-2000,3000,55000,862072,
-604,-2236,15348,-345,10472,-18432,-2000,4000,53000,862085,
-856,-2484,15256,-272,10463,-18371,-3000,4000,53000,862087,
-1044,-2528,15116,-281,10562,-18423,-3000,4000,53000,862089,
-1280,-2828,15108,-180,10842,-18519,-3000,5000,51000,862102,
-1560,-3076,15128,-171,10992,-18553,-3000,6000,50000,862104,
-1488,-2996,15328,-105,11144,-18601,-3000,6000,50000,862107,
-1360,-3148,15056,25,12050,-18651,-3000,7000,48000,862119,
-1584,-3424,14996,124,12284,-18748,-3000,7000,48000,862122,
-1448,-3108,14852,126,12438,-18659,-3000,7000,47000,862124,
-2204,-3532,14316,235,13536,-18653,-4000,8000,45000,862137,
-2468,-3444,14280,247,13665,-18539,-4000,9000,45000,862139,
-2568,-3512,14076,189,13888,-18484,-4000,9000,45000,862142,
-3712,-3368,13732,313,14313,-17851,-4000,10000,43000,862154,
-4044,-3524,13852,283,14386,-17788,-4000,10000,42000,862157,
-4164,-3488,13696,348,14355,-17696,-4000,11000,42000,862159,
-4912,-3468,13544,516,13908,-17259,-5000,12000,40000,862172,
-4984,-3404,13504,576,13692,-17212,-5000,12000,40000,862174,
-5060,-3504,13240,560,13454,-17134,-5000,12000,40000,862177,
-5152,-3556,13528,747,12662,-16939,-5000,13000,38000,862189,
-5288,-3604,13660,723,12486,-16899,-5000,14000,37000,862192,
-5172,-3708,13596,786,12385,-16936,-5000,14000,37000,862194,
-5064,-3636,13212,768,12083,-16716,-6000,15000,35000,862207,
-5128,-3640,13500,873,12263,-16654,-6000,15000,35000,862209,
-5140,-3472,13156,945,12371,-16388,-6000,15000,35000,862212,
-5444,-3180,12580,705,12774,-16158,-6000,16000,33000,862224,
-5564,-3192,12548,659,12832,-15991,-6000,17000,32000,862227,
-5976,-3252,12504,658,12931,-15925,-7000,17000,32000,862229,
-7140,-3236,12044,567,12825,-15280,-7000,18000,30000,862242,
-7332,-3032,12048,505,12642,-15225,-7000,18000,30000,862244,
-7644,-3172,12088,501,12469,-15231,-7000,18000,30000,862247,
-8436,-3244,11908,339,11136,-14845,-8000,19000,28000,862259,
-8616,-3336,12064,328,10861,-14858,-8000,19000,28000,862262,
-8500,-3280,12136,251,10488,-14731,-8000,20000,27000,862264,
-8840,-3508,12252,112,9410,-14552,-9000,20000,26000,862277,
-8784,-3548,12228,81,9269,-14434,-9000,21000,25000,862279,
-8768,-3672,12336,80,9154,-14391,-9000,21000,25000,862282,
-9532,-4412,11900,180,8710,-13871,-10000,21000,24000,862294,
-9812,-4416,11780,193,8705,-13775,-10000,21000,23000,862297,
-9988,-4468,11648,176,8724,-13633,-10000,22000,23000,862299,
-11100,-4816,11360,279,8935,-12272,-10000,22000,21000,862312,
-11456,-4768,11012,289,8782,-12076,-10000,23000,21000,862314,
-11536,-4776,11116,207,8704,-11691,-11000,23000,21000,862317,
-12596,-4752,10948,227,7838,-10063,-11000,23000,20000,862330,
-12748,-4768,10828,220,7705,-9700,-11000,24000,19000,862332,
-12884,-4728,10944,216,7534,-9412,-11000,24000,19000,862334,
-12832,-4484,11196,285,6235,-7679,-12000,24000,18000,862347,
-12840,-4456,11036,326,6045,-7426,-12000,24000,18000,862350,
-12784,-4252,11048,325,5771,-7130,-12000,24000,18000,862352,
-12444,-3840,10936,274,4883,-5756,-12000,25000,17000,862365,
-12456,-3860,10928,262,4625,-5472,-12000,25000,17000,862367,
-12360,-3788,10880,215,4452,-5238,-12000,25000,17000,862369,
-12704,-3604,10692,14,3419,-4081,-13000,25000,16000,862382,
-12748,-3620,10900,-23,3199,-3889,-13000,26000,16000,862385,
-12744,-3580,10824,-9,2974,-3677,-13000,26000,16000,862387,
-12760,-3420,11148,-151,1484,-2634,-13000,26000,16000,862400,
-12672,-3328,11224,-127,1227,-2486,-13000,26000,16000,862402,
-12708,-3312,11176,-129,958,-2317,-13000,26000,16000,862404,
-12292,-2940,12028,-223,-101,-1828,-13000,26000,16000,862417,
-12164,-2840,12024,-263,-249,-1700,-13000,26000,16000,862420,
-11976,-2968,12092,-249,-405,-1683,-13000,26000,16000,862422,
-11700,-2720,12136,-346,-804,-1604,-13000,26000,15000,862435,
-11596,-2752,12144,-406,-824,-1656,-13000,26000,15000,862437,
-11648,-2820,12108,-423,-787,-1653,-13000,26000,15000,862439,
-11352,-2880,12224,-689,-685,-1624,-13000,26000,15000,862452,
-11416,-2900,12188,-688,-574,-1612,-13000,26000,15000,862455,
-11372,-2824,12080,-746,-513,-1622,-13000,26000,15000,862457,
-11572,-3136,12288,-972,17,-1645,-14000,26000,15000,862470,
-11720,-3108,12244,-1029,68,-1616,-14000,26000,15000,862472,
-11800,-3264,12272,-1086,88,-1557,-14000,26000,15000,862474,
-12228,-3080,12380,-1372,333,-1283,-14000,26000,15000,862491,
-12188,-3076,12364,-1368,289,-1241,-14000,26000,15000,862493,
-12312,-2976,12580,-1435,278,-1233,-14000,26000,15000,862496,
-12620,-2872,12392,-1544,96,-1026,-14000,26000,15000,862508,
-12760,-2900,12488,-1641,34,-918,-14000,26000,15000,862511,
-12740,-3080,12564,-1646,9,-903,-14000,26000,15000,862513,
-13092,-3348,12780,-1859,-327,-442,-14000,26000,14000,862526,
-13204,-3364,12528,-1808,-367,-348,-14000,26000,14000,862528,
-13308,-3468,12632,-1794,-446,-203,-14000,26000,14000,862531,
-13656,-3840,12676,-1779,-705,519,-15000,26000,15000,862544,
-13724,-3896,12660,-1764,-788,691,-15000,27000,15000,862546,
-13756,-3908,12392,-1766,-836,870,-15000,27000,15000,862549,
-14172,-4084,12284,-1863,-1465,1623,-15000,27000,15000,862561,
-14404,-4064,12332,-1870,-1617,1789,-15000,27000,15000,862564,
-14228,-3988,12328,-1863,-1785,1955,-15000,27000,15000,862566,
-14636,-3684,12504,-1998,-2878,2716,-15000,26000,15000,862579,
-14540,-3740,12632,-1962,-3118,2854,-15000,26000,15000,862581,
-14444,-3804,12908,-2025,-3327,3038,-15000,26000,15000,862584,
-14180,-4088,13480,-1871,-4209,4010,-15000,26000,16000,862596,
-13880,-4052,13492,-1868,-4272,4224,-15000,26000,16000,862599,
-13860,-4044,13420,-1872,-4313,4451,-15000,26000,16000,862601,
-13212,-4028,13400,-1757,-4199,5387,-15000,26000,17000,862614,
-13104,-4072,13432,-1759,-4105,5520,-15000,26000,17000,862617,
-13136,-4080,13368,-1713,-4106,5685,-15000,26000,17000,862619,
-13212,-3992,13180,-1771,-4124,6420,-14000,26000,18000,862632,
-13312,-3948,13232,-1750,-4263,6542,-14000,26000,18000,862634,
-13560,-3992,13624,-1736,-5252,7310,-14000,26000,19000,862647,
-13432,-4108,13508,-1731,-5444,7416,-14000,26000,19000,862649,
-13252,-3988,13612,-1743,-5607,7528,-14000,26000,19000,862651,
-12592,-4100,13868,-1560,-6259,8058,-14000,25000,20000,862664,
-12324,-3916,13964,-1534,-6345,8196,-14000,25000,20000,862667,
-12260,-3904,13916,-1459,-6420,8314,-14000,25000,21000,862669,
-11576,-4120,13588,-1458,-6472,8870,-13000,25000,22000,862682,
-11508,-3972,13736,-1464,-6433,8939,-13000,25000,22000,862684,
-11212,-3952,13712,-1479,-6381,9044,-13000,25000,22000,862687,
-10848,-3768,14064,-1546,-6090,9582,-13000,24000,23000,862699,
-10624,-3756,14144,-1569,-6054,9660,-13000,24000,24000,862702,
-10448,-3764,14244,-1607,-5954,9760,-13000,24000,24000,862704,
-9756,-4012,14640,-1548,-5378,10380,-12000,24000,25000,862717,
-9676,-3896,14576,-1547,-5219,10514,-12000,24000,25000,862719,
-8996,-3668,14688,-1434,-4244,11024,-12000,24000,26000,862732,
-8860,-3520,14636,-1415,-4021,11149,-12000,24000,27000,862734,
-8964,-3488,14552,-1382,-3866,11209,-12000,24000,27000,862737,
-9156,-3564,14340,-1319,-3362,11601,-11000,24000,28000,862749,
-9128,-3684,14340,-1266,-3377,11659,-11000,24000,28000,862752,
-9316,-3764,14056,-1274,-3447,11737,-11000,24000,29000,862754,
-9532,-3828,13932,-1034,-4178,12103,-11000,24000,30000,862767,
-9528,-3800,13860,-1040,-4400,12171,-11000,24000,30000,862769,
-9536,-3644,13804,-1065,-4574,12205,-11000,24000,31000,862772,
-8844,-3736,14080,-869,-5809,12402,-10000,23000,32000,862785,
-8780,-3684,14004,-837,-6034,12475,-10000,23000,32000,862787,
-8528,-3676,14080,-805,-6224,12461,-10000,23000,33000,862789,
-7852,-3660,14296,-609,-6842,12694,-10000,23000,34000,862802,
-7524,-3576,14408,-556,-6876,12703,-9000,23000,34000,862805,
-7456,-3476,14396,-550,-6853,12820,-9000,23000,35000,862807,
-6828,-3384,14164,-425,-6552,13206,-9000,22000,36000,862820,
-6620,-3432,14380,-371,-6501,13368,-9000,22000,36000,862822,
-6420,-3340,14004,-351,-6409,13416,-9000,22000,37000,862824,
-5904,-3688,13876,-396,-5621,13746,-8000,22000,38000,862838,
-5964,-3592,13812,-330,-5432,13855,-8000,22000,38000,862840,
-5632,-4000,13892,-301,-4282,14634,-7000,22000,40000,862853,
-5688,-4004,13640,-287,-4194,14749,-7000,21000,40000,862855,
-5720,-3792,13808,-335,-4029,14885,-7000,21000,41000,862858,
-5724,-3684,13832,-405,-3441,15360,-7000,21000,42000,862870,
-5728,-3560,13956,-373,-3304,15556,-7000,21000,43000,862873,
-5648,-3576,14024,-298,-3160,15717,-7000,21000,43000,862875,
-5344,-3236,13928,-439,-2881,16332,-6000,21000,45000,862888,
-5348,-3072,13828,-435,-2847,16445,-6000,21000,45000,862890,
-5224,-3036,13700,-426,-2853,16461,-6000,21000,45000,862893,
-5552,-2768,13688,-512,-3071,16846,-5000,21000,47000,862906,
-5580,-2988,13760,-515,-3218,16854,-5000,21000,47000,862908,
-5536,-2936,13744,-536,-3339,16947,-5000,21000,48000,862910,
-5740,-3036,13680,-670,-4309,17151,-4000,21000,49000,862923,
-5800,-3116,13728,-706,-4499,17205,-4000,21000,50000,862925,
-5724,-3140,13720,-708,-4688,17268,-4000,21000,50000,862928,
-5332,-3060,14004,-829,-5655,17573,-4000,20000,52000,862941,
-5172,-3016,14104,-823,-5795,17626,-4000,20000,52000,862943,
-5052,-2936,14336,-819,-5896,17621,-3000,20000,53000,862945,
-4008,-2768,14416,-796,-6130,17790,-3000,19000,55000,862958,
-3884,-2660,14364,-780,-6079,17752,-3000,19000,55000,862961,
-3708,-2748,14404,-795,-6041,17745,-3000,19000,55000,862963,
-3004,-2324,14084,-921,-5487,17661,-2000,19000,57000,862976,
-2876,-2160,14160,-973,-5305,17674,-2000,19000,57000,862978,
-2744,-2008,14076,-1032,-5105,17703,-2000,19000,58000,862981,
-2288,-1404,13920,-1500,-4237,17669,-2000,18000,60000,862993,
-2292,-1276,13932,-1632,-4032,17661,-2000,18000,60000,862996,
-2308,-1336,14212,-1790,-3865,17610,-2000,18000,60000,862998,
-2328,-1032,14516,-2113,-3138,17549,-1000,18000,62000,863011,
-2356,-1100,14580,-2217,-3134,17489,-1000,18000,63000,863013,
-2424,-1040,14676,-2333,-3163,17487,-1000,18000,63000,863016,
-2888,-976,14768,-2726,-3547,17265,-1000,17000,65000,863028,
-2976,-1060,14816,-2757,-3651,17281,-1000,17000,65000,863031,
-2976,-1124,14808,-2783,-3823,17248,-1000,17000,65000,863033,
-2788,-1064,14756,-3098,-4827,17057,0,17000,67000,863046,
-2748,-964,14728,-3107,-5051,16948,0,17000,67000,863048,
-2664,-1008,14680,-3158,-5228,16911,0,16000,68000,863051,
-2400,-896,14168,-3526,-6051,16541,0,16000,69000,863063,
-2380,-896,14196,-3618,-6201,16527,0,16000,70000,863066,
-2252,-840,14284,-3703,-6313,16450,0,16000,70000,863068,
-2060,-1044,14032,-4032,-6848,16192,0,15000,72000,863081,
-1932,-1164,14092,-4058,-6926,16198,0,15000,72000,863083,
-1872,-1180,13956,-4168,-6987,16166,0,15000,72000,863086,
-1304,-1212,13912,-4669,-7205,16028,0,14000,74000,863098,
-1256,-1344,13940,-4777,-7220,16007,0,14000,74000,863101,
-1132,-1300,13924,-4881,-7235,16025,0,14000,74000,863103,
-592,-1404,13716,-5296,-6869,15982,0,13000,76000,863116,
-568,-1328,13860,-5425,-6781,16027,-1000,13000,76000,863118,
-488,-1472,14000,-5457,-6693,15992,-1000,13000,77000,863121,
-228,-1608,14004,-5883,-6100,16079,-1000,12000,78000,863133,
-132,-1640,14052,-5928,-5973,16045,-1000,12000,79000,863136,
-124,-1752,14284,-5982,-5853,16045,-1000,12000,79000,863138,
-268,-2012,14608,-6182,-5433,16055,-1000,11000,80000,863151,
-252,-1944,14740,-6226,-5437,16092,-1000,11000,81000,863153,
-340,-1804,14816,-6276,-5446,16148,-1000,11000,81000,863155,
-280,-1844,14960,-6326,-5710,16154,-2000,10000,83000,863168,
-264,-1860,15060,-6312,-5799,16182,-2000,10000,83000,863170,
-124,-1828,15204,-6263,-5855,16093,-2000,10000,83000,863173,
180,-2088,15136,-6085,-5937,15775,-2000,10000,85000,863185,
148,-2020,15112,-5967,-5965,15682,-2000,10000,85000,863188,
376,-2132,15096,-5928,-5955,15649,-2000,9000,85000,863190,
636,-2212,15028,-5523,-6016,15433,-3000,9000,87000,863203,
768,-2284,14972,-5524,-5977,15409,-3000,9000,87000,863205,
1008,-2324,14932,-5474,-5901,15406,-3000,9000,88000,863207,
1340,-2380,15180,-5302,-5754,15209,-3000,8000,89000,863220,
1392,-2248,15448,-5275,-5648,15210,-3000,8000,89000,863222,
1676,-2184,15304,-5084,-5245,14955,-3000,8000,91000,863235,
1868,-2116,15220,-5076,-5151,14889,-3000,7000,91000,863237,
1820,-2052,15296,-5041,-5030,14840,-3000,7000,91000,863240,
2200,-1920,15076,-5076,-4283,14528,-4000,7000,93000,863253,
2176,-1980,14976,-5061,-4152,14423,-4000,7000,93000,863255,
2260,-2000,14764,-5122,-4005,14337,-4000,7000,93000,863257,
2560,-2120,14680,-5328,-3168,13911,-4000,6000,95000,863270,
2576,-2128,14868,-5375,-2999,13863,-4000,6000,95000,863272,
2532,-2232,15056,-5423,-2893,13808,-4000,6000,95000,863275,
2572,-2448,15676,-5478,-2397,13580,-5000,6000,97000,863287,
2812,-2428,15696,-5486,-2320,13545,-5000,6000,97000,863290,
2704,-2528,15628,-5414,-2295,13480,-5000,6000,97000,863292,
2648,-2560,15772,-5396,-1925,13184,-5000,6000,98000,863305,
2672,-2588,15556,-5373,-1866,13142,-5000,6000,99000,863307,
2716,-2528,15516,-5389,-1792,13054,-6000,6000,99000,863309,
2812,-2588,15364,-5048,-1292,12600,-6000,6000,100000,863322,
2840,-2600,15464,-5025,-1195,12508,-6000,6000,100000,863324,
2812,-2620,15368,-4968,-1095,12425,-6000,6000,101000,863327,
2708,-2652,15224,-4989,-960,11748,-6000,6000,102000,863339,
2776,-2620,15416,-4940,-971,11622,-6000,6000,102000,863342,
2640,-2616,15672,-4920,-1012,11456,-7000,6000,102000,863344,
2588,-2488,16696,-4592,-1585,10869,-7000,6000,103000,863357,
2724,-2356,16712,-4568,-1776,10769,-7000,6000,103000,863359,
2876,-2140,16816,-4544,-1836,10732,-7000,5000,104000,863361,
3468,-1436,17152,-4473,-2498,10083,-7000,5000,105000,863374,
3596,-1392,17004,-4478,-2542,9971,-7000,5000,105000,863376,
3860,-1180,16824,-4418,-2489,9825,-7000,5000,105000,863379,
4388,-928,16512,-4379,-2023,8877,-8000,5000,106000,863391,
4412,-892,16580,-4334,-1881,8653,-8000,5000,106000,863394,
4480,-956,16568,-4301,-1742,8491,-8000,5000,106000,863396,
4376,-1036,16940,-4261,-1240,7666,-8000,5000,107000,863409,
4264,-1148,17228,-4276,-1194,7573,-8000,5000,107000,863411,
4280,-1220,17080,-4250,-1159,7453,-8000,5000,107000,863414,
4180,-992,17468,-4287,-1044,6910,-9000,5000,108000,863426,
4148,-1032,17748,-4262,-1037,6791,-9000,5000,108000,863429,
4184,-988,18012,-4213,-1085,6634,-9000,5000,108000,863431,
4356,-492,18208,-4363,-1121,5745,-9000,4000,109000,863444,
4536,-356,18056,-4327,-1148,5588,-9000,4000,109000,863446,
4576,-452,18132,-4368,-1105,5372,-9000,4000,109000,863448,
5180,-32,17840,-4381,-843,4448,-10000,4000,109000,863461,
5256,-88,18008,-4446,-750,4238,-10000,4000,109000,863463,
5240,-8,17928,-4493,-593,4059,-10000,4000,109000,863466,
5396,-48,17704,-4602,-261,3015,-10000,4000,110000,863478,
5208,-176,17740,-4611,-225,2797,-10000,4000,110000,863481,
5184,-268,17728,-4602,-260,2583,-10000,4000,110000,863483,
4800,-360,17704,-4741,-164,1594,-11000,4000,110000,863496,
4712,-428,17736,-4768,-110,1494,-11000,4000,110000,863498,
4612,-572,17724,-4805,-25,1375,-11000,4000,110000,863500,
3848,-1072,18260,-4778,724,815,-11000,4000,110000,863513,
3740,-1148,18212,-4788,876,695,-11000,4000,110000,863515,
3432,-1144,18316,-4746,975,580,-11000,4000,110000,863518,
2248,-1476,18252,-4593,800,236,-12000,4000,110000,863530,
2216,-1416,18188,-4554,683,177,-12000,4000,110000,863533,
1908,-1300,18072,-4574,472,98,-12000,4000,110000,863535,
2332,-1428,18472,-4159,-805,-983,-12000,4000,110000,863548,
2676,-1164,17936,-4226,-1266,-1297,-12000,4000,110000,863550,
2728,-1024,17716,-4351,-1737,-1659,-12000,4000,110000,863552,
3280,-1604,19220,-4001,-2580,-3250,-13000,3000,110000,863565,
3524,-1756,19360,-3898,-2414,-3466,-13000,3000,110000,863567,
3880,-1992,19588,-3828,-2228,-3696,-13000,3000,110000,863570,
4576,-2804,20396,-3343,-618,-4099,-13000,3000,109000,863582,
4468,-2904,20396,-3115,-372,-4044,-13000,3000,109000,863585,
4300,-3024,20664,-2942,-84,-3916,-13000,3000,109000,863587,
3576,-3236,21472,-2390,2009,-3397,-13000,3000,109000,863600,
3452,-3364,21636,-2286,2528,-3299,-13000,3000,109000,863602,
3452,-3468,21764,-2195,3107,-3247,-13000,3000,109000,863605,
2676,-3152,22724,-1514,6207,-3044,-14000,3000,108000,863617,
2312,-3164,22868,-1324,6746,-3001,-14000,3000,108000,863619,
2016,-3080,23068,-1073,7136,-2968,-14000,4000,108000,863622,
-596,-3484,22300,68,7447,-2669,-14000,4000,108000,863634,
-1256,-3484,21832,245,7165,-2601,-14000,4000,108000,863637,
-1632,-3556,21644,376,6777,-2489,-14000,4000,108000,863639,
-3316,-3236,20128,1299,4429,-2338,-14000,5000,107000,863652,
-3448,-3124,19876,1369,3835,-2361,-13000,5000,107000,863654,
-3736,-2972,19704,1424,3232,-2457,-13000,5000,107000,863657,
-3588,-3036,18484,1549,64,-2622,-13000,5000,107000,863669,
-3436,-2960,18184,1544,-468,-2628,-13000,5000,107000,863672,
-3312,-2952,17980,1556,-1014,-2589,-13000,5000,107000,863674,
-1768,-2492,16800,1393,-3291,-2120,-13000,4000,107000,863687,
-1560,-2312,16348,1406,-3589,-2033,-13000,4000,107000,863689,
-1144,-2124,16256,1349,-3826,-1930,-13000,4000,107000,863692,
720,-1376,15392,1146,-4372,-1694,-13000,4000,107000,863708,
728,-1396,15440,1161,-4307,-1692,-13000,4000,107000,863710,
884,-1312,15396,1142,-4294,-1634,-13000,3000,106000,863713,
988,-1108,15156,808,-3705,-1220,-13000,3000,106000,863725,
912,-1088,15128,718,-3583,-1141,-13000,3000,106000,863728,
992,-1116,15160,596,-3393,-1081,-13000,3000,106000,863730,
1072,-1028,15304,210,-2182,-1112,-12000,3000,106000,863743,
1296,-1192,15352,117,-1915,-1193,-12000,3000,106000,863745,
1304,-1184,15324,42,-1597,-1263,-12000,3000,106000,863747,
1364,-1620,16088,-240,-62,-1699,-12000,2000,106000,863760,
