Ax,Ay,Az,Gx,Gy,Gz,Roll,Pitch,Yaw,Timestamp,Target
-2048,-2648,15848,-572,142,-73,-18000,7000,27000,243738,
-1836,-2560,15832,-619,144,-90,-18000,7000,27000,243751,
-1776,-2528,15772,-630,140,-135,-18000,7000,27000,243753,
-1760,-2556,15728,-616,173,-99,-18000,7000,27000,243755,
-1868,-2672,15760,-704,253,-45,-18000,7000,27000,243768,
-1912,-2528,15776,-604,294,-110,-18000,7000,27000,243770,
-1880,-2580,15648,-667,268,-89,-18000,7000,27000,243772,
-1888,-2544,15560,-713,434,-60,-18000,7000,27000,243785,
-1748,-2408,15644,-633,494,-74,-18000,7000,27000,243787,
-1908,-2368,15624,-791,405,-47,-18000,7000,27000,243789,
-2044,-2432,15624,-816,392,11,-18000,7000,27000,243802,
-1952,-2460,15548,-702,439,35,-18000,7000,27000,243804,
-2016,-2428,15500,-828,350,-37,-18000,7000,27000,243806,
-2128,-2332,15532,-901,371,-65,-18000,7000,27000,243819,
-2068,-2412,15700,-926,338,-4,-18000,7000,27000,243821,
-2036,-2300,15640,-941,309,-34,-18000,7000,27000,243823,
-2048,-23688,-1024,15988,-1113,-5,-1447,-14000,0,24000,
552,-1196,16012,-1065,-15,-1091,-14000,0,25000,245511,
508,-1116,15964,-1222,-37,-1381,-14000,0,24000,245524,
-2168,-2592,15964,-1242,-201,-274,-18000,7000,27000,243856,
-2072,-2500,16008,-1235,-277,-346,-18000,7000,27000,243858,
-1952,-2620,15844,-1139,-302,-382,-18000,7000,27000,243870,
-1872,-2736,15972,-1236,-345,-390,-18000,7000,27000,243873,
-1932,-2808,15832,-1169,-259,-389,-18000,7000,27000,243875,
-1828,-2772,15968,-1088,-154,-360,-18000,7000,27000,243888,
-2024,-2784,15976,-1218,-178,-356,-18000,7000,27000,243890,
-1964,-2684,16024,-1109,-174,-349,-18000,7000,27000,243892,
-2020,-2700,16048,-1085,-124,-340,-18000,7000,27000,243905,
-2108,-2776,16232,-1217,-199,-342,-18000,7000,27000,243907,
-2356,-2848,16136,-1089,-209,-335,-18000,7000,27000,243909,
-2696,-2888,16104,-1135,-602,-276,-18000,7000,27000,243922,
-2712,-2880,16120,-1260,-768,-345,-18000,6000,27000,243924,
-2604,-2900,16100,-1128,-826,-274,-18000,6000,27000,243927,
-2536,-2600,16256,-1223,-1487,-344,-18000,6000,27000,243939,
-2552,-2532,16192,-1409,-1681,-403,-18000,6000,27000,243941,
-2516,-2576,16240,-1313,-1723,-377,-18000,6000,27000,243944,
-1932,-2648,16528,-1533,-2171,-535,-19000,6000,27000,243956,
-1868,-2636,16596,-1640,-2252,-609,-19000,6000,27000,243959,
-1428,-2580,16540,-1529,-2207,-616,-19000,6000,27000,243961,
-1232,-2780,16600,-1703,-2171,-744,-19000,6000,27000,243973,
-1252,-2840,16728,-1661,-2171,-786,-19000,6000,27000,243976,
-1316,-2868,16800,-1637,-2131,-785,-19000,6000,27000,243978,
-1308,-2984,16832,-1594,-1993,-908,-19000,5000,27000,243991,
-1096,-2932,16816,-1476,-1942,-981,-19000,5000,27000,243993,
-1116,-2972,16988,-1481,-1920,-975,-19000,5000,27000,243996,
-1180,-3092,17140,-1404,-1718,-1077,-19000,5000,27000,244008,
-1288,-3204,16992,-1316,-1710,-1152,-19000,5000,27000,244010,
-1384,-3140,17100,-1311,-1645,-1100,-19000,5000,27000,244013,
-1556,-3348,17160,-1161,-1477,-1012,-19000,5000,27000,244025,
-1536,-3472,17060,-1032,-1379,-999,-19000,5000,27000,244028,
-1344,-3368,17092,-1100,-1358,-951,-19000,5000,27000,244030,
-1196,-3492,17044,-890,-917,-772,-19000,5000,27000,244042,
-1224,-3468,16996,-732,-754,-736,-19000,5000,27000,244045,
-1356,-3516,16796,-788,-667,-654,-19000,5000,27000,244047,
-1536,-3492,16800,-578,-200,-375,-19000,5000,27000,244060,
-1368,-3452,16576,-486,-112,-313,-19000,5000,27000,244062,
-1548,-3428,16652,-524,-149,-300,-19000,5000,27000,244064,
-2020,-3464,16760,-325,-313,-222,-19000,5000,27000,244077,
-2084,-3436,16756,-241,-291,-158,-19000,5000,27000,244079,
-2008,-3512,16620,-296,-445,-233,-19000,5000,27000,244081,
-1940,-3632,16628,-198,-751,-284,-19000,5000,27000,244094,
-1828,-3492,16632,-194,-793,-237,-19000,5000,27000,244096,
-1664,-3560,16648,-193,-846,-296,-19000,5000,27000,244098,
-1468,-3528,16436,-80,-912,-257,-19000,4000,27000,244111,
-1532,-3472,16444,-167,-925,-194,-19000,4000,27000,244113,
-1492,-3488,16348,-94,-918,-206,-19000,4000,27000,244115,
-1496,-3328,16508,-23,-801,-143,-19000,4000,27000,244128,
-1532,-3352,16552,-154,-828,-148,-19000,4000,27000,244130,
-1504,-3388,16328,-10,-732,-110,-19000,4000,27000,244132,
-1288,-3424,16412,-20,-634,-63,-19000,4000,27000,244145,
-1400,-3452,16536,-94,-694,-91,-19000,4000,27000,244147,
-1236,-3412,16600,18,-619,-58,-19000,4000,27000,244150,
-1352,-3356,16432,83,-560,37,-19000,4000,27000,244162,
-1392,-3420,16524,17,-596,0,-19000,4000,27000,244165,
-1124,-3272,16456,133,-551,41,-19000,4000,27000,244167,
-1328,-3316,16396,158,-614,129,-19000,4000,27000,244179,
-1416,-3264,16480,181,-632,83,-19000,4000,27000,244182,
-1392,-3244,16424,178,-624,129,-19000,4000,27000,244184,
-1164,-2996,16620,160,-811,182,-19000,4000,27000,244196,
-1172,-3076,16580,209,-872,141,-19000,4000,27000,244199,
-1188,-2904,16664,153,-904,208,-19000,4000,27000,244201,
-1296,-3116,16752,153,-1170,207,-19000,4000,27000,244214,
-1120,-3184,16760,300,-1153,190,-19000,4000,27000,244216,
-1268,-3192,16892,213,-1294,237,-18000,4000,27000,244218,
-964,-3252,16700,412,-1432,299,-18000,4000,27000,244231,
-956,-3264,16924,600,-1381,294,-18000,4000,27000,244233,
-732,-3188,16896,493,-1414,287,-18000,4000,27000,244235,
64,-2896,16836,669,-1096,405,-18000,4000,27000,244248,
156,-2688,16908,788,-918,459,-18000,4000,27000,244250,
148,-2720,16980,675,-856,399,-18000,4000,27000,244252,
80,-2464,16836,783,-264,388,-18000,4000,27000,244265,
-40,-2528,16880,860,-77,382,-18000,3000,27000,244267,
36,-2480,17060,809,-39,306,-18000,3000,27000,244269,
84,-2388,16980,754,46,316,-18000,3000,27000,244272,
-80,-2656,17036,725,142,79,-18000,3000,27000,244284,
12,-2560,17004,757,151,-4,-18000,3000,27000,244286,
-196,-2704,17232,706,131,-45,-18000,3000,27000,244289,
-336,-2436,17072,646,-7,-327,-18000,3000,27000,244301,
-512,-2392,17116,747,-35,-386,-18000,3000,27000,244303,
-484,-2500,17016,644,-145,-412,-18000,3000,27000,244306,
-804,-2496,17176,633,-555,-721,-17000,3000,27000,244318,
-816,-2508,17152,806,-544,-719,-17000,3000,27000,244321,
-988,-2572,17036,648,-678,-770,-17000,3000,27000,244323,
-856,-2808,17032,731,-886,-861,-17000,3000,27000,244335,
-952,-2708,17072,849,-885,-813,-17000,3000,27000,244338,
-836,-2708,17036,780,-932,-841,-17000,3000,27000,244340,
-856,-2896,16848,887,-874,-718,-17000,3000,27000,244352,
-828,-2832,16764,910,-840,-636,-17000,3000,27000,244354,
-856,-2712,16928,896,-858,-656,-17000,3000,27000,244357,
-908,-2752,16872,1076,-791,-454,-17000,3000,27000,244369,
-896,-2684,16832,989,-827,-420,-17000,3000,27000,244371,
-1000,-2692,16812,1116,-813,-435,-17000,3000,27000,244374,
-704,-2996,16644,1220,-736,-375,-17000,3000,27000,244386,
-608,-2844,16604,1096,-826,-354,-17000,3000,27000,244389,
-724,-2732,16676,1249,-870,-321,-17000,3000,27000,244391,
-808,-2868,16544,1358,-956,-291,-17000,3000,27000,244403,
-768,-2848,16740,1243,-1107,-302,-16000,3000,27000,244406,
-764,-2924,16724,1376,-1088,-308,-16000,3000,27000,244408,
-676,-2788,16456,1409,-1340,-315,-16000,3000,27000,244420,
-832,-2816,16484,1385,-1450,-301,-16000,2000,27000,244422,
-784,-2644,16404,1469,-1409,-290,-16000,2000,27000,244425,
-656,-2620,16416,1565,-1642,-300,-16000,2000,27000,244437,
-504,-2520,16548,1588,-1679,-303,-16000,2000,27000,244440,
-464,-2496,16348,1611,-1690,-219,-16000,2000,27000,244442,
-220,-2312,16232,1649,-1590,-105,-16000,2000,27000,244454,
-256,-2544,16240,1721,-1556,-120,-16000,2000,27000,244457,
-292,-2460,16116,1719,-1548,-107,-16000,2000,27000,244459,
-532,-2340,15964,1881,-1596,71,-15000,2000,27000,244471,
-312,-2208,15800,2062,-1478,125,-15000,2000,27000,244474,
-348,-2168,15928,1954,-1549,132,-15000,2000,27000,244476,
-440,-2056,15644,1999,-1714,157,-15000,2000,27000,244488,
-456,-1940,15864,2154,-1626,188,-15000,2000,27000,244491,
-368,-2032,15552,2052,-1690,170,-15000,2000,27000,244493,
-56,-1608,15420,1990,-1647,156,-15000,1000,27000,244505,
44,-1664,15160,2036,-1517,162,-15000,1000,27000,244508,
200,-1568,15120,1936,-1488,71,-15000,1000,27000,244510,
104,-1300,14964,1840,-1274,55,-14000,1000,27000,244522,
100,-1424,14800,1834,-1187,90,-14000,1000,27000,244525,
-76,-1296,14728,1745,-1193,59,-14000,1000,27000,244527,
136,-996,14512,1588,-885,-40,-14000,1000,28000,244540,
140,-956,14588,1455,-860,-20,-14000,1000,28000,244542,
256,-852,14720,1398,-820,-75,-14000,1000,28000,244544,
208,-584,14720,1072,-549,-236,-14000,1000,28000,244557,
156,-576,14716,881,-582,-251,-14000,1000,28000,244559,
248,-612,14632,889,-595,-333,-14000,1000,28000,244561,
-136,-788,14556,634,-580,-597,-14000,1000,27000,244574,
-244,-740,14616,451,-695,-601,-14000,1000,27000,244576,
-236,-776,14600,564,-681,-654,-14000,1000,27000,244578,
-196,-848,14632,276,-961,-827,-14000,1000,27000,244591,
-148,-848,14692,176,-1129,-918,-13000,1000,27000,244593,
-404,-888,14784,233,-1100,-926,-13000,1000,27000,244595,
-48,-684,14684,-53,-1153,-1067,-13000,1000,27000,244608,
-12,-708,14856,-155,-1162,-1143,-13000,1000,27000,244610,
144,-648,14932,-142,-1107,-1135,-13000,1000,27000,244612,
-140,-720,14804,-493,-875,-1245,-13000,0,27000,244625,
-124,-772,14928,-461,-844,-1284,-13000,0,27000,244627,
-244,-708,14812,-514,-819,-1271,-13000,0,27000,244629,
-308,-780,14928,-656,-725,-1176,-13000,0,27000,244642,
-340,-644,14892,-612,-705,-1197,-13000,0,27000,244644,
-360,-764,14952,-723,-695,-1152,-13000,0,27000,244646,
-312,-608,15068,-931,-477,-1230,-13000,0,27000,244659,
-432,-748,14964,-840,-434,-1212,-13000,0,27000,244661,
-388,-636,14988,-1036,-467,-1232,-13000,0,27000,244663,
-516,-924,15496,-1190,-431,-1218,-13000,0,27000,244676,
-436,-992,15520,-1092,-333,-1193,-13000,0,27000,244678,
-288,-1008,15544,-1251,-379,-1243,-13000,0,27000,244680,
-440,-1188,15520,-1327,-316,-1234,-14000,0,27000,244693,
-424,-1244,15692,-1257,-219,-1201,-14000,0,27000,244695,
-348,-1164,15472,-1342,-264,-1239,-14000,0,27000,244697,
-520,-1444,15804,-1189,-216,-1203,-14000,0,26000,244710,
-380,-1448,15748,-1129,-198,-1197,-14000,0,26000,244712,
-524,-1692,15788,-1177,-209,-1186,-14000,0,26000,244714,
-528,-1664,15736,-974,-66,-1154,-14000,0,26000,244727,
-368,-1644,15728,-1013,-64,-1064,-14000,0,26000,244729,
-420,-1536,15796,-951,-44,-1108,-14000,0,26000,244731,
-676,-1452,15696,-912,189,-958,-14000,0,26000,244744,
-600,-1508,15608,-1035,137,-965,-14000,0,26000,244746,
-584,-1480,15688,-951,262,-964,-14000,0,26000,244748,
-564,-1512,15748,-1082,253,-930,-14000,0,26000,244751,
-716,-1696,15856,-1220,360,-899,-14000,0,26000,244763,
-752,-1812,15712,-1104,419,-896,-14000,0,26000,244766,
-780,-1832,15764,-1261,383,-887,-14000,0,26000,244768,
-852,-1916,15780,-1365,317,-873,-14000,0,26000,244780,
-872,-1988,15656,-1250,403,-813,-14000,0,26000,244783,
-876,-1932,15864,-1370,314,-824,-14000,0,26000,244785,
-916,-2060,15912,-1356,189,-791,-14000,0,26000,244797,
-1000,-2156,15736,-1335,199,-749,-14000,0,26000,244800,
-940,-2124,15832,-1366,132,-779,-14000,0,26000,244802,
-884,-2192,16124,-1318,82,-618,-14000,0,26000,244815,
-904,-2100,16140,-1419,14,-598,-14000,0,26000,244817,
-720,-2084,16036,-1340,45,-594,-14000,0,26000,244819,
-944,-2348,16132,-1424,56,-576,-14000,0,26000,244821,
-720,-2216,16224,-1424,20,-439,-14000,0,26000,244834,
-772,-2376,16312,-1321,37,-411,-14000,0,26000,244836,
-592,-2160,16236,-1412,25,-358,-14000,0,26000,244838,
-440,-2488,16200,-1311,85,-273,-14000,0,26000,244851,
-332,-2448,16392,-1160,163,-245,-14000,0,26000,244853,
-376,-2600,16380,-1276,106,-252,-14000,0,26000,244855,
-68,-3156,16112,-1059,284,-224,-15000,0,26000,244868,
-28,-3336,15964,-988,340,-181,-15000,0,26000,244870,
-104,-3484,16580,-1158,156,-257,-15000,0,26000,244872,
-76,-3664,17332,-1104,172,-156,-15000,0,26000,244875,
332,-4324,16360,-615,326,-49,-15000,0,26000,244887,
160,-3692,16516,-587,337,70,-15000,0,26000,244890,
-48,-3140,16720,-606,422,311,-15000,0,26000,244892,
140,-2052,16816,-810,838,474,-15000,0,26000,244904,
204,-2000,16848,-659,743,342,-15000,0,26000,244907,
80,-1856,16840,-677,666,312,-15000,0,26000,244909,
32,-1884,16756,-557,537,226,-15000,0,26000,244911,
-324,-1644,16776,-478,315,599,-15000,0,26000,244924,
-196,-1776,16708,-545,211,589,-15000,0,26000,244926,
132,-1932,16756,-405,181,565,-15000,0,26000,244928,
272,-1860,16724,-428,101,517,-15000,0,26000,244931,
344,-1604,16740,-330,-117,405,-15000,0,26000,244943,
276,-1780,16704,-165,-74,440,-15000,0,26000,244945,
232,-1592,16648,-299,-110,459,-15000,0,26000,244948,
440,-1664,16716,-207,-287,127,-15000,0,26000,244960,
312,-1516,16668,-89,-248,102,-15000,0,26000,244962,
244,-1512,16604,-225,-353,74,-15000,0,26000,244965,
280,-1492,16576,-92,-287,69,-15000,0,26000,244967,
684,-1356,16328,-278,-397,19,-15000,0,26000,244979,
616,-1336,16512,-314,-384,-80,-14000,0,26000,244982,
692,-1256,16392,-325,-347,-72,-14000,0,26000,244984,
536,-1132,16504,-657,-144,-201,-14000,0,26000,244996,
560,-1144,16416,-666,-119,-262,-14000,0,26000,244999,
608,-1076,16508,-725,-63,-260,-14000,0,26000,245001,
608,-1232,16588,-769,-73,-321,-14000,0,26000,245003,
432,-1280,16468,-818,-73,-564,-15000,0,26000,245016,
440,-1436,16648,-899,-94,-604,-15000,0,26000,245018,
296,-1456,16492,-832,-98,-667,-15000,0,26000,245020,
12,-1544,16520,-737,-331,-822,-15000,0,26000,245033,
0,-1524,16416,-845,-417,-846,-15000,0,26000,245035,
-88,-1424,16548,-717,-394,-868,-15000,0,26000,245037,
68,-1588,16392,-812,-459,-901,-15000,0,26000,245039,
152,-1412,16536,-806,-560,-965,-15000,0,26000,245052,
160,-1316,16364,-718,-501,-928,-15000,0,26000,245054,
32,-1332,16520,-859,-538,-988,-15000,0,25000,245056,
40,-1424,16516,-966,-457,-941,-15000,0,25000,245069,
-92,-1472,16616,-844,-355,-950,-15000,0,25000,245071,
-48,-1368,16408,-994,-365,-957,-15000,0,25000,245073,
56,-1316,16448,-870,-283,-935,-15000,0,25000,245076,
0,-1380,16488,-974,-194,-873,-15000,0,25000,245088,
-248,-1456,16524,-979,-220,-919,-15000,0,25000,245090,
-228,-1468,16448,-951,-135,-858,-15000,0,25000,245093,
-156,-1732,16240,-890,-144,-865,-15000,0,25000,245105,
-36,-2000,16112,-797,-165,-896,-15000,0,25000,245107,
-116,-2056,16212,-873,-202,-913,-15000,0,25000,245110,
228,-3868,17636,-661,-7,-878,-15000,0,25000,245122,
364,-4872,15920,-565,73,-1030,-15000,0,25000,245124,
608,-4992,16064,-490,-128,-1121,-15000,0,25000,245127,
624,-4924,16196,-125,-63,-1175,-15000,0,25000,245129,
-204,-1836,15852,-139,260,88,-15000,0,25000,245142,
112,-1912,15848,-271,274,152,-15000,0,25000,245144,
444,-2336,16112,-114,457,121,-15000,0,25000,245146,
28,-2232,16240,-90,851,-129,-15000,0,25000,245159,
-300,-2152,16148,-236,908,-8,-15000,0,25000,245161,
-372,-1988,16448,-212,1027,161,-15000,0,25000,245163,
-476,-1944,16488,-351,1033,302,-15000,0,25000,245165,
264,-1712,16432,-233,724,285,-15000,0,25000,245178,
188,-1612,16380,-253,690,291,-15000,0,25000,245180,
0,-1576,16288,-173,706,158,-15000,0,25000,245183,
160,-1556,16404,-142,270,280,-15000,0,25000,245195,
156,-1636,16372,-237,163,266,-15000,0,25000,245197,
192,-1576,16324,-72,64,174,-15000,0,25000,245200,
108,-1640,16392,-93,-59,134,-15000,0,25000,245202,
136,-1164,16104,26,-562,17,-14000,0,25000,245214,
8,-1204,16120,133,-544,38,-14000,0,25000,245217,
204,-1260,16184,31,-634,16,-14000,0,25000,245219,
448,-1088,16116,111,-656,1,-14000,0,25000,245221,
496,-1092,15980,17,-601,-124,-14000,0,25000,245234,
568,-1024,16112,-201,-636,-120,-14000,0,25000,245236,
352,-1020,15920,-124,-549,-114,-14000,0,25000,245238,
780,-1096,16044,-392,-502,-254,-14000,0,25000,245251,
676,-1184,16224,-538,-555,-338,-14000,0,25000,245253,
792,-1132,16196,-430,-458,-360,0,0,0,245253,
-560,-1964,16140,-196,923,49,-14000,0,25000,245376,
-500,-1972,16120,-143,885,107,-14000,0,25000,245379,
-344,-1960,16176,-125,831,175,-14000,0,25000,245381,
-304,-1892,16028,-142,709,191,-14000,0,25000,245383,
-264,-1792,15932,-41,568,237,-14000,0,25000,245396,
364,-1028,15912,-1204,-39,-1449,-14000,0,24000,245528,
220,-1288,15920,-1152,-139,-1664,-14000,0,24000,245541,
28,-1352,15900,-1051,-111,-1699,-14000,0,24000,245543,
156,-1244,15924,-1157,-141,-1741,-14000,0,24000,245545,
96,-1204,15612,-1162,-32,-1860,-14000,0,24000,245558,
-8,-1268,15768,-1054,32,-1887,-14000,0,24000,245560,
68,-1296,15696,-1186,32,-1852,-14000,0,24000,245562,
68,-1232,15584,-1087,135,-1901,-14000,0,24000,245565,
-116,-1568,15544,-1248,418,-1894,-14000,0,24000,245577,
-212,-1664,15544,-1386,421,-1899,-14000,0,24000,245579,
-360,-1680,15448,-1293,547,-1898,-14000,0,24000,245582,
-696,-1892,15360,-1483,756,-1850,-14000,0,23000,245594,
-644,-1860,15560,-1584,744,-1822,-14000,0,23000,245596,
-752,-1884,15532,-1510,810,-1775,-14000,0,23000,245599,
-752,-1856,15612,-1717,892,-1603,-14000,0,23000,245611,
-752,-1824,15516,-1689,955,-1613,-14000,0,23000,245614,
-880,-1964,15704,-1720,967,-1543,-14000,0,23000,245616,
-1152,-2064,15616,-1711,1082,-1447,-15000,0,23000,245628,
-1196,-2052,15500,-1571,1156,-1408,-15000,0,23000,245631,
-1152,-2076,15500,-1777,1083,-1346,-15000,0,23000,245633,
-1288,-2064,15728,-1715,983,-1118,-15000,0,23000,245645,
-1272,-2072,15856,-1578,1020,-1065,-15000,0,23000,245648,
-1256,-2116,15632,-1655,912,-1065,-15000,0,23000,245650,
-1284,-2116,16044,-1717,763,-974,-15000,0,23000,245662,
-1364,-2184,15956,-1589,814,-913,-15000,0,23000,245665,
-1280,-2136,16140,-1717,749,-906,-15000,0,23000,245667,
-1404,-2180,16164,-1673,676,-807,-15000,0,23000,245679,
-1464,-2136,16088,-1589,705,-750,-15000,0,23000,245682,
-1384,-2144,16216,-1672,645,-785,-15000,0,22000,245684,
-1104,-2096,16204,-1547,705,-534,-15000,0,22000,245697,
-1204,-2224,16212,-1480,737,-461,-15000,0,22000,245699,
-1276,-2208,16132,-1498,727,-440,-15000,0,22000,245701,
-1224,-2252,16148,-1338,787,-188,-15000,0,22000,245714,
-1104,-2228,16208,-1383,806,-118,-15000,0,22000,245716,
-1092,-2240,16200,-1321,787,-119,-15000,1000,22000,245718,
-1012,-2240,16452,-1282,911,65,-15000,1000,22000,245731,
-1028,-2256,16428,-1374,889,90,-15000,1000,22000,245733,
-1004,-2228,16368,-1322,908,108,-15000,1000,22000,245735,
-1028,-2260,16472,-1234,866,207,-15000,1000,22000,245748,
-996,-2232,16512,-1346,817,212,-15000,1000,22000,245750,
-968,-2192,16536,-1189,806,229,-15000,1000,22000,245753,
-712,-2172,16584,-1113,707,300,-16000,1000,22000,245765,
-744,-2164,16516,-1260,646,231,-16000,1000,22000,245767,
-928,-2148,16568,-1100,719,322,-16000,1000,22000,245770,
-604,-2136,16620,-1128,745,348,-16000,1000,22000,245782,
-524,-2092,16664,-1190,701,304,-16000,1000,22000,245784,
-516,-2080,16740,-1096,757,321,-16000,1000,22000,245787,
-468,-1928,16740,-1231,727,333,-16000,1000,22000,245799,
-444,-1868,16676,-1217,671,315,-16000,1000,22000,245801,
-488,-1912,16792,-1206,736,319,-16000,1000,22000,245804,
-584,-2120,17100,-1273,512,217,-16000,1000,22000,245816,
-560,-1996,17072,-1151,494,167,-16000,1000,22000,245818,
-576,-2092,17048,-1231,442,171,-16000,1000,22000,245820,
-372,-2228,17184,-1184,264,71,-16000,1000,22000,245833,
-204,-2244,17160,-1065,292,35,-16000,1000,22000,245835,
-212,-2292,17224,-1126,245,27,-16000,1000,22000,245838,
-96,-2484,17372,-1004,211,-115,-16000,1000,22000,245850,
-92,-2532,17360,-813,259,-147,-16000,1000,22000,245852,
-160,-2460,17308,-974,225,-162,-16000,1000,22000,245855,
-80,-2608,17424,-863,356,-257,-16000,1000,22000,245867,
-96,-2436,17488,-749,452,-256,-16000,1000,22000,245869,
-116,-2476,17428,-848,409,-284,-16000,1000,22000,245872,
-160,-2516,17688,-741,494,-343,-16000,1000,22000,245884,
-240,-2544,17608,-768,496,-298,-16000,1000,22000,245886,
-364,-2540,17764,-733,498,-331,-16000,1000,22000,245889,
-528,-2572,17784,-625,525,-356,-16000,1000,22000,245901,
-540,-2692,17672,-717,444,-354,-16000,1000,22000,245903,
-668,-2644,17776,-633,450,-397,-16000,1000,22000,245906,
-712,-2764,18040,-383,104,-404,-16000,1000,22000,245918,
-688,-2856,18148,-443,-10,-367,-16000,1000,22000,245921,
-672,-2680,18072,-298,-27,-408,-16000,1000,22000,245923,
-452,-2744,18040,-91,-225,-442,-16000,1000,22000,245935,
-508,-2760,18028,-139,-305,-480,-16000,1000,22000,245937,
-468,-2656,18020,18,-289,-469,-16000,1000,22000,245940,
-324,-2660,18028,163,-214,-502,-16000,1000,22000,245952,
-272,-2620,17976,120,-232,-509,-16000,1000,22000,245955,
-200,-2648,18084,283,-162,-461,-16000,1000,22000,245957,
-348,-2708,18028,438,-67,-497,-16000,1000,22000,245969,
-472,-2680,17904,458,-89,-535,-16000,1000,22000,245971,
-564,-2720,17720,552,-28,-485,-16000,1000,22000,245974,
-936,-2672,17816,678,-61,-481,-16000,1000,22000,245986,
-984,-2604,17596,622,-90,-433,-16000,1000,22000,245989,
-1060,-2616,17608,717,-84,-466,-16000,1000,22000,245991,
-1272,-2420,17412,858,-289,-399,-15000,1000,22000,246003,
-1252,-2484,17300,722,-349,-397,-15000,1000,22000,246006,
-1292,-2544,17368,882,-397,-367,-15000,1000,22000,246008,
-1492,-2544,17408,952,-675,-307,-15000,1000,22000,246020,
-1560,-2516,17240,804,-772,-277,-15000,1000,22000,246023,
-1556,-2464,17368,985,-762,-252,-15000,1000,22000,246025,
-1548,-2348,17184,1040,-923,-157,-15000,1000,22000,246037,
-1460,-2304,17132,1019,-1002,-166,-15000,1000,22000,246040,
-1484,-2368,17080,1080,-928,-127,-15000,1000,22000,246042,
-1524,-2188,16676,1378,-630,147,-15000,1000,22000,246065,
-1680,-2160,16656,1263,-645,219,-15000,1000,22000,246067,
-1680,-2028,16616,1364,-574,264,-15000,1000,22000,246070,
-2012,-2048,16284,1494,-390,466,-14000,1000,22000,246082,
-1940,-1972,16192,1397,-408,473,-14000,1000,22000,246084,
-1908,-2048,16120,1526,-343,528,-14000,1000,22000,246087,
-2056,-1832,15836,1565,-343,749,-14000,1000,22000,246099,
-2208,-1920,15940,1427,-429,796,-14000,1000,22000,246101,
-2200,-1688,15804,1561,-377,851,-14000,1000,22000,246104,
-2352,-1728,15596,1486,-251,1087,-14000,1000,22000,246116,
-2220,-1772,15496,1351,-291,1117,-14000,1000,22000,246118,
-2060,-1712,15420,1469,-179,1151,-14000,1000,22000,246121,
-2184,-1600,15188,1310,122,1384,-14000,1000,22000,246133,
-2208,-1524,15092,1288,160,1400,-14000,1000,22000,246136,
-2340,-1692,15008,1308,230,1483,-14000,1000,22000,246138,
-2612,-1564,14856,1202,485,1771,-13000,1000,23000,246151,
-2460,-1488,14808,1135,442,1777,-13000,1000,23000,246153,
-2436,-1428,14716,1168,530,1888,-13000,1000,23000,246155,
-2796,-1316,14840,888,543,2094,-13000,1000,23000,246168,
-2776,-1208,14732,838,522,2101,-13000,2000,23000,246170,
-2736,-1376,14756,836,551,2128,-13000,2000,23000,246172,
-2616,-1332,14772,601,521,2337,-13000,2000,23000,246185,
-2796,-1416,14892,562,470,2341,-13000,2000,23000,246187,
-2684,-1388,14732,571,511,2450,-13000,2000,23000,246189,
-2592,-1400,14760,453,483,2741,-13000,2000,23000,246202,
-2496,-1504,14800,512,501,2771,-13000,2000,24000,246204,
-2500,-1428,14648,497,529,2825,-13000,2000,24000,246206,
-2520,-1352,14728,468,540,3175,-13000,2000,24000,246219,
-2568,-1376,14772,550,579,3208,-13000,2000,24000,246221,
-2480,-1388,14736,498,556,3278,-13000,2000,24000,246223,
-2260,-1180,14656,396,675,3532,-13000,2000,24000,246236,
-2112,-1188,14628,477,782,3576,-13000,2000,24000,246238,
-2060,-1200,14668,324,752,3632,-13000,2000,24000,246240,
-1876,-1196,14720,181,925,3853,-12000,3000,25000,246253,
-2028,-1208,14644,255,980,3878,-12000,3000,25000,246255,
-1944,-1256,14604,131,991,3905,-12000,3000,25000,246258,
-1620,-1196,14480,-40,1189,4072,-12000,3000,25000,246270,
-1588,-1144,14340,63,1267,4090,-12000,3000,25000,246272,
-1488,-1212,14512,-68,1245,4108,-12000,3000,25000,246275,
-1340,-1320,14196,-188,1455,4173,-12000,3000,26000,246287,
-1436,-1288,14256,-90,1562,4251,-12000,3000,26000,246289,
-1524,-1260,14320,-233,1515,4236,-12000,3000,26000,246292,
-1576,-1136,13932,-320,1657,4337,-12000,4000,26000,246304,
-1516,-1036,13904,-296,1683,4351,-12000,4000,26000,246306,
-1424,-908,13880,-397,1632,4355,-12000,4000,26000,246309,
-1384,-804,13940,-637,1580,4333,-12000,4000,27000,246321,
-1400,-832,13672,-684,1553,4389,-12000,4000,27000,246324,
-1484,-724,13552,-761,1487,4365,-12000,4000,27000,246326,
-1444,-920,13480,-1062,1327,4318,-12000,4000,27000,246338,
-1184,-948,13360,-1131,1330,4343,-12000,4000,27000,246341,
-1376,-876,13412,-1246,1292,4283,-12000,4000,27000,246343,
-1148,-844,13272,-1563,1081,4194,-12000,5000,28000,246355,
-1232,-788,13320,-1689,1086,4191,-12000,5000,28000,246358,
-1192,-988,13416,-1679,1118,4142,-12000,5000,28000,246360,
-704,-1020,13260,-2031,1081,4135,-12000,5000,28000,246373,
-680,-1000,13208,-2205,1067,4084,-12000,5000,28000,246375,
-456,-960,13136,-2160,1124,4115,-12000,5000,28000,246377,
-24,-1124,13060,-2477,1696,3895,-13000,5000,29000,246390,
-16,-1024,13212,-2670,1740,3869,-13000,5000,29000,246392,
-36,-956,13088,-2604,1969,3957,-13000,5000,29000,246394,
448,-1536,12812,-2744,2919,3909,-13000,5000,29000,246407,
544,-1592,12852,-2872,3026,3865,-13000,5000,29000,246409,
600,-1664,12696,-2734,3298,3885,-13000,6000,29000,246411,
768,-1656,12484,-2812,4583,3988,-13000,6000,30000,246424,
680,-1624,12596,-2860,4767,3999,-13000,6000,30000,246426,
624,-1604,12464,-2775,5135,4017,-13000,6000,30000,246428,
1088,-1844,12336,-2964,6921,3913,-13000,7000,30000,246441,
1016,-1900,12236,-3056,7301,3867,-13000,7000,30000,246443,
1172,-1980,12080,-3096,7716,3878,-14000,7000,30000,246445,
1116,-1788,11464,-3377,10299,3954,-14000,8000,30000,246458,
1020,-1744,11516,-3386,10779,3975,-14000,8000,30000,246460,
708,-1756,11280,-3459,11114,3976,-14000,8000,30000,246462,
-1736,-1244,10768,-3699,11934,4049,-14000,10000,30000,246475,
-2152,-1276,10828,-3625,11851,4052,-14000,10000,30000,246477,
-2504,-1204,10776,-3839,11546,4056,-14000,10000,30000,246479,
-3756,-960,11444,-4424,10017,3721,-15000,11000,30000,246492,
-3712,-888,11464,-4489,9700,3736,-15000,11000,30000,246494,
-3744,-860,11488,-4810,9191,3648,-15000,12000,30000,246496,
-2988,-1608,12408,-5768,7394,3368,-15000,12000,31000,246509,
-2740,-1688,12568,-5801,7200,3253,-15000,12000,31000,246511,
-2452,-1792,12432,-6030,6936,3091,-15000,13000,31000,246514,
-1276,-2492,12528,-6581,6560,2715,-16000,13000,31000,246526,
-716,-2440,12572,-6584,6720,2721,-16000,13000,31000,246529,
-680,-2688,12428,-6726,6884,2648,-16000,13000,31000,246531,
-304,-2876,12056,-6672,7672,2462,-17000,14000,31000,246543,
-592,-3004,11908,-6659,7795,2433,-17000,14000,31000,246546,
-804,-2824,11900,-6706,7882,2405,-17000,14000,31000,246548,
-2472,-2316,11908,-6720,7687,2603,-18000,15000,31000,246561,
-2696,-2312,12032,-6754,7536,2627,-18000,15000,31000,246563,
-2804,-2388,12020,-6791,7337,2595,-18000,15000,31000,246565,
-3248,-2780,12820,-7067,5741,2160,-19000,16000,31000,246578,
-3224,-2816,12892,-7307,5356,2095,-19000,16000,31000,246580,
-3328,-2904,12808,-7384,5005,2034,-19000,16000,31000,246582,
-2368,-3612,13524,-8122,3709,1639,-19000,17000,31000,246595,
-2296,-3764,13528,-8355,3474,1499,-20000,17000,31000,246597,
-2012,-3936,13420,-8407,3322,1376,-20000,17000,31000,246600,
-1016,-4204,13492,-8764,3064,965,-21000,17000,31000,246612,
-908,-4352,13504,-8945,3014,888,-21000,17000,31000,246614,
-828,-4348,13096,-8864,2844,777,-21000,17000,31000,246617,
-792,-4936,13624,-8845,3558,621,-22000,17000,31000,246629,
-812,-5012,13392,-8952,3562,571,-22000,17000,31000,246631,
-1124,-4908,13280,-8816,3601,523,-22000,17000,31000,246634,
-2412,-4608,13832,-8695,2896,328,-23000,17000,31000,246646,
-2504,-4552,13796,-8799,2647,242,-23000,18000,31000,246648,
-2684,-4588,14040,-8714,2475,194,-23000,18000,31000,246651,
-2356,-4708,14496,-9082,1341,-395,-24000,18000,31000,246663,
-2200,-4784,14756,-9250,1145,-527,-24000,18000,31000,246666,
-1936,-4852,14824,-9175,1076,-584,-24000,18000,30000,246668,
-1132,-5456,15312,-9656,734,-1079,-25000,18000,30000,246681,
-1132,-5608,15176,-9711,692,-1154,-26000,18000,30000,246683,
-428,-6260,15284,-9538,1260,-1604,-26000,17000,30000,246695,
-516,-6488,15288,-9590,1378,-1642,-27000,17000,30000,246698,
-444,-6460,15320,-9417,1568,-1733,-27000,17000,30000,246700,
-1252,-6816,14892,-8918,2196,-1852,-28000,17000,30000,246712,
-1388,-6692,14984,-8952,2185,-1865,-28000,17000,30000,246715,
-1636,-6680,15012,-8764,2209,-1869,-28000,17000,30000,246717,
-2904,-6440,15024,-8504,1853,-1932,-29000,17000,29000,246730,
-3116,-6392,14876,-8623,1683,-2004,-29000,17000,29000,246732,
-3264,-6400,15036,-8494,1567,-2060,-29000,17000,29000,246734,
-3136,-6864,15604,-8756,796,-2258,-30000,17000,29000,246747,
-2756,-6960,15540,-8926,715,-2322,-30000,17000,29000,246749,
-2716,-7096,15656,-8889,687,-2324,-30000,17000,29000,246752,
-1392,-7532,15808,-9209,819,-2683,-31000,17000,29000,246764,
-1496,-7544,15704,-9248,937,-2770,-32000,17000,29000,246766,
-1284,-7536,15732,-9218,1101,-2753,-32000,17000,29000,246769,
-1828,-7796,15752,-9169,1453,-2918,-33000,17000,28000,246781,
-1928,-7908,15848,-9007,1491,-2960,-33000,17000,28000,246784,
-2364,-8196,16444,-8637,1306,-3286,-34000,17000,28000,246796,
-2284,-8240,16336,-8684,1203,-3414,-34000,17000,28000,246798,
-2404,-8288,16496,-8524,1214,-3462,-34000,17000,28000,246801,
-2296,-8552,16712,-8330,1194,-3737,-35000,17000,28000,246813,
-2192,-8720,16628,-8361,1183,-3836,-35000,17000,27000,246816,
-1940,-8748,16752,-8207,1291,-3858,-35000,17000,27000,246818,
-2016,-9356,16496,-7897,1611,-4090,-36000,16000,27000,246830,
-2056,-9304,16560,-7898,1652,-4160,-36000,16000,27000,246833,
-2132,-9472,16576,-7766,1723,-4108,-36000,16000,27000,246835,
-2664,-9616,16372,-7267,1850,-4157,-37000,16000,26000,246848,
-2592,-9524,16280,-7127,1814,-4173,-37000,16000,26000,246850,
-2652,-9460,16332,-7055,1745,-4146,-37000,16000,26000,246852,
-2908,-9360,16500,-6822,1320,-4255,-38000,16000,26000,246865,
-2888,-9380,16592,-6707,1244,-4312,-38000,16000,26000,246867,
-2276,-9328,16680,-6704,1062,-4494,-39000,16000,25000,246880,
-2292,-9316,17024,-6834,995,-4559,-39000,16000,25000,246882,
-1944,-9388,16836,-6741,1093,-4622,-39000,16000,25000,246885,
-1436,-9724,17240,-6715,1623,-5056,-40000,15000,25000,246897,
-1348,-9764,17452,-6830,1680,-5125,-40000,15000,25000,246899,
-1336,-9840,17348,-6627,1868,-5152,-40000,15000,25000,246902,
-1236,-10012,17396,-6292,2384,-5426,-41000,15000,24000,246914,
-1384,-9988,17500,-6247,2409,-5528,-41000,15000,24000,246917,
-1400,-10060,17360,-6045,2546,-5520,-41000,15000,24000,246919,
-2044,-10428,17620,-5378,2484,-5832,-42000,15000,23000,246932,
-2176,-10484,17500,-5383,2386,-5956,-42000,15000,23000,246934,
-2284,-10472,17564,-5128,2373,-5994,-42000,14000,23000,246936,
-2480,-10500,17580,-4606,2055,-6354,-43000,14000,22000,246949,
-2220,-10564,17664,-4664,1958,-6480,-43000,14000,22000,246951,
-2032,-10588,17732,-4470,1909,-6909,-43000,14000,22000,246964,
-1980,-10548,17564,-4379,1981,-6935,-43000,14000,22000,246966,
-2008,-10760,17804,-4445,1978,-7030,-43000,14000,21000,246968,
-2016,-11012,17940,-4256,2216,-7398,-44000,13000,21000,246981,
-2108,-11060,17924,-4147,2272,-7397,-44000,13000,21000,246983,
-2208,-11080,17948,-4177,2281,-7504,-44000,13000,21000,246985,
-2620,-11244,18092,-3790,2249,-7719,-44000,13000,20000,246998,
-2720,-11292,18028,-3726,2236,-7675,-44000,13000,20000,247000,
-3032,-11552,18328,-3230,1882,-7926,-45000,12000,19000,247013,
-3056,-11608,18272,-3104,1870,-8017,-45000,12000,19000,247015,
-3104,-11832,18320,-3046,1781,-8003,-45000,12000,19000,247017,
-3004,-12032,18552,-2557,1506,-8273,-45000,11000,18000,247030,
-2984,-12012,18484,-2353,1550,-8311,-45000,11000,18000,247032,
-3088,-12060,18408,-2338,1492,-8341,-45000,11000,18000,247034,
-3220,-12164,18412,-1816,1439,-8510,-46000,11000,17000,247047,
-3152,-12112,18276,-1572,1509,-8525,-46000,11000,17000,247049,
-3528,-12156,18352,-1070,1527,-8622,-46000,10000,17000,247061,
-3612,-12328,18264,-1039,1465,-8688,-46000,10000,16000,247064,
-3608,-12200,18392,-865,1524,-8653,-46000,10000,16000,247066,
-4128,-12284,18176,-422,1485,-8654,-46000,10000,16000,247079,
-4124,-12132,18196,-344,1441,-8718,-46000,9000,15000,247081,
-4300,-12300,18036,-206,1482,-8630,-46000,9000,15000,247083,
-4520,-12324,18164,224,1336,-8515,-46000,9000,15000,247096,
-4488,-12240,18228,345,1315,-8546,-46000,9000,15000,247098,
-4588,-12408,18100,436,1306,-8469,-46000,9000,14000,247100,
-4668,-12316,17824,914,1198,-8363,-46000,8000,14000,247113,
-4800,-12488,17748,1095,1200,-8365,-46000,8000,14000,247115,
-4668,-12404,17660,1145,1209,-8274,-46000,8000,14000,247118,
-5128,-12420,17464,1655,1166,-8114,-46000,8000,13000,247130,
-5260,-12328,17468,1838,1181,-8113,-46000,7000,13000,247132,
-5272,-12376,17500,1873,1175,-8032,-46000,7000,13000,247135,
-5468,-12240,17512,2293,1044,-7812,-46000,7000,12000,247147,
-5376,-12092,17172,2424,1056,-7819,-45000,7000,12000,247150,
-5440,-12056,17160,2450,1049,-7698,-45000,7000,12000,247152,
-5740,-12188,17052,2835,952,-7459,-45000,6000,11000,247165,
-5836,-12116,17076,2989,987,-7429,-45000,6000,11000,247167,
-6016,-11996,16856,2943,933,-7311,-45000,6000,11000,247169,
-6168,-11940,16744,3351,836,-6984,-45000,6000,11000,247182,
-6164,-11940,16652,3610,888,-6883,-45000,6000,11000,247184,
-6080,-11952,16796,3534,833,-6845,-45000,6000,10000,247186,
-6188,-11764,16448,3956,696,-6345,-44000,5000,10000,247199,
-6220,-11676,16504,4189,790,-6232,-44000,5000,10000,247201,
-6388,-11704,16364,4148,783,-6177,-44000,5000,10000,247203,
-6420,-11408,16188,4528,641,-5812,-44000,5000,9000,247216,
-6320,-11320,16112,4701,734,-5661,-44000,5000,9000,247218,
-6412,-11316,16152,4690,684,-5628,-43000,5000,9000,247221,
-6620,-11088,16092,4948,407,-5254,-43000,5000,9000,247233,
-6848,-11128,15884,5033,435,-5130,-43000,5000,9000,247235,
-6764,-11088,15872,5051,385,-5133,-43000,5000,9000,247238,
-6824,-10812,15832,5335,112,-4799,-42000,4000,8000,247250,
-6732,-10860,15968,5343,70,-4657,-42000,4000,8000,247253,
-6736,-10744,15864,5374,-12,-4636,-42000,4000,8000,247255,
-6776,-10452,15728,5716,-201,-4220,-41000,4000,8000,247268,
-6616,-10476,15496,5724,-251,-4076,-41000,4000,8000,247270,
-6624,-10364,15584,5813,-311,-4038,-41000,4000,8000,247272,
-6816,-10020,15568,6116,-439,-3518,-41000,4000,8000,247285,
-6724,-10036,15512,6068,-489,-3387,-41000,4000,8000,247287,
-6708,-10072,15420,6217,-471,-3359,-40000,4000,8000,247289,
-6268,-9860,15328,6433,-643,-2919,-40000,4000,7000,247302,
-6336,-9904,15460,6306,-668,-2839,-40000,4000,7000,247304,
-6316,-9744,15348,6448,-622,-2757,-40000,4000,7000,247307,
-6108,-9468,15272,6576,-647,-2429,-39000,4000,7000,247319,
-5876,-9320,15224,6451,-699,-2390,-39000,4000,7000,247321,
-5820,-9256,15196,6623,-651,-2341,-39000,4000,7000,247324,
-6080,-9220,15300,6659,-829,-2087,-38000,3000,7000,247336,
-6140,-9224,15124,6666,-906,-2065,-38000,3000,7000,247338,
-6152,-9164,14996,6770,-920,-1977,-38000,3000,7000,247341,
-5828,-8924,15212,6841,-1113,-1733,-37000,3000,7000,247353,
-5760,-8856,15240,6853,-1178,-1720,-37000,3000,7000,247356,
-5584,-8924,15128,6853,-1132,-1641,-37000,3000,7000,247358,
-5276,-8736,15116,6806,-1004,-1328,-36000,3000,7000,247371,
-5388,-8892,15252,6893,-952,-1308,-36000,3000,7000,247373,
-5416,-8872,15184,6832,-897,-1202,-36000,3000,7000,247375,
-5412,-8692,15120,6937,-775,-821,-35000,3000,7000,247388,
-5532,-8704,15076,7086,-729,-728,-35000,3000,7000,247390,
-5452,-8648,15216,6982,-812,-652,-35000,3000,7000,247392,
-5332,-8540,15212,7120,-874,-375,-34000,3000,7000,247405,
-5268,-8576,15092,7283,-863,-317,-34000,3000,7000,247407,
-5292,-8588,15052,7145,-954,-323,-34000,3000,7000,247409,
-5244,-8112,15200,7098,-1059,-8,-33000,3000,7000,247422,
-5276,-8072,15436,7161,-1008,84,-33000,3000,7000,247424,
-5144,-7980,15152,7091,-1046,82,-33000,3000,7000,247426,
-4788,-7952,15236,7121,-1013,256,-32000,3000,7000,247439,
-4708,-7924,15352,7082,-952,348,-32000,3000,7000,247441,
-4876,-7848,15364,7071,-985,380,-32000,3000,7000,247443,
-4640,-7728,15352,7202,-844,653,-31000,3000,7000,247456,
-4656,-7752,15356,7191,-838,715,-31000,3000,7000,247458,
-4692,-7656,15324,7220,-843,752,-31000,3000,7000,247460,
-4504,-7424,15280,7358,-743,1014,-30000,3000,7000,247473,
-4532,-7612,15136,7287,-714,1081,-30000,3000,7000,247475,
-4556,-7508,15256,7372,-707,1062,-30000,3000,7000,247477,
-4492,-7432,15164,7496,-637,1364,-29000,3000,8000,247490,
-4660,-7288,14928,7403,-689,1425,-29000,3000,8000,247492,
-4464,-7248,14920,7500,-664,1496,-29000,3000,8000,247495,
-4372,-6900,14844,7592,-723,1817,-28000,4000,8000,247507,
-4368,-6912,14716,7407,-795,1862,-28000,4000,8000,247509,
-4508,-6764,14732,7569,-795,1902,-28000,4000,8000,247512,
-4448,-6520,14668,7479,-851,2158,-27000,4000,8000,247524,
-4320,-6424,14580,7323,-902,2177,-27000,4000,8000,247527,
-4364,-6448,14596,7429,-813,2248,-27000,4000,8000,247529,
-3928,-6308,14516,7267,-760,2460,-26000,4000,8000,247541,
-3824,-6308,14560,7140,-789,2472,-26000,4000,8000,247544,
-3632,-6240,14480,7197,-676,2506,-26000,4000,8000,247546,
-3388,-6136,14544,6974,-345,2669,-25000,4000,9000,247558,
-3404,-6144,14456,6915,-334,2657,-25000,4000,9000,247561,
-3392,-6148,14536,6897,-210,2728,-25000,4000,9000,247563,
-3640,-5984,14232,6682,35,2801,-24000,4000,9000,247576,
-3552,-5860,14116,6725,23,2778,-24000,4000,9000,247578,
-3720,-5964,14064,6642,49,2846,-24000,4000,9000,247580,
-3748,-5520,14120,6509,-224,2982,-23000,4000,9000,247593,
-3920,-5508,14132,6584,-244,2991,-23000,4000,9000,247595,
-3940,-5336,14208,6444,-282,3068,-23000,4000,10000,247597,
-3756,-5064,13968,6171,-439,3092,-22000,5000,10000,247610,
-3648,-4972,13964,6256,-404,3162,-22000,5000,10000,247612,
-3628,-4940,14004,6077,-514,3120,-22000,5000,10000,247614,
-3676,-4632,13888,5873,-739,3305,-21000,5000,10000,247627,
-3748,-4508,13916,5976,-698,3361,-21000,5000,10000,247629,
-3704,-4600,13792,5797,-822,3380,-21000,5000,10000,247631,
-3524,-4556,13772,5672,-1012,3424,-21000,5000,11000,247644,
-3336,-4480,13888,5668,-984,3469,-21000,5000,11000,247646,
-3292,-4504,13748,5607,-1079,3480,-20000,5000,11000,247648,
-3444,-4208,13684,5553,-1328,3588,-20000,5000,11000,247661,
-3396,-4116,13624,5525,-1370,3622,-20000,5000,11000,247663,
-3480,-4092,13588,5461,-1433,3597,-20000,5000,11000,247666,
-3216,-3884,13288,5393,-1614,3691,-19000,5000,12000,247678,
-3288,-3888,13280,5337,-1605,3732,-19000,5000,12000,247680,
-3080,-3744,13204,5273,-1629,3733,-19000,5000,12000,247683,
-2916,-3460,13068,5063,-1637,3963,-18000,5000,12000,247695,
-2968,-3424,13028,5007,-1587,4020,-18000,5000,12000,247698,
-3012,-3332,12848,4945,-1518,4029,-18000,5000,12000,247700,
-2924,-3328,12876,4741,-1307,4214,-18000,5000,13000,247712,
-2936,-3304,12696,4566,-1346,4231,-17000,5000,13000,247715,
-2880,-3324,12608,4630,-1300,4247,-17000,5000,13000,247717,
-2836,-3252,12472,4440,-1321,4453,-17000,5000,13000,247730,
-2856,-3128,12524,4279,-1466,4470,-17000,5000,14000,247732,
-2868,-3076,12488,4376,-1392,4528,-17000,5000,14000,247734,
-2744,-3000,12520,4046,-1546,4645,-16000,5000,14000,247747,
-2688,-2864,12452,3960,-1643,4676,-16000,5000,14000,247749,
-2392,-2864,12340,3976,-1580,4737,-16000,5000,14000,247751,
-2380,-2300,12316,3548,-1629,4883,-16000,5000,15000,247764,
-2308,-2184,12476,3442,-1702,4842,-16000,5000,15000,247766,
-2444,-2348,12468,3449,-1678,4911,-16000,5000,15000,247768,
-2200,-2272,12408,3020,-1851,4853,-15000,5000,15000,247781,
-2340,-2460,12460,3056,-1855,4862,-15000,5000,16000,247783,
-2156,-2276,12320,2947,-1881,4869,-15000,5000,16000,247785,
-1832,-2324,12488,2684,-1875,4990,-15000,5000,16000,247798,
-1648,-2412,12492,2718,-1789,5027,-15000,5000,16000,247800,
-1688,-2360,12500,2567,-1745,5047,-15000,5000,16000,247803,
-1184,-2432,12188,2444,-1226,5159,-14000,5000,17000,247815,
-1108,-2380,12284,2584,-1007,5206,-14000,5000,17000,247817,
-1060,-2388,12148,2428,-953,5263,-14000,5000,17000,247820,
-1148,-1792,11892,2282,-510,5722,-14000,5000,18000,247832,
-1220,-1796,11820,2320,-349,5806,-14000,5000,18000,247834,
-1156,-1720,11828,2124,-396,5861,-14000,5000,18000,247837,
-1436,-1572,12056,1642,-467,5949,-13000,5000,18000,247849,
-1524,-1524,12112,1658,-497,6024,-13000,5000,19000,247852,
-1476,-1396,12108,1447,-691,6049,-13000,5000,19000,247854,
-1028,-1148,12352,835,-1327,6009,-13000,5000,19000,247866,
-896,-1228,12616,800,-1411,6020,-13000,5000,19000,247869,
-720,-1280,12736,657,-1534,5977,-13000,5000,19000,247871,
-328,-896,11444,192,-2396,5649,-13000,5000,20000,247884,
-216,-1232,14952,260,-1789,5782,-13000,5000,20000,247886,
556,-884,12588,263,-1547,5756,-13000,5000,20000,247888,
1280,-1392,13568,221,-1459,5650,-13000,5000,21000,247901,
1564,-1384,13520,206,-1382,5606,-13000,5000,21000,247903,
1572,-1352,13504,287,-1373,5591,-13000,5000,21000,247905,
2052,-1016,13596,533,-836,5639,-13000,5000,22000,247918,
2016,-812,13752,380,-827,5590,-13000,5000,22000,247920,
2180,-720,13752,504,-678,5607,-13000,5000,22000,247922,
2224,-680,14052,319,-390,5292,-12000,5000,22000,247935,
2380,-736,14024,289,-368,5219,-12000,5000,22000,247937,
2440,-752,14164,259,-251,5168,-12000,5000,22000,247939,
2304,-724,14280,-26,-138,4734,-12000,5000,23000,247952,
2188,-788,14380,1,-157,4614,-12000,5000,23000,247954,
2076,-704,14332,-96,-221,4558,-12000,5000,23000,247956,
2272,-904,14240,-254,-618,4038,-12000,5000,23000,247969,
2188,-820,14416,-166,-632,3962,-12000,5000,24000,247971,
2280,-784,14360,-328,-761,3854,-12000,5000,24000,247973,
2344,-800,14408,-541,-1099,3409,-12000,5000,24000,247986,
2344,-848,14372,-453,-1109,3357,-12000,5000,24000,247988,
2420,-900,14604,-637,-1211,3269,-12000,5000,24000,247990,
2464,-780,14708,-893,-1513,2890,-12000,5000,24000,248003,
2580,-816,14732,-793,-1488,2788,-12000,5000,24000,248005,
2556,-812,14772,-984,-1529,2698,-12000,5000,24000,248007,
2620,-776,14772,-1300,-1537,2258,-12000,4000,25000,248020,
2628,-780,15024,-1298,-1422,2235,-12000,4000,25000,248022,
2612,-816,15188,-1331,-1464,2110,-12000,4000,25000,248024,
2676,-928,15408,-1587,-1164,1664,-12000,4000,25000,248041,
2728,-988,15528,-1566,-1068,1644,-12000,4000,25000,248044,
2648,-1104,15504,-1627,-1070,1555,-12000,4000,25000,248046,
2836,-1180,15668,-1571,-655,1159,-12000,4000,25000,248059,
2768,-1384,15476,-1564,-622,1158,-12000,4000,25000,248061,
2612,-1184,15428,-1563,-562,1061,-12000,4000,25000,248063,
1848,-1460,15640,-1435,-571,845,-12000,4000,25000,248076,
1752,-1356,15748,-1543,-648,804,-12000,4000,25000,248078,
1812,-1388,15752,-1374,-636,754,-13000,4000,25000,248080,
1868,-1564,15856,-1330,-722,524,-13000,4000,25000,248092,
1760,-1548,15820,-1440,-770,447,-13000,4000,26000,248095,
1708,-1596,15888,-1327,-705,449,-13000,4000,26000,248097,
1840,-1648,15932,-1351,-457,313,-13000,3000,26000,248109,
1632,-1684,15764,-1450,-497,267,-13000,3000,26000,248112,
1716,-1556,15832,-1344,-417,304,-13000,3000,26000,248114,
1232,-1408,15740,-1426,-355,267,-13000,3000,26000,248126,
1216,-1288,15956,-1416,-356,184,-13000,3000,26000,248129,
1128,-1372,15848,-1429,-371,200,-13000,3000,26000,248131,
916,-1268,16132,-1574,-585,-9,-13000,3000,26000,248143,
736,-1392,16140,-1515,-598,-38,-13000,3000,26000,248146,
596,-1480,16272,-1618,-643,-66,-13000,3000,26000,248148,
540,-1476,16276,-1684,-916,-234,-13000,3000,26000,248160,
512,-1532,16372,-1519,-882,-280,-13000,3000,26000,248163,
636,-1440,16292,-1669,-956,-306,-13000,3000,26000,248165,
832,-1520,16364,-1583,-910,-343,-13000,3000,26000,248178,
880,-1544,16476,-1531,-864,-308,-13000,3000,26000,248180,
784,-1528,16436,-1568,-845,-366,-13000,3000,26000,248182,
592,-1592,16472,-1417,-649,-461,-13000,3000,26000,248194,
576,-1524,16520,-1446,-663,-451,-13000,3000,26000,248197,
448,-1556,16620,-1362,-637,-510,-13000,3000,26000,248199,
300,-1516,16592,-1226,-507,-608,-13000,3000,26000,248211,
436,-1520,16632,-1311,-490,-608,-13000,3000,26000,248214,
304,-1560,16732,-1210,-433,-614,-13000,3000,26000,248216,
476,-1548,16668,-1163,-90,-682,-14000,3000,25000,248228,
244,-1528,16560,-1288,-92,-685,-14000,3000,25000,248231,
384,-1556,16476,-1145,12,-680,-14000,3000,25000,248233,
-288,-1540,16540,-1067,222,-615,-14000,3000,25000,248245,
-160,-1588,16552,-1204,186,-629,-14000,3000,25000,248248,
-276,-1640,16500,-1091,265,-609,-14000,3000,25000,248250,
-584,-1416,16484,-1079,150,-551,-14000,3000,25000,248262,
-612,-1364,16444,-1156,27,-565,-14000,2000,25000,248265,
-824,-1352,16604,-1088,43,-541,-14000,2000,25000,248267,
-896,-1500,16564,-1205,-309,-575,-14000,2000,25000,248279,
-708,-1504,16564,-1148,-375,-674,-14000,2000,25000,248282,
-536,-1516,16652,-1179,-418,-635,-14000,2000,25000,248284,
-488,-1568,16636,-1153,-521,-652,-14000,2000,25000,248296,
-412,-1456,16548,-1037,-486,-632,-14000,2000,25000,248299,
-560,-1536,16428,-1098,-505,-599,-14000,2000,25000,248301,
-360,-1568,16388,-983,-473,-650,-14000,2000,25000,248313,
-380,-1488,16492,-873,-353,-616,-14000,2000,25000,248316,
-348,-1512,16324,-953,-412,-630,-14000,2000,25000,248318,
-524,-1400,16380,-965,-253,-577,-14000,2000,25000,248330,
-632,-1496,16328,-916,-152,-562,-14000,2000,25000,248333,
-532,-1456,16548,-989,-175,-582,-14000,2000,25000,248335,
-380,-1512,16440,-1038,95,-564,-14000,2000,25000,248347,
-444,-1512,16440,-1073,147,-495,-14000,2000,25000,248350,
-520,-1468,16476,-1102,161,-550,-14000,2000,25000,248352,
-760,-1424,16396,-1147,332,-450,-14000,2000,25000,248364,
-560,-1464,16452,-1215,328,-419,-14000,2000,25000,248367,
-696,-1620,16496,-1150,364,-460,-14000,2000,25000,248369,
-936,-1572,16444,-975,259,-355,-14000,2000,25000,248381,
-1064,-1712,16452,-1087,134,-376,-14000,2000,25000,248384,
-1108,-1632,16600,-905,169,-349,-14000,2000,25000,248386,
-704,-1672,16588,-797,42,-351,-14000,2000,25000,248399,
-748,-1572,16460,-891,-53,-366,-14000,2000,25000,248401,
-504,-1652,16440,-785,30,-413,-14000,2000,25000,248403,
-744,-1648,16456,-814,185,-281,-14000,2000,25000,248416,
-760,-1660,16352,-872,146,-323,-14000,2000,25000,248418,
-708,-1588,16352,-830,225,-203,-14000,2000,25000,248420,
