Ax,Ay,Az,Gx,Gy,Gz,Roll,Pitch,Yaw,Timestamp,Target
-1576,-6784,18200,1239,239,-20923,-6000,-1000,127000,876886,
-2260,-6816,17928,1508,372,-20710,-6000,-1000,125000,876899,
-2396,-6816,17780,1534,344,-20713,-6000,-1000,124000,876902,
-2432,-6732,17832,1589,357,-20744,-6000,-1000,124000,876904,
-2784,-6540,17800,1835,-159,-20788,-6000,-1000,122000,876917,
-2756,-6424,17720,1882,-199,-20834,-6000,-1000,122000,876919,
-2868,-6520,17684,1861,-329,-20717,-6000,-1000,121000,876921,
-3284,-6100,17540,1930,-495,-20363,-5000,-2000,119000,876934,
-3232,-6072,17468,1902,-541,-20182,-5000,-2000,119000,876936,
-3280,-6052,17588,1911,-558,-20143,-5000,-2000,119000,876939,
-3148,-5904,17680,1912,-765,-19720,0,0,0,876939,
-1700,-256,16536,-877,-576,-530,-6000,9000,171000,878962,
-1560,-140,16524,-940,-647,-482,-6000,9000,171000,878964,
0,0,0,0,0,0,-6000,9000,171000,878964,
-3388,-5496,17212,2150,-665,-19053,0,0,0,878964,
-1344,-33760,-512,95,424,-7000,7000,173000,882625,0,
-1352,-348,16284,-500,333,330,-7000,8000,173000,882551,
-1336,-396,16488,-539,337,-212,-7000,8000,172000,881982,
-1256,-320,165,-4000,-3000,104000,0,0,0,881982,
-2720,-4448,17120,2240,-1500,-18541,-4000,-3173000,882658,0,
-2456,-4284,16536,2352,-1024,-18611,-3000,-4000,99000,877072,
-2504,-4212,16592,2356,-952,-18582,0,0,0,877072,
-2540,-4188,16516,2373,-861,-18651,-3000,-4000,99000,877077,
-2944,-3648,16444,2427,-584,-18399,-2000,-4000,97000,877089,
-3056,-3584,16428,2445,-488,-18395,-2000,-4000,97000,877092,
-3048,-3520,16464,2380,-422,-18323,-2000,-4000,96000,877094,
-3384,-3024,16084,2264,48,-18201,-2000,-4000,95000,877107,
-3496,-2864,16112,2186,147,-18105,-2000,-4000,94000,877109,
-3564,-2924,16192,2173,237,-18134,-2000,-4000,94000,877112,
-4164,-2724,15876,1955,837,-17663,-2000,-4000,92000,877124,
-4304,-2760,15880,1912,949,-17647,-2000,-3000,92000,877127,
-4284,-2808,15932,1912,990,-17453,-2000,-3000,92000,877129,
-5008,-2684,15792,1641,1353,-16775,-1000,-3000,89000,877147,
-5360,-2500,15564,1636,1521,-16066,-1000,-3000,88000,877159,
-5444,-2340,15468,1605,1582,-16003,-1000,-3000,87000,877162,
-5552,-2272,15684,1676,1560,-15823,-1000,-3000,87000,817,
-5992,-1992,15572,1337,1442,-15061,-1000,-2000,85000,877182,
-6180,-2124,15668,1061,1326,-14159,0,-2000,83000,877199,
-6288,-1892,15668,970,1470,-13457,0,-2000,82000,877212,
-6280,-1896,15896,1019,1439,-13249,0,-2000,82000,877215,
-6564,-1460,15812,1058,1668,-12287,0,-1000,80000,877230,
-6676,-1376,15972,1111,1698,-12159,0,-1000,80000,877232,
-7352,-936,15792,1037,1559,-10643,0,-1000,78000,877252,
-7620,-788,15964,905,1239,-9457,0,-1000,77000,877264,
-7632,-648,15508,806,1164,-9184,0,-1000,77000,877267,
-7684,-696,15808,767,1111,-8993,0,-1000,77000,877269,
-7616,-672,15832,776,1071,-8775,0,0,77000,877271,
-7744,-328,15864,724,718,-7682,0,0,76000,877284,
-7864,-180,15752,749,674,-7507,0,0,76000,877286,
-7744,408,15932,434,72,-5839,0,0,75000,877306,
-7784,516,15996,406,-79,-5626,0,0,75000,877309,
-7648,572,15852,50,-465,-4400,0,0,74000,877323,
-7492,496,15876,-4,-475,-4208,0,0,74000,877326,
-7484,544,15824,-4,-513,-4077,0,0,74000,877328,
-7436,560,16012,-47,-564,-3887,0,0,74000,877331,
-1552,-152,16560,-462,198,-58,-7000,8000,173000,882898,
-1544,-80,16528,-495,74000,877346,0,0,0,882898,
-7312,252,159,51,19,-7000,8000,173000,882953,0,
-1420,-36,16552,-507,157,-27,-7000,8000,173000,882916,
-1476,4,16396,-497,176,-26,-7000,8000,173000,882918,
-1528,-80,16332,-533,145,-13,-7000,8000,173000,882931,
-1456,-56,16292,-531,183,-24,-7000,8000,173000,0,
-6884,64,15948,-229,-487,-287,0,0,73000,877383,
0,0,0,0,0,0,0,0,73000,877383,
-6832,104,15896,-130,-491,-56,0,0,73000,877387,
-6796,36,15940,-181,-452,131,0,0,73000,877390,
-6940,-224,15908,-73,-372,809,0,0,74000,877402,
-6932,-208,16084,-77,-363,952,0,0,74000,877405,
-6964,-220,16000,-75,-330,1116576,-894,-160,-298,-7000,
-7036,-584,16200,-56,-164,2256,0,0,74000,877422,
-6656,-1420,16108,43,936,4235,0,0,75000,877449,
-6796,-1380,16196,323,1479,5184,0,1000,75000,877462,
-6868,-1392,16072,386,1656,5335,0,1000,75000,877464,
-6824,-1316,16176,477,1827,5693,0,1000,75000,877469,
-7200,-1060,15824,654,2015,6539,0,1000,76000,877481,
-7200,-1140,15820,625,1989,6703,0,1000,76000,877484,
-7248,-1048,15720,641,1988,6861,0,1000,76000,877486,
-7176,-948,15600,644,1899,7068,0,1000,76000,877489,
-7464,-760,15456,401,1568,8042,0,2000,77000,877501,
-7008,-1052,15584,-67,934,9871,0,2000,79000,877523,
-6524,-1140,15924,-62,838,11014,0,2000,80000,877538,
-6508,-1056,15780,-70,874,11185,0,2000,884,-2312,
-6492,-996,15784,-12,886,11482,0,2000,81000,877545,
-6496,-752,15972,10,842,12268,0,3000,82000,877558,
-6476,-752,15936,-17,779,12422,0,3000,82000,877560,
-6500,-688,15888,-77,745,12600,0,3000,82000,877563,
-6356,-256,15680,-316,471,13436,0,3000,83000,877575,
-6204,-188,15616,-448,17896,1428,459,-6690,-7000,6000,
-6028,-72,15664,-479,361,13875,0,3836,1769,292,
-4692,20,16088,-989,1084,15629,0,4000,90000,877632,
-4696,96,16120,-1043,1124,15706,0,4000,90000,877634,
-4740,12,16080,-1060,1204,15814,0,4000,90000,877636,
-4636,4,16012,-1245,1381,16211,0,4000,92000,877649,
-4560,-32,16108,-1308,1460,16354,0,4000,93000,877654,
-4628,8,15892,-1386,1519,16395,0,4000,93000,877656,
-4312,-32,15724,-1634,2232,16836,0,4000,95000,877674,
-4184,-44,15984,-7000,4000,164000,0,0,0,877674,
-4268,36,15956,-1815,2687,16979,0,5000,97000,877689,
-4184,-56,16016,-1877,2717,16936,0,50,161000,883318,
-4320,-96,15964,-1946,2835,16975,0,5000,98000,877693,
-4388,-160,16516,-2093,3147,17036,0,5000,99000,877706,
-4520,-256,16120,-2149,3248,17113,0,5000,100000,877708,
-4488,-252,16120,-2146,3292,17165,0,5000,100000,877711,
-4756,-260,16224,-2433,3396,17527,0,6000,102000,877723,
-4772,-256,16112,-2441,3337,17569,0,6000,102000,877726,
-4724,-412,16088,-2515,3307,17656,0,6000,102000,877728,
-4376,-1100,15960,-3362,2868,18221,0,7000,107000,877758,
0,0,0,0,0,0,0,7000,107000,877758,
-4156,-2404,16156,-4228,2324,18758,0,7000,111000,877793,
-4100,-2444,16104,-4268,2388,18817,0,8000,112000,877795,
-3912,-2500,16148,-4229,2394,18800,0,8000,112000,877797,
-3628,-2852,16076,-4432,2804,18781,-1000,8000,114000,877810,
-3608,-3032,16132,-4391,2808,18724,-1000,8000,114000,877812,
-3584,-3044,16216,-4462,2878,18701,-1000,8000,115000,877815,
-3672,-3508,16448,-4548,3290,18601,-1000,8000,116000,877828,
-3696,-3520,16476,-4575,3399,18617,-1000,9000,117000,877830,
-3604,-3624,16396,-4600,3494,18632,-1000,9000,117000,877832,
-46,-18407,-3000,0,142000,883472,0,0,0,877832,
1316,-3840,17448,3744,-2585,-17887,-4000,0,147000,883440,
1112,-3944,17512,3774,-2371,-18006,-4000,0,146000,883442,
716,-3988,17224,3609,-1418,-18144,-3000,0,145000,883455,
700,-4080,17240,3632,-1271,-18253,-3000,0,144000,883457,
-3508,-5776,16876,-4933,1077,20087,-2000,10000,128000,877903,
0,0,0,0,0,0,-2000,10000,128000,877903,
-2672,-5816,17024,-4886,714,20474,-3000,11000,130000,877918,
0,0,0,0,0,0,-3000,11000,130000,877918,
-2048,-6000,17040,-4838,599,20572,-3000,11000,132000,877933,
-1820,-5916,17152,-4811,575,20517,-3000,11000,133000,877935,
-1852,-5900,17072,-4854,642,20568,-3000,11000,133000,877938,
-1140,-5912,17036,-4786,805,20628,-3000,11000,135000,877950,
-1212,-5912,17140,-4815,828,20686,-3000,11000,135000,877953,
-444,-5712,17160,-4756,1102,20582,-3000,11000,138000,8779,
-368,-5676,17244,-4628,1095,20417,-3000,11000,139000,877972,
4,-5672,17404,-4377,909,19912,-3000,11000,140000,877985,
-36,-5680,17384,-4342,791,19851,-3000,11000,141000,877987,
-72,-5760,17416,-4258,757,19773,-3000,11000,141000,877990,
-96,-6048,17248,-3974,384,19262,-3000,12000,143000000,117000,
-96,-6096,17112,-3893,287,19105,-3000,12000,144000,878007,
724,-5844,16992,-3437,-208,19111,-4000,12000,148000,878039,
1684,-5048,16876,-3459,-361,18189,-4000,12000,154000,878076,
1864,-5136,16788,-3565,-388,17943,-4000,12000,156000,878089,
1840,-4976,16696,-3561,-398,17877,-4000,12000,156000,878091,
1932,-4992,16708,-3551,-364,17805,-4000,12000,156000,878094,
2364,-4808,16796,-3380,-431,17474,-4000,12000,158000,878106,
2568,-4856,16708,-3373,-503,17368,-4000,12000,158000,878109,
3044,-4116,16720,-3185,-705,16591,-4000,12000,160000,878124,
3028,-4100,16816,-3145,-689,16491,-4000,12000,161000,878,
3512,-3520,16696,-3035,-808,15592,-4000,11000,162000,878141,
3456,-3612,16812,-3081,-817,15432,-4000,11000,163000,878143,
3560,-3588,16648,-3089,-756,15347,-4000,11000,163000,878146,
3820,-3376,16748,-3082,-602,14692,-4000,11000,164000,878158,
3940,-3220,16708,-3079,-547,14607,-4000,11000,165000,878161,
3996,-3248,16856,-3051,-573,14483,-4000,11000,165000,878163,
4628,-3108,17128,-2967,-314,13837,-4000,11000,166000,878176,
4628,-3104,17052,-2917,-293,13691,-4000,11000,167000,878178,
4688,-3020,17276,-2918,-210,13541,-4000,11000,167000,878180,
5312,-2552,17596,-2681,106,12665,-4000,11000,168000,878193,
0,0,0,0,0,0,-4000,11000,168000,878193,
5996,-2176,17864,-2223,327,11071,-4000,11000,170000,878211,
6232,-2040,17892,-2118,340,10788,-4000,11000,170000,878213,
6728,-1444,17844,-1659,678,9175,-4000,11000,171000,878228,
6784,-1380,17928,-1617,731,8887,-4000,11000,171000,878230,
6848,-1224,17912,-1591,863,8608,-4000,11000,171000,878233,
6920,-620,17804,-1241,1368,7115,-4000,11000,172000,878245,
6976,-436,17788,-1202,1494,6839,-4000,11000,172000,878248,
6912,-464,17780,-1167,1514,6573,-4000,11000,172000,878250,
6488,-88,17928,-962,1984,4970,-4000,11000,173000,878265,
6320,56,17824,-984,2042,4766,-4000,11000,173000,878267,
5292,272,17660,-904,2290,3106,-4000,11000,173000,878285,
4476,84,17656,-1067,2247,2203,-4000,11000,91000,883892,
4320,60,17624,-1065,2201,2022,-4000,11000,173000,878300,
4056,96,17620,-1119,2114,1904,-4000,11000,1730083914,0,
3296,-200,17496,-1154,1770,1232,-4000,11000,174000,878315,
3144,-276,17376,-1208,1688,1133,-4000,11000,174000,878317,
3004,-316,17384,-1220,1640,1011,-4000,11000,174000,878319,
2008,-584,17308,-1241,912,357,-4000,11000,174000,878337,
1260,-732,17408,-1269,550,-39,-4000,11000,174000,878349,
980,-712,17580,-1302,413,-78,-4000,11000,174000,878352,
24,-1216,17324,-1321,-151,-251,-5000,11000,174000,878371,
-200,-1260,17352,-1279,-404,-187,-5000,11000,174000,878386,
-372,-1172,17548,-1311,-410,-160,-5000,11000,174000,878389,
-1268,-1248,16932,-998,-951,-88,-5000,10000,174000,878436,
-1368,-1276,16716,-1009,-989,-109,-5000,10000,174000,878439,
-1336,-1344,16936,-934,-1049,-108,-5000,10000,174000,878441,
-1532,-1356,16888,-877,-1325,-1,-5000,10000,174000,878454,
-1120,-1420,17012,-789,-1420,110,-5000,10000,174000,878471,
-1064,-1208,17208,-814,-1357,135,-5000,10000,174000,878473,
-376,-1008,17064,-421,-468,-15,-5000,10000,174000,878493,
-344,-752,16896,-35,398,-379,-5000,10000,13000,4000,
-408,-616,16884,46,538,-522,-5000,10000,174000,878510,
-876,-120,16708,219,903,-726,-5000,10000,174000,878525,
-1072,-1,16560,267,935,-715,-5000,10000,174000,878528,
-1228,-80,16640,258,1117,-682,-5000,10000,173000,878540,
-1184,124,16424,200,1047,-641,-5000,10000,173000,878545,
-1216,180,16484,9,980,-678,-5000,10000,173000,878557,
-1092,164,16520,-7,1016,-692,-5000,10000,173000,878560,
-968,36,16532,-18,1077,-739,-5000,10000,173000,878562,
-1060,264,16536,-17,1076,-752,-5000,10000,173000,878565,
-1100,148,16504,-74,1384,-917,-5000,10000,173000,878577,
-1132,48,16408,-60,1369,-902,-5000,10000,173000,87850,
-1308,-72,16336,-3,1569,-987,-5000,10000,173000,878597,
-1416,-112,16344,37,1605,-1017,-5000,10000,173000,878599,
-1764,68,16368,37,1610,-987,-5000,10000,173000,878612,
-1916,128,16340,80,1555,-969,-5000,10000,173000,878614,
-2004,344,16080,-235,950,-619,-5000,10000,173000,878634,
-1748,496,16284,-607,324,-462,-5000,10000,173000,878646,
-1796,476,16264,-690,144,-459,-5000,10000,173000,878651,
-1536,452,16516,-91280,236,15980,-2092,-191,13212,2000,
-1484,288,16528,-890,-251,-478,98,38,14371,2000,
-1564,-12,16452,-687,-304,-477,-5000,10000,173000,878683,
-1416,180,16740,-527,-523,-426,-5000,10000,173000,878703,
-1416,280,16500,-607,-654,-425,-5000,10000,173000,878715,
-1392,376,16648,-628,-578,-431,-5000,10000,173000,878720,
-1404,372,16616,-675,-574,-515,-5000,10000,173,104000,
-1212,308,16872,-657,-549,-542,-5000,10000,173000,878737,
-1184,184,16856,-704,-428,-607,-5000,10000,173000,878750,
-1108,116,16940,-657,-428,-612,-5000,10000,172000,878752,
-1160,324,16732,-654,-378,-601,-5000,10000,172000,878755,
-1112,196,16868,-560,-184,-698,-5000,10000,172000,878767,
-1032,24,16776,-504,-63,-807,-5000,10000,172000,878772,
-1144,-108,16652,-401,149,-863,-5000,10000,172000,878785,
-1264,-244,16636,-354,190,-906,-5000,10000,172000,878789,
-1468,-208,16240,-294,415,-946,-5000,10000,172000,878802,
-1436,-60,16280,-280,404,-915,-5000,10000,172000,878804,
-1476,-56,16268,-325,423,-898,-5000,10000,172000,878806,
-1660,12,16416,-298,469,-876,-5000,10000,172000,878819,
-1656,32,16272,-290,527,-887,-5000,10000,172000,878821,
-1708,24,16328,-268,-644,16196,-4501,1193,17934,0,
-1768,144,16316,-448,184,-779,-5000,10000,172000,878839,
-1760,120,16368,-488,155,-782,-5000,10000,172000,878841,
-1768,-28,16516,-514,-135,-739,-6000,10000,172000,878854,
-1688,-156,16372,-512,-150,-728,-6000,10000,172000,878856,
-1772,-56,16424,-528,-116,-750,-6000,10000,172000,878858,
-1568,-124,16448,-545,-77,-717,-6000,9000,172000,878871,
-1624,-16,16456,-517,-79,-729,-6000,73,17636,0,
-1492,4,16424,-587,79,-638,-6000,9000,172000,878888,
-1436,76,16468,-629,126,-616,-6000,9000,172000,878890,
-1412,28,16448,-669,186,-629,-6000,9000,172000,878893,
-1320,68,16336,-623,233,-633,-6000,9000,172000,878895,
-1272,-24,16328,-620,370,-619,-6000,9000,172000,878908,
0,0,0,0,0,0,-6000,9000,172000,878908,
-1412,-120,16372,-576,370,-619,-6000,9000,172000,878912,
-1536,-44,16244,-451,340,134000,0,0,0,878912,
-1560,-8,16364,-503,293,-619,-6000,9000,172000,878927,
-1608,-52,16304,-487,230,-620,-6000,9000,172000,878930,
-1852,-108,16140,-663,-134,-594,-6000,9000,171000,878942,
-1888,-88,16484,-372,16976,-877,19,-664,-6000,9000,
-1088,-604,16904,-505,764,-786,-6000,9000,171000,879014,
-1124,-652,16732,-502,867,-809,-6000,9000,171000,879016,
-1432,-596,16724,-342,1098,-767,-6000,9000,171000,879029,
-1516,-576,16760,-353,1165,-708,-6000,9000,171000,879031,
-1524,-512,16748,-304,1150,-698,-6000,9000,171000,879033,
-924,-328,16668,-580,55,495,-7000,7000,173000,882621,
-864,-352,16612,-549,107,443,-7000,7000,173000,882623,
-1000,-408,16580,-568,161,400,-7000,7000,173000,882628,
-780,-320,16616,-460,417,292,-7000,7000,173000,882640,
-896,-188,16576,-505,461,292,-7000,7000,173000,882643,
-944,-244,16580,-487,567,249,-7000,7000,173000,882645,
-960,-172,16504,-419,623,175,-7000,7000,173000,882660,
-944,-120,16544,-46128,-3812,17936,-2266,2093,17344,-2000,
-1516,-220,16504,-507,407,114,-7000,86,-3360,17544,
-1484,-348,16504,-582,288,187,-7000,8000,173000,882699,
-1128,-268,16508,-632,91,208,-7000,8000,173000,882712,
-1140,-324,16484,-684,60,228,-7000,8000,173000,882714,
-1092,-264,16408,-680,82,190,-7000,8000,173000,882716,
-1028,-300,16492,-677,63,205,-7000,8000,173000,882719,
-800,-2,-2612,17200,-1571,2284,14523,-1000,11000,161000,
-864,-132,16860,-426,777,-61,-7000,8000,173000,882749,
-876,-88,16900,-461,826,-75,-7000,8000,173000,882751,
-1428,-208,16664,-371,904,-157,-7000,8000,173000,882773,
-1628,-232,16544,-403,647,-126,-7000,8000,173000,882786,
-1688,-304,16548,-385,601,-98,-7000,8000,173000,882788,
-1692,-372,16752,-383,557,-93,-7000,8000,173000,882790,
-1616,-248,16572,-432,271,-13,-7000,8000,173000,882803,
-1656,-144,16628,-428,209,-6,-7000,8000,173000,8828884789,
-1372,-252,16652,-459,66,13,-7000,8000,173000,882820,
0,0,0,0,0,0,-7000,8000,173000,882820,
-1228,-128,16776,-519,158,0,-7000,8000,173000,882825,
-1448,-92,16760,-466,135,18,-7000,8000,173000,882827,
-1232,-236,16660,-435,334,-6,-7000,8000,173000,882840,
-1232,-48,16748,-365,332,15,-7000,8000,173000,882842,
-1268,-52,16772,-370,333,30,-7000,8000,173000,882844,
-1544,24,16824,-336,408,-34,-7000,8000,173000,882857,
-1428,-16,16728,-374,433,-24,-7000,8000,173000,882859,
-1448,-72,16684,-372,443,-35,-7000,8000,173000,882862,
0,0,0,0,0,0,-7000,8000,173000,882862,
-1560,-108,16436,-385,343,-47,-7000,8000,173000,882877,
-1524,-72,16544,-409,307,-16,-7000,8000,173000,882879,
-1472,-60,16452,-418,280,-12,-7000,8000,173000,882881,
-1544,-172,16512,-449,161,-13,-7000,8000,173000,882894,
-1536,-24,16452,-454,169,-21,-7000,8000,173000,882896,
-1552,-152,16560,-462,198,-58,-7000,8000,173000,882898,
0,0,0,0,0,0,-7000,8000,173000,882898,
-1504,-104,16260,-602,50,17,-7000,8000,173000,882955,
-1436,-136,16328,-705,-173,41,-7000,8000,173000,882968,
-1344,-136,16236,-718,-122,20,-7000,8000,173000,882970,
-1508,-24,16272,-738,-219,35,-7000,8000,173000,882973,
-1148,-276,16316,-814,-283,-12,-7000,8000,173000,882985,
-1144,-148,16396,-819,-333,35,-7000,8000,173000,882988,
-964,-320,16380,-725,-204,-146,-7000,8000,173000,883007,
-768,-344,16452,-753,-134,-203,-7000,8000,171577,765,
-540,-320,16516,-844,-155,-258,-7000,7000,173000,883037,
-500,-348,16576,-894,-160,-298,-7000,7000,173000,8,
960,-488,17148,-925,-26,-968,-7000,7000,173000,883074,
0,0,0,0,0,0,-7000,7000,173000,883074,
1012,-428,17256,-808,40,-1119,-7000,7000,173000,883079,
1444,-412,17220,-732,289,-1433,-7000,7000,173000,883091,
1524,-440,17480,-671,250,-1500,-7000,7000,173000,883094,
0,0,0,0,0,0,-7000,7000,173000,883094,
1916,-568,17628,-599,324,-2034,-7000,7000,173000,883109,
2032,-652,17836,-596,331,-21,64,16672,-1174,-403,
2504,-1028,17736,-467,238,-2718,-7000,7000,172000,883126,
3064,-1612,18148,-87,-46,-3515,-7000,7000,172000,883146,
3196,-1740,17996,-27,-59,-3641,-7000,7000,172000,883148,
3484,-2084,18168,163,-201,-4051,-8000,6000,171000,883160,
4036,-2644,18208,583,-182,-4820,-8000,6000,171000,883178,
4168,-2896,18068,588,-227,-4899,-8000,6000,171000,883180,
4296,-2840,17896,617,-177,-5005,-8000,6000,171000,883183,
4836,-3052,18180,886,70,-5567,-8000,6000,170000,883195,
4912,-3172,17940,946,206,-5715,-8000,6000,170000,883197,
4992,-3044,17816,1037,216,-5815,-7000,6000,170000,883200,
5160,-2924,17920,1463,455,-6811,-7000,6000,169000,883217,
4712,-2924,17752,1778,328,-7693,-7000,5000,168000,883230,
4588,-2920,17888,1870,273,-8020,-7000,5000,168000,883234,
4460,-2760,17808,2058,77,-8754,-7000,5000,167000,883247,
4384,-2724,17972,2146,56,-8928,-7000,5000,167000,883249,
4484,-2768,17880,2126,11,-9031,-7000,5000,167000,883252,
5012,-2800,17748,2204,205,-9879,-7000,5000,166000,883264,
4812,-2724,18048,2221,242,-10002,-7000,5000,166000,883267,
4968,-2752,17860,2261,325,-10192,-7000,5000,166000,883269,
4800,-2920,17824,2488,504,-10989,-7000,4000,164000,883282,
0,0,0,0,0,0,-7000,4000,164000,883282,
3852,-3568,17568,2895,612,-12082,-7000,4000,163000,883299,
3196,-3236,17336,32993000,11000,178000,0,0,0,883299,
3168,-2480,17352,3403,160,-13665,-6000,4000,159000,883333,
3072,-2380,17448,3483,140,-13803,-6000,4000,159000,883336,
2916,-2340,17424,3466,113,-13831,-6000,3000,159000,883338,
2320,-1788,17808,3628,-190,-14315,-6000,3000,158000,883351,
2280,-1788,17736,3624,-306,-14318,-6000,3000,157000,883353,
2056,-1748,17636,3623,-416,-14446,-6000,3000,11176,844,
1200,-1560,17728,3650,-1854,-14849,-5000,3000,0,16696,
1020,-1972,17748,3504,-3197,-15284,-5000,2000,1,-386,
1632,-2612,17864,3470,-3892,-16066,-5000,1000,152000,883403,
1764,-2812,17724,3516,-3966,-16218,-5000,1000,151000,883405,
1804,-2952,17892,3564,-3996,-16426,-5000,1000,1793,-3000,
1788,-3504,17644,3733,-3755,-17314,-4000,1000,149000,883422,
1792,-3596,17856,3705,-3601,-17400,-4000,0,149000,883425,
-32,-4568,17040,3599,-630,-18353,-3000,0,142000,883475,
-216,-4572,17008,3614,-659,-18403,-3000,0,142000,883477,
-980,-4836,16612,3819,-988,-18503,-3000,0,140000,883490,
-1172,-4936,16584,3838,-1060,-18540,-3000,0,140000,883492,
-1336,-4816,16648,3920,-1249,-18556,-3000,0,139000,883494,
-1812,-4876,16256,3936,-2158,-18421,-2000,0,137000,883507,
