Ax,Ay,Az,Gx,Gy,Gz,Roll,Pitch,Yaw,Timestamp,Target
4212,1992,16032,-370,-106,-304,8000,-14000,168000,197419,
4180,1980,15940,-357,-99,-272,8000,-14000,168000,197421,
4036,1968,15852,-338,-111,-246,8000,-14000,168000,197424,
4172,1944,16104,-371,-164,-170,8000,-14000,168000,197436,
4168,1932,16024,-357,-163,-160,8000,-14000,168000,197438,
4232,2068,16092,-378,-189,-131,8000,-14000,168000,197440,
4236,2188,16364,-339,-297,-48,8000,-14000,168000,197453,
4472,2188,16412,-357,-301,-53,8000,-14000,168000,197455,
4344,2072,16536,-341,-321,-49,8000,-14000,168000,197457,
4380,2288,16516,-317,-397,9,8000,-14000,168000,197470,
4424,2200,16700,-269,-419,10,8000,-14000,168000,197472,
4364,2264,16652,-268,-415,16,8000,-14000,168000,197474,
4456,2232,16644,-112,-423,12,8000,-14000,168000,197487,
4460,2180,16520,-84,-434,37,8000,-14000,168000,197489,
4444,2040,16636,-41,-413,17,8000,-14000,168000,197491,
4468,2148,16476,138,-303,7,8000,-14000,168000,197503,
4548,2116,16380,146,-272,-35,8000,-14000,168000,197506,
4660,2112,16352,202,-228,-23,8000,-14000,168000,197508,
4700,2204,16228,354,46,-24,8000,-14000,168000,197520,
4584,2236,16348,380,77,-51,8000,-14000,168000,197523,
4652,2296,16356,403,152,-47,8000,-14000,168000,197525,
4728,2192,16164,426,205,-30,8000,-14000,168000,197527,
4552,2296,16284,502,519,-7,8000,-14000,168000,197540,
4512,2308,16252,507,581,-26,8000,-14000,168000,197542,
4380,2304,16208,518,609,-13,8000,-14000,168000,197544,
4324,2332,16196,597,832,-54,8000,-14000,168000,197557,
4396,2336,16064,620,879,-64,8000,-14000,168000,197559,
4228,2328,15904,632,908,-69,8000,-14000,168000,197561,
4116,2396,15800,621,987,-67,8000,-14000,168000,197574,
3988,2232,15884,596,1011,-82,8000,-14000,168000,197576,
3960,2316,15776,597,991,-88,9000,-14000,168000,197578,
3884,2420,15680,553,887,-162,9000,-14000,168000,197590,
3892,2424,15544,531,892,-140,9000,-14000,168000,197593,
3896,2388,15636,517,885,-154,9000,-14000,168000,197595,
3948,2444,15568,437,868,-167,9000,-14000,168000,197608,
3868,2580,15456,409,871,-166,9000,-14000,168000,197610,
3904,2444,15432,374,852,-180,9000,-14000,168000,197612,
3664,2452,15640,239,816,-143,9000,-14000,168000,197625,
3692,2428,15420,179,808,-144,9000,-14000,168000,197627,
3808,2396,15468,175,793,-162,9000,-14000,168000,197629,
3748,2344,15676,16,682,-165,9000,-14000,168000,197642,
3816,2520,15496,1,681,-175,9000,-14000,168000,197644,
3824,2516,15600,-18,653,-179,9000,-14000,168000,197646,
3772,2380,15668,-197,528,-138,9000,-14000,168000,197658,
3876,2276,15820,-198,518,-107,9000,-14000,168000,197661,
3936,2244,15708,-229,524,-109,9000,-14000,168000,197663,
3812,2296,15904,-328,318,-86,9000,-14000,168000,197675,
3800,2252,15940,-333,312,-83,9000,-14000,168000,197678,
3804,2272,15832,-360,283,-105,9000,-14000,168000,197680,
3972,2380,15720,-451,91,-141,9000,-14000,168000,197692,
3880,2324,15676,-453,100,-135,9000,-14000,168000,197694,
3972,2368,15836,-443,49,-134,9000,-14000,168000,197697,
4164,2340,16040,-443,5,-172,8000,-14000,168000,197709,
4020,2184,15920,-457,-21,-175,8000,-14000,168000,197711,
4104,2300,15896,-451,16,-194,8000,-14000,168000,197714,
4332,2172,16112,-394,108,-226,8000,-14000,168000,197726,
4324,2196,16284,-371,152,-227,8000,-14000,168000,197728,
4388,2232,16292,-352,209,-212,8000,-14000,168000,197730,
4408,2020,16128,-237,487,-204,8000,-13000,168000,197743,
4432,2060,16156,-243,532,-198,8000,-13000,168000,197745,
4272,2024,16192,-232,600,-196,8000,-13000,168000,197747,
4356,2032,16296,-170,763,-117,8000,-13000,168000,197760,
4308,2128,16376,-190,757,-126,8000,-13000,168000,197762,
4164,2088,16192,-178,768,-136,8000,-13000,168000,197764,
4016,2224,16508,-241,613,-164,8000,-13000,168000,197777,
4012,2264,16200,-240,595,-167,8000,-13000,168000,197779,
4136,2284,16244,-258,551,-162,8000,-13000,168000,197781,
3972,2160,16348,-286,396,-182,8000,-13000,168000,197794,
3896,2148,16584,-274,335,-190,8000,-13000,168000,197796,
3908,2112,16452,-294,333,-216,8000,-13000,168000,197798,
4016,2052,16428,-283,303,-276,8000,-13000,168000,197811,
4044,1920,16424,-285,261,-247,8000,-13000,168000,197813,
4008,1956,16364,-284,267,-263,8000,-13000,168000,197815,
4128,2016,16464,-228,290,-298,8000,-13000,168000,197828,
4100,2096,16428,-243,302,-317,8000,-13000,168000,197830,
4032,2100,16224,-234,306,-335,8000,-13000,168000,197832,
4120,2088,16332,-209,391,-301,8000,-13000,168000,197845,
4124,2152,16412,-206,376,-279,8000,-13000,168000,197847,
4124,2012,16272,-207,404,-282,8000,-13000,168000,197849,
4072,1964,16188,-119,481,-268,8000,-13000,168000,197862,
4028,1788,16352,-115,488,-268,8000,-13000,168000,197864,
4128,1844,15992,-101,501,-246,8000,-13000,168000,197866,
4036,1956,16292,-50,564,-237,8000,-13000,168000,197879,
4008,1932,16208,-62,585,-235,8000,-13000,168000,197881,
3984,1996,16284,-44,575,-245,8000,-13000,168000,197883,
3964,1944,16260,-34,556,-215,8000,-13000,168000,197896,
3888,2124,16372,-35,554,-231,8000,-13000,168000,197898,
3800,1892,16340,-30,548,-222,8000,-13000,168000,197900,
3864,2020,16304,27,523,-218,8000,-13000,168000,197912,
3876,1980,16252,27,551,-213,8000,-13000,168000,197915,
3948,2012,16216,38,559,-213,8000,-13000,168000,197917,
3944,1924,16180,29,590,-211,8000,-13000,168000,197929,
3996,1924,16188,48,624,-219,8000,-13000,168000,197932,
3864,1992,16248,35,593,-179,8000,-13000,168000,197934,
3724,2020,16364,-11,499,-220,8000,-13000,168000,197946,
3808,1988,16216,-9,432,-218,8000,-13000,168000,197949,
3840,1828,16080,-21,432,-233,8000,-13000,168000,197951,
3900,1816,16328,-75,304,-267,8000,-13000,168000,197963,
3784,1864,16084,-63,321,-275,8000,-13000,168000,197965,
3840,1840,16312,-81,313,-251,8000,-13000,168000,197968,
3752,1748,16324,-96,302,-309,8000,-13000,168000,197980,
3784,1884,16168,-110,300,-310,8000,-13000,168000,197982,
3816,1736,16272,-99,306,-307,8000,-13000,168000,197985,
3732,1712,16076,-110,297,-359,8000,-13000,168000,197997,
3808,1664,16316,-121,311,-365,8000,-13000,168000,198000,
3772,1788,16304,-119,294,-372,8000,-13000,168000,198002,
3736,1800,16192,-103,265,-399,8000,-12000,168000,198014,
3804,1792,16312,-117,226,-390,8000,-12000,168000,198016,
3884,1820,16216,-87,258,-372,8000,-12000,168000,198019,
3908,1884,16116,-79,267,-308,8000,-12000,168000,198031,
3800,1868,16392,-47,267,-273,8000,-12000,168000,198033,
3928,1816,16324,-68,267,-244,8000,-12000,168000,198035,
3828,1832,16412,-12,239,-90,8000,-12000,168000,198048,
3752,1848,16348,13,237,-86,8000,-12000,168000,198050,
3804,1884,16568,27,229,-55,8000,-12000,168000,198052,
3868,1884,16596,98,206,27,8000,-12000,168000,198065,
3820,1748,16368,126,200,60,8000,-12000,168000,198067,
3832,1776,16352,140,165,58,8000,-12000,168000,198069,
3816,1752,16388,150,189,80,8000,-12000,168000,198071,
3836,1816,16268,228,85,137,8000,-12000,168000,198084,
3896,1672,16392,252,101,152,8000,-12000,168000,198086,
4032,1740,16316,273,104,163,8000,-12000,168000,198088,
4120,1924,16236,266,237,224,8000,-12000,168000,198101,
4080,2100,16404,249,242,247,8000,-12000,168000,198103,
3964,2084,16192,212,261,239,8000,-12000,168000,198105,
3952,1920,16400,209,245,293,8000,-12000,168000,198118,
3988,2128,16368,197,241,255,8000,-12000,168000,198120,
3940,2168,16368,194,227,245,8000,-12000,168000,198122,
3928,2016,16416,165,115,125,8000,-12000,168000,198135,
4056,2044,16340,145,106,104,8000,-12000,168000,198137,
4012,2000,16556,162,91,81,8000,-12000,168000,198139,
3976,1848,16384,141,80,57,8000,-12000,168000,198141,
3992,1980,16440,144,53,-37,8000,-12000,168000,198154,
4004,1908,16104,122,8,-58,8000,-12000,168000,198156,
4088,1928,16300,121,15,-62,8000,-12000,168000,198158,
4136,2100,16256,65,-46,-165,8000,-12000,168000,198171,
4064,2188,16344,37,-74,-169,8000,-12000,168000,198173,
4008,2116,16312,53,-78,-175,8000,-12000,168000,198175,
4048,2052,16348,-34,-251,-269,8000,-12000,168000,198187,
4048,2040,16240,-70,-269,-256,8000,-12000,168000,198190,
4112,1996,16280,-52,-289,-302,8000,-12000,168000,198192,
4192,2028,16256,-54,-381,-342,8000,-12000,168000,198204,
4244,2056,16532,-41,-376,-357,8000,-12000,168000,198207,
4216,2164,16516,-69,-351,-358,8000,-12000,168000,198209,
4352,2196,16428,-60,-209,-415,8000,-12000,168000,198221,
4296,2332,16364,-35,-209,-398,8000,-12000,168000,198223,
4312,2264,16352,-51,-156,-429,8000,-12000,168000,198226,
4148,2216,16320,-22,-87,-464,8000,-12000,168000,198238,
4200,2224,16272,-40,-78,-499,8000,-12000,168000,198240,
4224,2264,16268,-26,-97,-515,8000,-12000,168000,198243,
4008,2228,16348,-7,-57,-599,8000,-12000,168000,198255,
3988,2184,16244,10,-45,-607,8000,-12000,168000,198257,
4176,2092,16336,17,-57,-608,8000,-12000,168000,198259,
4016,2164,16264,100,10,-664,8000,-12000,168000,198272,
4000,2144,16232,106,27,-671,8000,-12000,168000,198274,
3948,2100,16316,110,36,-694,8000,-12000,168000,198276,
3860,2140,16128,157,158,-682,8000,-12000,168000,198289,
3952,2104,16032,178,196,-694,8000,-12000,168000,198291,
3884,2056,15988,182,195,-695,8000,-12000,168000,198293,
3772,2236,16100,210,378,-682,8000,-12000,168000,198306,
3796,2268,15964,212,371,-669,8000,-12000,168000,198308,
3868,2120,15968,211,416,-681,8000,-12000,168000,198310,
3880,2112,15984,210,502,-637,8000,-12000,168000,198323,
3796,2212,16112,207,512,-641,8000,-12000,168000,198325,
3680,2064,16012,189,557,-631,8000,-12000,168000,198327,
3632,2040,16268,210,538,-583,8000,-12000,167000,198340,
3472,2228,16060,202,526,-551,8000,-12000,167000,198342,
3580,2100,16220,211,491,-533,8000,-12000,167000,198344,
3352,2132,16144,161,338,-489,8000,-12000,167000,198356,
3340,2084,16240,163,304,-475,8000,-12000,167000,198359,
3340,2180,16092,172,290,-456,8000,-12000,167000,198361,
3344,2248,16104,96,139,-432,8000,-12000,167000,198373,
3420,2256,16116,91,105,-399,8000,-12000,167000,198376,
3308,2260,16068,64,62,-423,8000,-12000,167000,198378,
3380,2276,16260,-4,-70,-363,8000,-12000,167000,198390,
3516,2176,16200,-21,-113,-372,8000,-12000,167000,198393,
3384,2168,16240,-6,-106,-372,8000,-12000,167000,198395,
3500,2000,16268,15,-127,-328,8000,-12000,167000,198407,
3612,1900,16152,48,-111,-308,8000,-12000,167000,198410,
3508,2020,16192,24,-92,-297,8000,-12000,167000,198412,
3728,2112,16092,111,11,-210,8000,-12000,167000,198424,
3640,2144,16244,107,51,-219,8000,-12000,167000,198426,
3664,2100,16180,122,62,-206,8000,-12000,167000,198429,
3640,2160,16264,148,155,-185,8000,-12000,167000,198441,
3596,2260,16272,163,192,-190,8000,-12000,167000,198443,
3676,2148,16184,151,188,-182,8000,-12000,167000,198446,
3600,2084,16324,157,286,-208,8000,-12000,167000,198458,
3580,2028,16200,166,293,-174,8000,-12000,167000,198460,
3604,2072,16228,167,323,-173,8000,-12000,167000,198463,
3584,2184,16196,237,452,-201,8000,-12000,167000,198475,
3492,2108,16132,222,473,-205,8000,-12000,167000,198477,
3552,2160,16280,222,481,-200,8000,-12000,167000,198479,
3464,2160,16288,230,473,-217,8000,-12000,167000,198492,
3456,2084,16308,216,463,-218,8000,-12000,167000,198494,
3460,2092,16272,226,464,-247,8000,-12000,167000,198496,
3432,2216,16380,185,336,-230,8000,-12000,167000,198509,
3432,2164,16260,199,374,-251,8000,-12000,167000,198511,
3508,2200,16192,167,322,-247,8000,-12000,167000,198513,
3512,2124,16128,172,320,-188,8000,-12000,167000,198526,
3552,2116,16188,166,290,-219,8000,-12000,167000,198528,
3508,2100,16300,184,312,-189,8000,-12000,167000,198530,
3608,2308,16192,118,266,-153,8000,-12000,167000,198543,
3560,2288,16108,78,251,-158,8000,-12000,167000,198545,
3596,2148,16176,82,250,-159,8000,-12000,167000,198547,
3548,2164,16352,4,129,-133,8000,-12000,167000,198560,
3440,2096,16268,28,99,-117,8000,-12000,167000,198562,
3540,2152,16224,13,79,-131,8000,-12000,167000,198564,
3532,2084,16276,12,75,-119,8000,-12000,167000,198566,
3524,2064,16328,15,38,-131,8000,-12000,167000,198579,
3660,2068,16272,8,26,-125,8000,-12000,167000,198581,
3604,1932,16432,20,39,-123,8000,-12000,167000,198583,
3752,2160,16432,20,23,-137,8000,-12000,167000,198596,
3588,2084,16360,11,18,-159,8000,-12000,167000,198598,
3668,2152,16444,-13,11,-168,8000,-12000,167000,198600,
3716,2172,16356,-12,-53,-189,8000,-12000,167000,198613,
3836,2228,16332,6,-26,-208,8000,-12000,167000,198615,
3636,2196,16268,-6,-56,-208,8000,-12000,167000,198617,
3720,2104,16248,-32,-68,-212,8000,-12000,167000,198629,
3724,2140,16344,-10,-53,-207,8000,-12000,167000,198632,
3656,2096,16508,6,-56,-226,8000,-12000,167000,198634,
3644,2208,16196,35,16,-258,8000,-12000,167000,198646,
3796,2012,16432,67,23,-255,8000,-12000,167000,198649,
3804,2152,16356,56,33,-268,8000,-12000,167000,198651,
3768,2200,16256,72,49,-309,8000,-12000,167000,198653,
3764,2164,16348,65,117,-304,8000,-12000,167000,198666,
3744,2064,16516,66,146,-291,8000,-12000,167000,198668,
3532,2164,16456,65,132,-304,8000,-12000,167000,198670,
3652,2068,16452,74,152,-342,8000,-12000,167000,198683,
3676,2004,16368,63,165,-343,8000,-12000,167000,198685,
3672,2084,16508,78,145,-324,8000,-12000,167000,198687,
3736,2144,16476,87,93,-342,8000,-12000,167000,198700,
3608,2220,16432,76,68,-343,8000,-12000,167000,198702,
3660,2180,16416,61,80,-342,8000,-12000,167000,198704,
3656,2340,16460,71,41,-349,8000,-12000,167000,198706,
3592,2256,16168,53,-68,-393,8000,-12000,167000,198719,
3788,2156,16308,59,-56,-407,8000,-12000,167000,198721,
3648,2224,16384,70,-77,-402,8000,-12000,167000,198723,
3852,2212,16308,99,-37,-411,8000,-12000,167000,198736,
3904,2152,16216,87,-42,-397,8000,-12000,167000,198738,
3848,2304,16240,91,-23,-385,8000,-12000,167000,198740,
3816,2204,16176,77,65,-412,8000,-12000,167000,198753,
3756,2160,16172,69,79,-410,8000,-12000,167000,198755,
3760,2104,16352,86,82,-420,8000,-12000,167000,198757,
3752,2164,16244,98,64,-404,8000,-12000,167000,198759,
3656,2248,16440,96,74,-400,8000,-12000,167000,198772,
3700,2248,16572,101,65,-414,8000,-12000,167000,198774,
3692,2188,16400,61,69,-433,8000,-12000,167000,198776,
3672,2120,16356,80,64,-439,8000,-12000,167000,198789,
3620,2104,16308,96,46,-441,8000,-12000,167000,198791,
3696,2100,16372,104,42,-454,8000,-12000,167000,198793,
3672,2152,16328,120,-17,-450,8000,-12000,167000,198806,
3564,2332,16224,90,30,-477,8000,-12000,167000,198808,
3528,2144,16240,107,-41,-461,8000,-12000,167000,198810,
3772,2180,16100,101,13,-536,8000,-12000,166000,198823,
3588,2188,16216,99,20,-530,8000,-12000,166000,198825,
3592,2132,15996,110,43,-548,8000,-12000,166000,198827,
3840,2072,15860,171,215,-561,8000,-12000,166000,198840,
3788,2052,15844,173,296,-577,8000,-12000,166000,198842,
3744,2120,15736,178,360,-560,8000,-12000,166000,198844,
3748,2244,15320,175,700,-579,8000,-12000,166000,198856,
3752,2140,15248,204,794,-587,8000,-12000,166000,198859,
3656,2244,15124,185,874,-572,8000,-12000,166000,198861,
3616,2196,14688,123,1181,-564,8000,-11000,166000,198873,
3504,2244,14692,110,1224,-588,8000,-11000,166000,198876,
3428,2240,14496,75,1274,-561,8000,-11000,166000,198878,
3480,2212,13904,-37,1680,-593,8000,-11000,166000,198890,
3536,2252,13920,-68,1733,-581,8000,-11000,166000,198892,
3412,2360,13596,-97,1849,-579,8000,-11000,166000,198895,
3148,2264,12668,-354,2244,-566,8000,-11000,166000,198907,
2956,2052,12444,-431,2374,-590,8000,-11000,166000,198909,
3040,2024,12232,-468,2445,-596,8000,-11000,166000,198912,
2696,1436,10528,-765,3049,-620,8000,-11000,166000,198924,
2636,1120,10164,-831,3204,-604,8000,-11000,166000,198926,
2576,1184,10192,-851,3347,-605,8000,-11000,166000,198929,
2200,744,7644,-1212,4395,-462,8000,-10000,166000,198941,
2244,556,7192,-1287,4648,-437,8000,-10000,166000,198943,
2104,660,6772,-1374,4885,-368,8000,-10000,166000,198946,
1472,924,4220,-2271,6205,104,8000,-9000,166000,198958,
1288,1100,4040,-2478,6345,192,8000,-9000,166000,198960,
1084,1160,3600,-2728,6469,322,8000,-9000,166000,198963,
-456,1672,1828,-4482,6349,824,8000,-9000,167000,198975,
-760,1572,1784,-4852,6180,921,8000,-8000,167000,198977,
-1000,1768,1500,-5249,5936,972,7000,-8000,167000,198979,
-2000,1472,1188,-7556,4025,899,7000,-8000,167000,198992,
-2020,1364,1004,-7993,3649,862,7000,-8000,167000,198994,
-1896,1344,1100,-8405,3260,760,7000,-7000,167000,198996,
-1524,372,1084,-10579,1762,367,6000,-7000,167000,199009,
-1464,204,1148,-10913,1617,369,6000,-7000,167000,199011,
-1288,-108,1200,-11259,1533,351,5000,-7000,167000,199013,
-864,-1124,1584,-12940,1688,632,4000,-6000,167000,199026,
-1028,-1380,1448,-13207,1817,708,4000,-6000,167000,199028,
-1068,-1492,1264,-13473,1956,811,3000,-6000,167000,199030,
-1136,-1936,1536,-14988,2999,1209,2000,-6000,167000,199043,
-1184,-2136,1436,-15241,3215,1258,1000,-6000,167000,199045,
-1188,-2012,1580,-15501,3435,1265,1000,-6000,167000,199047,
-868,-2308,2528,-16851,4548,1182,0,-5000,167000,199060,
-868,-2296,2720,-17056,4723,1127,0,-5000,167000,199062,
-700,-2328,2848,-17255,4919,1106,-1000,-5000,167000,199064,
556,-2320,3896,-18357,6498,955,-3000,-4000,167000,199077,
868,-2312,4008,-18557,6897,938,-3000,-4000,167000,199079,
1092,-2312,4092,-18757,7318,927,-3000,-4000,167000,199081,
1664,-2908,5076,-19731,9894,1103,-5000,-3000,167000,199094,
1712,-3008,5064,-19875,10355,1134,-6000,-3000,167000,199096,
1556,-3232,5328,-20006,10892,1146,-6000,-3000,167000,199098,
204,-4320,5752,-20783,13457,1284,-8000,-2000,167000,199111,
-248,-4412,5836,-20939,13767,1283,-9000,-1000,167000,199113,
-864,-4560,5776,-21108,14032,1269,-9000,-1000,167000,199115,
-2600,-5168,6796,-22363,14256,769,-11000,0,167000,199128,
-2908,-5316,7304,-22618,14094,541,-12000,0,167000,199130,
-3124,-5548,7796,-22852,13823,289,-12000,0,167000,199132,
-3720,-6244,10732,-24220,11179,-1531,-14000,1000,167000,199145,
-3660,-6388,11468,-24447,10597,-1874,-15000,1000,167000,199147,
-3440,-6744,11964,-24629,9992,-2194,-15000,1000,167000,199149,
-3012,-8316,14520,-25351,7373,-3659,-18000,2000,166000,199161,
-3024,-8796,14664,-25410,6991,-3789,-18000,2000,166000,199164,
-2064,-11204,15964,-25185,6601,-3707,-21000,3000,165000,199176,
-1948,-11276,15808,-25134,6810,-3657,-21000,3000,165000,199179,
-1812,-11548,16096,-25070,7117,-3590,-22000,3000,165000,199181,
-1688,-13320,16704,-24464,9458,-3031,-24000,3000,165000,199193,
-1728,-13620,16768,-24331,10029,-3042,-25000,4000,164000,199196,
-1728,-13792,16980,-24200,10666,-3021,-25000,4000,164000,199198,
-3228,-15396,17436,-23533,13223,-2989,-28000,5000,163000,199210,
-3400,-15676,17804,-23414,13531,-3013,-28000,5000,163000,199213,
-4104,-17380,19184,-22491,14759,-2854,-30000,6000,162000,199225,
-4016,-17824,19552,-22266,14984,-2817,-31000,6000,162000,199227,
-3900,-17976,19980,-22019,15187,-2777,-31000,6000,162000,199230,
-4324,-18660,20976,-20694,16253,-2447,-33000,8000,161000,199242,
-4420,-18780,21300,-20471,16391,-2295,-34000,8000,161000,199245,
-5564,-19728,21892,-19003,16770,-1406,-36000,9000,160000,199257,
-5684,-19740,21720,-18719,16765,-1261,-36000,9000,159000,199260,
-5952,-19876,21828,-18458,16695,-1117,-37000,10000,159000,199262,
-6752,-19556,22700,-17090,15535,-662,-38000,11000,158000,199274,
-6876,-19304,23052,-16876,15191,-619,-39000,11000,158000,199276,
-6756,-18404,24384,-15785,12475,-415,-40000,12000,157000,199289,
-6776,-18256,24952,-15616,11890,-374,-41000,12000,157000,199291,
-6632,-18316,25300,-15433,11322,-347,-41000,12000,157000,199294,
-5976,-18640,26284,-14297,8118,-193,-42000,13000,156000,199306,
-5940,-18660,26476,-14050,7555,-210,-43000,13000,156000,199308,
-4856,-18920,27896,-12499,4594,-107,-44000,13000,156000,199321,
-4364,-18872,28080,-12173,4215,-82,-44000,13000,156000,199323,
-3872,-19036,28232,-11776,3883,-110,-44000,13000,156000,199325,
-2508,-18836,29664,-9783,2588,-126,-45000,13000,156000,199338,
-2004,-18892,30152,-9419,2411,-128,-45000,13000,156000,199340,
-2020,-18900,30436,-9032,2253,-117,-46000,13000,156000,199343,
-252,-18904,31588,-6696,1794,-242,-46000,13000,156000,199355,
180,-18968,31500,-6197,1863,-290,-46000,13000,156000,199357,
488,-19068,31540,-5732,1934,-354,-46000,13000,156000,199360,
1448,-18784,31272,-3081,2632,-442,-47000,13000,155000,199372,
1628,-18820,31156,-2637,2732,-452,-47000,13000,155000,199374,
2096,-18712,30500,-203,3249,-542,-47000,13000,155000,199387,
2184,-18708,30328,209,3357,-599,-47000,13000,155000,199389,
2280,-18732,30488,676,3416,-666,-47000,13000,155000,199391,
2672,-18652,29512,2801,3717,-1162,-46000,13000,155000,199404,
2668,-18536,29448,3181,3761,-1249,-46000,13000,155000,199406,
2636,-18604,29252,3543,3861,-1345,-46000,13000,155000,199408,
2844,-18324,28844,5604,4250,-1913,-46000,14000,154000,199421,
2924,-18368,28552,5939,4327,-2055,-45000,14000,154000,199423,
2984,-18300,28632,6299,4399,-2172,-45000,14000,154000,199425,
2560,-17684,27744,8061,4737,-2956,-45000,14000,153000,199438,
2424,-17604,27532,8380,4775,-3067,-45000,14000,153000,199440,
2312,-17552,27352,8628,4790,-3213,-44000,14000,153000,199443,
1712,-17328,26308,10065,4499,-3947,-43000,13000,153000,199455,
1400,-17028,25956,10273,4383,-4072,-43000,13000,153000,199457,
936,-16948,25112,11446,3457,-4839,-42000,13000,152000,199470,
800,-16712,25044,11659,3226,-4983,-42000,13000,152000,199472,
588,-16700,24856,11886,2965,-5143,-42000,13000,152000,199474,
160,-16632,23740,12990,1738,-6072,-41000,13000,151000,199487,
280,-16616,23544,13135,1506,-6246,-41000,13000,151000,199489,
-28,-16620,23204,13241,1254,-6431,-40000,13000,151000,199491,
-200,-16872,21964,13965,30,-7436,-39000,12000,151000,199504,
-260,-16928,21708,14011,-137,-7594,-39000,12000,150000,199506,
-352,-16904,21456,14223,-288,-7759,-39000,12000,150000,199508,
-440,-16644,20548,14724,-1060,-8681,-37000,11000,150000,199521,
-524,-16476,20532,14816,-1168,-8789,-37000,11000,150000,199523,
-1020,-16128,19896,15170,-1994,-9417,-36000,10000,149000,199536,
-1124,-16132,19784,15244,-2164,-9483,-36000,10000,149000,199538,
-1268,-16036,19716,15294,-2354,-9609,-35000,10000,149000,199540,
-1936,-16024,19468,15631,-3690,-10252,-34000,9000,148000,199553,
-2052,-15972,19492,15690,-3914,-10379,-34000,9000,148000,199555,
-2328,-15892,18796,15983,-5235,-11017,-32000,8000,147000,199568,
-2320,-15860,18596,16031,-5399,-11124,-32000,8000,147000,199570,
-2412,-15736,18496,16079,-5573,-11259,-32000,8000,147000,199572,
-2440,-15264,17656,16393,-6156,-11814,-30000,7000,147000,199585,
-2408,-15288,17648,16457,-6192,-11887,-30000,6000,146000,199587,
-2464,-14768,16900,16816,-6098,-12341,-29000,5000,146000,199599,
-2460,-14608,16880,16877,-6022,-12294,-28000,5000,146000,199602,
-2560,-14612,16744,16918,-5984,-12309,-28000,5000,145000,199604,
-2836,-14140,16288,17233,-5512,-12538,-27000,4000,145000,199616,
-2936,-14108,16020,17291,-5400,-12547,-26000,4000,144000,199619,
-3176,-13516,15556,17613,-4771,-12466,-25000,3000,144000,199631,
-3188,-13508,15236,17678,-4650,-12443,-25000,3000,143000,199633,
-3252,-13404,15216,17743,-4497,-12339,-24000,3000,143000,199636,
-3404,-12436,14572,18010,-3806,-12071,-23000,2000,142000,199648,
-3464,-12332,14488,18065,-3700,-12001,-22000,2000,142000,199651,
-3648,-11992,13700,18160,-3168,-11621,-21000,1000,141000,199663,
-3700,-11812,13760,18180,-2999,-11555,-21000,1000,141000,199665,
-3704,-11800,13492,18190,-2845,-11462,-20000,1000,141000,199668,
-3696,-11144,12840,18243,-1912,-10860,-19000,0,140000,199680,
-3728,-11064,12768,18240,-1749,-10706,-18000,0,140000,199682,
-3756,-10676,12656,18263,-1582,-10590,-18000,0,140000,199685,
-3868,-9216,12648,18075,-950,-9904,-16000,0,139000,199697,
-3900,-8960,12736,17993,-953,-9773,-16000,0,139000,199699,
-4076,-8504,12980,17911,-914,-9649,-16000,0,138000,199702,
-4508,-6980,13796,17460,-1517,-9066,-14000,0,138000,199714,
-4492,-7036,13792,17388,-1692,-8958,-14000,0,137000,199716,
-4848,-6640,14220,17016,-2913,-8657,-12000,0,137000,199729,
-4884,-6652,14188,16947,-3141,-8607,-12000,0,137000,199731,
-4880,-6736,14148,16903,-3365,-8564,-12000,0,136000,199733,
-4304,-7044,13168,16679,-3884,-8300,-10000,0,136000,199746,
-4224,-7068,12600,16660,-3830,-8229,-10000,-1000,136000,199748,
-4052,-7080,12440,16662,-3753,-8183,-10000,-1000,136000,199750,
-3256,-5996,11512,16537,-3027,-7868,-8000,-1000,135000,199763,
-3156,-5784,11544,16471,-2845,-7820,-8000,-1000,135000,199765,
-3236,-5576,11344,16419,-2632,-7754,-8000,-1000,135000,199767,
-2948,-4272,10668,15982,-1531,-7269,-6000,-1000,134000,199780,
-3168,-4136,10888,15913,-1346,-7179,-6000,-1000,134000,199782,
-3616,-3692,10244,15427,-536,-6609,-5000,-1000,133000,199795,
-3556,-3792,10268,15296,-473,-6478,-4000,-1000,133000,199797,
-3660,-3720,10000,15170,-373,-6386,-4000,-1000,133000,199799,
-3624,-3316,9588,14568,28,-5784,-3000,-1000,132000,199812,
-3656,-3260,9588,14520,108,-5662,-3000,-1000,132000,199814,
-3608,-3220,9680,14528,218,-5590,-2000,-1000,132000,199816,
-3532,-2760,9104,13868,547,-4946,-1000,-1000,132000,199829,
-3512,-2572,9000,13803,550,-4807,-1000,-1000,132000,199831,
-3424,-2452,8948,13700,543,-4677,-1000,-1000,132000,199833,
-3348,-1264,8528,12964,551,-4089,0,-1000,131000,199846,
-3348,-1152,8276,12811,545,-3956,0,-1000,131000,199848,
-3340,-980,8112,12650,570,-3832,0,-1000,131000,199850,
-3432,-728,7660,11786,427,-3194,1000,0,131000,199863,
-3444,-628,7412,11640,374,-3083,1000,0,131000,199865,
-3352,-668,7444,11447,298,-2969,2000,0,131000,199867,
-3304,-656,7520,11297,217,-2891,2000,0,131000,199869,
-3260,160,7468,10272,-416,-2508,3000,0,130000,199882,
-3052,164,7416,10062,-527,-2466,3000,0,130000,199884,
-2992,372,7708,9857,-630,-2419,3000,0,130000,199886,
-2360,968,7980,8885,-1246,-2250,4000,0,130000,199899,
-2200,1128,7968,8722,-1299,-2212,4000,0,130000,199901,
-2272,1396,8000,8553,-1379,-2175,4000,0,130000,199903,
-1612,1604,8100,7663,-1518,-1889,5000,0,130000,199916,
-1548,1776,8044,7467,-1469,-1843,5000,0,130000,199918,
-1416,1668,8156,7337,-1456,-1776,5000,0,130000,199920,
-1196,2080,8064,6521,-1182,-1411,6000,0,130000,199933,
-1160,2096,8240,6385,-1136,-1364,6000,0,130000,199935,
-1152,2180,8272,6245,-1066,-1272,6000,0,130000,199937,
-708,2992,8680,5375,-845,-987,7000,0,129000,199950,
-536,3120,8652,5224,-814,-964,7000,0,129000,199952,
-508,3268,8704,5072,-737,-914,7000,0,129000,199954,
-284,3356,8964,4928,-684,-903,7000,0,129000,199957,
-376,3636,9396,4163,-611,-594,8000,0,129000,199969,
-376,3636,9324,4033,-622,-559,8000,0,129000,199971,
-432,3652,9520,3935,-606,-528,8000,0,129000,199974,
-616,3272,9784,3271,-784,-369,8000,0,129000,199986,
-608,3176,9744,3152,-875,-350,8000,0,129000,199988,
-424,3260,9832,3063,-897,-355,8000,0,129000,199991,
-344,3252,10024,2933,-948,-362,8000,0,129000,199993,
96,3896,10664,2422,-1112,-332,9000,0,129000,200005,
148,4028,10756,2307,-1135,-342,9000,0,129000,200007,
196,4072,11072,2236,-1145,-290,9000,-1000,129000,200010,
612,4724,12040,1618,-1184,-231,9000,-1000,129000,200022,
640,4648,12040,1534,-1205,-203,9000,-1000,129000,200024,
552,4632,12252,1413,-1179,-190,9000,-1000,129000,200027,
444,4132,12860,933,-1220,-128,9000,-1000,129000,200039,
396,4072,12888,863,-1228,-144,9000,-1000,129000,200041,
444,4124,13164,795,-1250,-131,9000,-1000,129000,200044,
444,3852,13396,456,-1339,-124,9000,-1000,129000,200056,
524,3944,13260,425,-1364,-79,9000,-1000,129000,200058,
500,3908,13412,354,-1415,-85,9000,-1000,129000,200061,
552,4032,13916,46,-1743,-98,9000,-1000,129000,200073,
604,4044,14156,10,-1797,-79,9000,-1000,129000,200075,
640,4060,14200,-72,-1881,-111,9000,-1000,129000,200078,
864,4112,14096,-276,-2034,-96,9000,-1000,129000,200090,
852,4004,14368,-318,-2013,-60,9000,-1000,129000,200092,
1012,3972,14340,-357,-2009,-63,9000,-2000,129000,200094,
1188,3840,14768,-509,-2053,5,9000,-2000,129000,200107,
1188,3704,15000,-537,-2022,22,9000,-2000,129000,200109,
1212,3784,14944,-547,-2034,23,9000,-2000,129000,200111,
1268,3456,15284,-676,-1959,39,9000,-2000,129000,200124,
1220,3372,15528,-655,-1952,68,9000,-2000,129000,200126,
1232,3384,15412,-695,-1927,87,9000,-2000,129000,200128,
1456,2924,15812,-620,-1742,233,9000,-2000,129000,200141,
1172,2864,15744,-588,-1673,248,9000,-2000,129000,200143,
1284,2728,15812,-577,-1657,243,9000,-2000,129000,200145,
1424,2832,15856,-449,-1373,477,9000,-2000,129000,200158,
1452,2968,15824,-454,-1339,519,9000,-2000,129000,200160,
1604,3028,15876,-436,-1338,530,9000,-3000,129000,200162,
1752,3392,16364,-376,-1163,715,9000,-3000,129000,200175,
1736,3424,16380,-429,-1125,722,9000,-3000,129000,200177,
1780,3372,16372,-413,-1090,778,9000,-3000,129000,200179,
1720,3024,16424,-467,-769,949,9000,-3000,129000,200192,
1720,2900,16368,-457,-728,976,9000,-3000,129000,200194,
1604,2892,16580,-429,-685,991,9000,-3000,129000,200196,
1716,3104,16672,-337,-588,1058,9000,-3000,129000,200208,
1608,3016,16884,-311,-606,1025,9000,-3000,129000,200211,
1632,3128,16840,-310,-590,1034,9000,-3000,129000,200213,
1660,3100,16900,-252,-579,959,9000,-3000,129000,200225,
1804,3016,17044,-239,-561,976,9000,-3000,129000,200228,
1644,2984,16888,-241,-571,984,9000,-3000,129000,200230,
1680,3040,16844,-228,-664,919,9000,-3000,129000,200243,
1684,3012,16948,-228,-680,935,9000,-3000,129000,200245,
1512,3112,16792,-249,-713,924,9000,-3000,129000,200247,
1920,3136,16728,-291,-855,765,9000,-3000,129000,200259,
2036,2980,16776,-262,-866,740,9000,-3000,129000,200262,
1924,3048,16804,-241,-911,708,9000,-3000,129000,200264,
2032,2936,16888,-154,-924,606,9000,-3000,129000,200276,
2108,2976,16888,-99,-905,578,9000,-3000,129000,200279,
2064,2888,16852,-101,-872,587,9000,-3000,129000,200281,
2228,2908,16744,-59,-618,545,9000,-4000,130000,200293,
2164,3100,16716,-50,-532,552,9000,-4000,130000,200296,
2272,3020,16820,-20,-477,532,9000,-4000,130000,200298,
2088,3076,16948,32,-196,503,9000,-4000,130000,200310,
2224,3064,17000,41,-133,499,9000,-4000,130000,200313,
2120,2980,16876,34,-85,468,9000,-4000,130000,200315,
2224,2936,17044,59,-49,443,9000,-4000,130000,200317,
2120,2904,16940,105,263,430,9000,-4000,130000,200330,
2304,2620,16928,138,311,420,9000,-4000,130000,200332,
2240,2656,17092,161,368,401,9000,-4000,130000,200334,
1936,2576,16624,237,565,410,9000,-4000,130000,200347,
1964,2488,16744,230,608,386,9000,-4000,130000,200349,
1884,2512,16676,237,615,402,9000,-4000,130000,200351,
1804,2516,16612,225,626,401,9000,-4000,130000,200353,
1788,2712,16564,226,504,348,9000,-4000,130000,200366,
1824,2780,16464,214,457,352,9000,-4000,130000,200368,
1736,2804,16400,186,437,353,9000,-4000,130000,200370,
1748,2748,16680,116,171,314,9000,-4000,130000,200383,
1708,2728,16688,112,143,295,9000,-4000,130000,200385,
1724,2740,16552,124,89,290,9000,-4000,130000,200387,
1972,2440,16580,102,73,356,9000,-4000,130000,200400,
1860,2404,16536,90,91,378,9000,-4000,130000,200402,
2040,2568,16564,130,115,403,9000,-4000,130000,200404,
1948,2504,16396,128,129,411,9000,-4000,130000,200407,
1860,2688,16276,118,268,438,9000,-4000,130000,200419,
1880,2668,16208,97,259,405,9000,-4000,130000,200421,
1824,2648,16236,63,270,422,9000,-4000,130000,200424,
1724,2612,16416,8,91,306,9000,-4000,130000,200436,
1636,2572,16388,-25,50,288,9000,-4000,130000,200438,
1736,2516,16352,-55,-4,254,9000,-4000,130000,200441,
1784,2620,16416,-70,-33,257,9000,-4000,130000,200443,
1928,2340,16496,-48,-106,184,9000,-4000,130000,200455,
1840,2396,16388,-64,-134,213,9000,-4000,130000,200457,
1864,2332,16492,-30,-104,202,9000,-4000,130000,200460,
1956,2368,16172,11,36,242,9000,-4000,130000,200472,
1964,2344,16112,18,69,243,9000,-4000,130000,200474,
1992,2432,16072,47,124,232,9000,-4000,130000,200477,
