Ax,Ay,Az,Gx,Gy,Gz,Roll,Pitch,Yaw,Timestamp,Target
-4948,-5100,14136,-479,175,-215,-28000,19000,100000,828942,
-5096,-5112,14128,-482,112,-243,-28000,19000,100000,828955,
-5164,-5168,14088,-452,167,-249,-28000,19000,100000,828957,
-5048,-5164,14168,-476,87,-265,-28000,19000,100000,828960,
-5164,-5148,13828,-467,157,-290,-28000,19000,100000,828972,
-5152,-5140,14048,-428,80,-296,-28000,19000,100000,828975,
-4992,-5116,13952,-426,159,-289,-28000,19000,100000,828977,
-5148,-5076,14028,-458,85,-340,-28000,19000,100000,828990,
-5140,-5112,13956,-435,131,-332,-28000,19000,100000,828992,
-5180,-5020,13992,-391,69,-352,-28000,19000,100000,828994,
-5148,-5044,14092,-467,77,-368,-28000,19000,100000,829007,
-5196,-5020,14064,-412,5,-325,-28000,19000,100000,829009,
-5276,-5124,14032,-431,40,-361,-28000,19000,100000,829012,
-5224,-5068,13816,-455,-33,-345,-28000,19000,100000,829024,
-5192,-5092,13952,-464,-21,-346,-28000,19000,100000,829026,
-5264,-5008,14016,-465,-5,-286,-280,5244,14096,-271,
6668,3472,12708,-1466,-1626,623,14000,-16000,148000,831340,
6808,3376,12844,-1520,-1575,604,14000,-16000,148000,831342,
-5288,-5124,14156,-504,63,-299,-28000,19000,100000,829063,
-5288,-5292,14000,-521,110,-208,-28000,19000,100000,829076,
-5288,-5244,13932,-491,56,-216,-28000,19000,100000,829078,
-5256,-5212,13996,-517,129,-200,-28000,19000,100000,829080,
-5264,-5236,14152,-477,169,-184,-28000,19000,100000,829093,
-5220,-5304,13920,-539,172,-176,-28000,19000,100000,829095,
-5252,-5256,13948,-484,142,-140,-28000,19000,100000,829098,
-5168,-5168,14052,-529,244,-142,-28000,19000,100000,829110,
-5224,-5248,14004,-506,247,-155,-28000,19000,100000,829113,
-5172,-5232,14092,-477,269,-148,-28000,19000,100000,829115,
-5112,-5160,14008,-456,280,-108,-28000,19000,100000,829128,
-5196,-5184,14052,-554,267,-117,-28000,19000,100000,829130,
-5288,-5308,14104,-497,239,-89,-28000,19000,100000,829132,
-5216,-5244,13996,-491,259,-48,-28000,19000,100000,829145,
-5196,-5208,14060,-496,186,-36,-28000,19000,100000,829147,
-5228,-5260,14032,-502,185,9,-28000,19000,100000,829150,
-5124,-5280,14012,-487,170,37,-28000,19000,100000,829162,
-5072,-5196,14060,-510,134,44,-28000,19000,100000,829165,
-5008,-5272,14148,-501,125,64,-28000,19000,100000,829167,
-5116,-5096,14052,-514,153,41,-28000,19000,100000,829179,
-4944,-5184,14188,-505,157,79,-28000,19000,100000,829182,
-4928,-5332,14048,-514,158,72,-28000,19000,100000,829184,
-4956,-5112,14024,-479,120,58,-28000,19000,100000,829197,
-4916,-5080,14144,-461,197,67,-28000,19000,100000,829199,
-4868,-5012,14208,-523,127,58,-28000,19000,100000,829201,
-4944,-4980,14220,-514,176,-26,-28000,19000,100000,829214,
-4964,-5032,14052,-496,189,-52,-28000,19000,100000,829216,
-4904,-5100,14160,-541,208,-45,-28000,19000,100000,829218,
-5040,-5264,14148,-501,149,-93,-28000,19000,100000,829231,
-4968,-5172,14080,-417,167,-103,-28000,19000,100000,829233,
-4984,-5372,14064,-461,192,-102,-28000,19000,100000,829235,
-5052,-5160,14316,-387,134,-107,-28000,19000,100000,829248,
-5112,-5336,14160,-425,133,-153,-28000,19000,100000,829250,
-5128,-5152,13964,-394,125,-120,-28000,19000,100000,829252,
-5016,-5172,14212,-390,162,-177,-28000,19000,100000,829265,
-5104,-5224,14060,-368,123,-206,-28000,19000,100000,829267,
-5096,-5148,14004,-339,151,-225,-28000,19000,100000,829269,
-5148,-5196,13908,-329,156,-234,-28000,19000,100000,829282,
-5144,-5168,14076,-379,125,-277,-28000,19000,100000,829284,
-5172,-5044,13952,-331,143,-264,-28000,19000,100000,829287,
-5300,-5164,14068,-400,145,-264,-28000,19000,100000,829299,
-5072,-5144,14044,-348,168,-255,-28000,19000,100000,829302,
-5324,-5196,13900,-389,118,-289,-28000,19000,100000,829304,
-5276,-5216,13940,-357,115,-219,-28000,19000,100000,829317,
-5236,-5104,14012,-396,97,-229,-28000,19000,100000,829319,
-5328,-5136,13912,-373,146,-210,-28000,19000,100000,829321,
-5332,-5048,13828,-463,83,-146,-28000,19000,100000,829334,
-5284,-5108,13956,-415,105,-155,-28000,19000,100000,829336,
-5208,-5128,13984,-480,64,-111,-28000,19000,100000,829339,
-5312,-4908,13888,-476,85,-88,-28000,19000,100000,829351,
-5200,-4984,14136,-514,122,-39,-28000,19000,100000,829353,
-5200,-4996,13868,-517,105,-85,-28000,19000,100000,829356,
-5216,-5064,14068,-521,154,-50,-28000,19000,100000,829368,
-5228,-4964,14148,-534,150,-73,-28000,19000,100000,829371,
-5164,-5004,13976,-545,114,-73,-28000,19000,100000,829373,
-5156,-4988,14052,-586,170,-98,-28000,19000,100000,829386,
-5200,-5080,14108,-538,176,-92,-28000,19000,100000,829388,
-5104,-5148,14036,-604,113,-81,-28000,19000,100000,829390,
-5172,-5160,14056,-505,194,-109,-28000,19000,100000,829403,
-5216,-5188,14112,-565,115,-88,-28000,19000,100000,829405,
-5148,-5264,14084,-513,170,-87,-28000,19000,100000,829408,
-5076,-5240,14152,-504,93,-91,-28000,19000,100000,829420,
-5068,-5160,14104,-474,144,-132,-28000,19000,100000,829422,
-5148,-5176,14036,-540,80,-161,-28000,19000,100000,829425,
-5064,-5188,14180,-444,111,-167,-28000,19000,100000,829437,
-5076,-5176,14172,-485,81,-182,-28000,19000,100000,829440,
-5080,-5180,14084,-450,124,-185,-28000,19000,100000,829442,
-5100,-5124,14048,-457,59,-187,-28000,19000,100000,829455,
-5112,-5144,14180,-421,92,-215,-28000,19000,100000,829457,
-5008,-5196,13984,-462,38,-197,-28000,19000,100000,829459,
-5044,-5284,14128,-447,86,-178,-28000,19000,100000,829472,
-5056,-5116,14008,-407,44,-201,-28000,19000,100000,829474,
-5136,-5148,13996,-457,43,-211,-28000,19000,100000,829476,
-5208,-5192,14032,-400,93,-208,-28000,19000,100000,829489,
-5064,-5136,14112,-446,27,-196,-28000,19000,100000,829491,
-5192,-5196,14064,-399,65,-181,-28000,19000,100000,829494,
-5176,-5244,13952,-449,20,-216,-28000,19000,100000,829506,
-5060,-5272,14080,-384,118,-142,-28000,19000,100000,829509,
-5200,-5228,14136,-443,67,-199,-28000,19000,100000,829511,
-5120,-5160,14048,-418,155,-164,-28000,19000,100000,829523,
-5216,-5188,14004,-427,75,-160,-28000,19000,100000,829526,
-5088,-5204,13968,-384,128,-151,-28000,19000,100000,829528,
-5176,-5092,13988,-412,91,-154,-28000,19000,100000,829541,
-5228,-5168,14056,-414,194,-180,-28000,19000,100000,829543,
-5292,-5068,14052,-463,117,-146,-28000,19000,100000,829545,
-5164,-5124,14144,-389,183,-124,-28000,19000,100000,829558,
-5228,-5072,13932,-456,135,-114,-28000,19000,100000,829560,
-5224,-4992,14020,-407,181,-88,-28000,19000,100000,829562,
-5248,-5068,13952,-478,107,-103,-28000,19000,100000,829575,
-5140,-5172,13976,-446,144,-99,-28000,19000,100000,829577,
-5236,-5072,13980,-460,108,-64,-28000,19000,100000,829580,
-5124,-5120,13996,-490,115,-47,-28000,19000,100000,829592,
-5108,-5100,14084,-465,102,-34,-28000,19000,100000,829594,
-5188,-5040,14120,-491,166,-30,-28000,19000,100000,829597,
-5224,-5028,14060,-502,79,-65,-28000,19000,100000,829609,
-5080,-5064,14072,-490,160,-59,-28000,19000,100000,829612,
-5112,-5188,14108,-518,68,-50,-28000,19000,100000,829614,
-5208,-5180,14144,-492,123,-15,-28000,19000,100000,829627,
-5088,-5240,14156,-515,59,-36,-28000,19000,100000,829629,
-5104,-5192,14184,-462,122,-21,-28000,19000,100000,829631,
-5152,-5176,14092,-486,90,-32,-28000,19000,100000,829644,
-5192,-5212,14156,-443,148,-48,-28000,19000,100000,829646,
-5068,-5232,14112,-483,82,-50,-28000,19000,100000,829648,
-5068,-5256,14012,-424,155,-58,-28000,19000,100000,829661,
-5056,-5172,14084,-451,103,-81,-28000,19000,100000,829663,
-5048,-5144,14068,-401,178,-97,-28000,19000,100000,829666,
-5072,-5128,14112,-413,139,-142,-28000,19000,100000,829678,
-5040,-5152,14032,-366,185,-137,-28000,19000,100000,829680,
-5108,-5100,14120,-429,158,-184,-28000,19000,100000,829683,
-5112,-5088,14004,-366,211,-215,-28000,19000,100000,829695,
-5132,-5160,14100,-415,162,-225,-28000,19000,100000,829698,
-5152,-5168,14016,-405,202,-249,-28000,19000,100000,829700,
-5156,-5120,13984,-383,150,-226,-28000,19000,100000,829713,
-5160,-5056,14068,-402,147,-275,-28000,19000,100000,829715,
-5128,-5156,13816,-374,91,-255,-28000,19000,100000,829717,
-5296,-4988,13796,-427,22,-239,-28000,19000,100000,829730,
-5240,-5148,13984,-414,-37,-210,-28000,19000,100000,829732,
-5292,-5080,14008,-420,62,-222,-28000,19000,100000,829735,
-5352,-5148,13936,-445,-76,-140,-28000,19000,100000,829747,
-5252,-5076,13984,-405,-34,-135,-28000,19000,100000,829750,
-5260,-5092,14160,-461,-95,-126,-28000,19000,100000,829752,
-5132,-5196,14056,-457,-31,-60,-28000,19000,100000,829765,
-5132,-5156,14144,-482,7,-53,-28000,19000,100000,829767,
-5212,-5144,14028,-489,-75,-43,-28000,19000,100000,829769,
-5148,-5080,13996,-502,63,-24,-28000,19000,100000,829782,
-5128,-5220,13996,-443,89,-29,-28000,19000,100000,829784,
-5208,-5064,14044,-490,103,-10,-28000,19000,100000,829787,
-5132,-5196,13984,-499,142,-2,-28000,19000,100000,829799,
-5208,-5260,14188,-453,196,16,-28000,19000,100000,829801,
-5120,-5188,14048,-472,216,-1,-28000,19000,100000,829804,
-5168,-5248,14048,-446,195,22,-28000,19000,100000,829816,
-5252,-5124,14016,-420,287,5,-28000,19000,100000,829818,
-5212,-5132,14076,-462,220,25,-28000,19000,100000,829821,
-5208,-5160,14060,-412,252,20,-28000,19000,100000,829833,
-5212,-5152,14096,-455,223,7,-28000,19000,100000,829835,
-5156,-5124,14008,-416,265,10,-28000,19000,100000,829838,
-5164,-5092,14148,-457,140,-27,-28000,19000,100000,829850,
-5200,-5168,13948,-402,215,-9,-28000,19000,100000,829853,
-5220,-5080,14120,-478,169,-32,-28000,19000,100000,829855,
-5108,-5144,14028,-418,126,-4,-28000,19000,100000,829868,
-5256,-5044,14072,-456,120,-68,-28000,19000,100000,829870,
-5132,-5096,13912,-441,114,-7,-28000,19000,100000,829872,
-5260,-5084,13980,-466,49,-36,-28000,19000,100000,829885,
-5204,-5008,13992,-472,-22,12,-28000,19000,100000,829887,
-5172,-5108,14060,-429,34,3,-28000,19000,100000,829890,
-5228,-5136,13996,-441,10,61,-28000,19000,100000,829902,
-5120,-5012,13976,-488,-52,39,-28000,19000,100000,829904,
-5052,-5080,13952,-443,-3,52,-28000,19000,100000,829907,
-5056,-4940,14080,-524,-26,6,-28000,19000,100000,829919,
-5012,-5072,14012,-479,42,24,-28000,19000,100000,829921,
-4920,-5052,14148,-548,-40,-5,-28000,19000,100000,829924,
-5052,-4996,14080,-515,109,-7,-28000,19000,100000,829936,
-5068,-5148,14040,-576,49,-34,-28000,19000,100000,829939,
-5220,-5152,14136,-495,111,-52,-28000,19000,100000,829941,
-5088,-5168,14016,-539,113,-46,-28000,19000,100000,829953,
-5164,-5212,14160,-502,166,-27,-28000,19000,100000,829956,
-5096,-5244,14192,-544,103,-46,-28000,19000,100000,829958,
-5152,-5240,14192,-429,160,-11,-28000,19000,100000,829971,
-5284,-5156,14032,-507,109,23,-28000,19000,100000,829973,
-5156,-5196,14124,-450,194,66,-28000,19000,100000,829975,
-5116,-5176,14000,-483,99,1,-28000,19000,100000,829988,
-5188,-5168,13996,-431,156,6,-28000,19000,100000,829990,
-5140,-5196,14036,-454,166,1,-28000,19000,100000,829993,
-5088,-5084,14028,-415,164,82,-28000,19000,100000,830005,
-5056,-5136,14008,-432,196,62,-28000,19000,100000,830007,
-5152,-5096,14068,-423,191,66,-28000,19000,100000,830010,
-5104,-5092,14068,-460,206,27,-28000,19000,100000,830022,
-5112,-5112,14064,-403,239,8,-28000,19000,100000,830025,
-5136,-5112,13940,-454,214,-10,-28000,19000,100000,830027,
-5216,-5036,14168,-458,187,-36,-28000,19000,100000,830040,
-5100,-5156,13984,-457,211,-8,-28000,19000,100000,830042,
-5224,-5088,13928,-455,133,17,-28000,19000,100000,830044,
-5252,-5076,14076,-468,116,-52,-28000,19000,100000,830057,
-5248,-5032,13880,-462,133,-66,-28000,19000,100000,830059,
-5204,-5028,13940,-492,58,-23,-28000,19000,100000,830061,
-5164,-5012,13964,-497,25,-47,-28000,19000,100000,830074,
-5248,-5016,13988,-469,6,-59,-28000,19000,100000,830076,
-5196,-4972,13848,-485,27,-46,-28000,19000,100000,830079,
-5144,-5020,14012,-476,-21,-95,-28000,19000,100000,830091,
-5144,-5024,13964,-513,-47,-75,-28000,19000,100000,830094,
-5152,-5008,14012,-484,30,-86,-28000,19000,100000,830096,
-5188,-5052,14012,-460,4,-84,-28000,19000,100000,830109,
-5128,-5060,14052,-511,-64,-92,-28000,19000,100000,830111,
-5128,-5064,14012,-459,38,-95,-28000,19000,100000,830113,
-5288,-5040,14024,-415,16,-130,-27000,19000,100000,830126,
-5240,-5104,14036,-460,40,-143,-27000,19000,100000,830128,
-5160,-4940,14108,-422,56,-143,-27000,19000,100000,830130,
-5180,-5004,14096,-500,113,-151,-27000,19000,100000,830143,
-5108,-5020,14064,-429,124,-139,-27000,19000,100000,830145,
-5232,-5060,14088,-461,129,-160,-27000,19000,100000,830147,
-5268,-5060,14112,-441,113,-167,-27000,19000,100000,830160,
-5228,-5128,14016,-464,116,-205,-27000,19000,100000,830162,
-5284,-5184,14080,-462,93,-143,-27000,19000,100000,830165,
-5144,-5144,13960,-461,140,-101,-27000,19000,100000,830177,
-5144,-5084,13944,-467,86,-81,-27000,19000,100000,830180,
-5152,-5112,13884,-461,116,-81,-27000,19000,100000,830182,
-5148,-5104,13980,-486,79,-65,-27000,19000,100000,830195,
-5172,-5056,13924,-486,142,-88,-27000,19000,100000,830197,
-5168,-4968,13940,-481,105,-72,-27000,19000,100000,830199,
-5148,-5084,14012,-520,171,-88,-28000,19000,100000,830212,
-5232,-5048,13948,-530,76,-84,-28000,19000,100000,830214,
-5208,-5044,13992,-509,165,-103,-28000,19000,100000,830217,
-5176,-5056,14020,-557,40,-95,-28000,19000,100000,830229,
-5244,-5052,13996,-491,139,-123,-28000,19000,100000,830232,
-5340,-5084,13948,-556,76,-106,-28000,19000,100000,830234,
-5216,-4984,14068,-497,141,-109,-28000,19000,100000,830246,
-5156,-5052,14044,-535,81,-116,-28000,19000,100000,830249,
-5128,-5020,14072,-513,128,-108,-28000,19000,100000,830251,
-5148,-5028,13992,-495,36,-103,-28000,19000,100000,830264,
-5148,-5020,14248,-504,112,-133,-28000,19000,100000,830266,
-5156,-5116,14080,-541,31,-125,-28000,19000,100000,830268,
-5156,-5184,13988,-463,123,-107,-28000,19000,100000,830281,
-5168,-5144,14020,-513,48,-98,-28000,19000,100000,830283,
-5060,-5160,14100,-480,153,-112,-28000,19000,100000,830286,
-5060,-5120,14028,-501,53,-89,-28000,19000,100000,830298,
-5052,-5116,14108,-453,143,-139,-28000,19000,100000,830301,
-5148,-5048,14100,-502,51,-109,-28000,19000,100000,830303,
-5036,-5180,14076,-438,178,-109,-28000,19000,100000,830315,
-5092,-5172,14100,-480,107,-119,-28000,19000,100000,830318,
-5092,-5156,13932,-461,169,-108,-28000,19000,100000,830320,
-5080,-5104,14100,-451,181,-155,-28000,19000,100000,830333,
-5136,-5152,14052,-495,191,-152,-28000,19000,100000,830335,
-5124,-5056,13968,-442,188,-136,-28000,19000,100000,830337,
-5148,-5048,14052,-497,91,-155,-28000,19000,100000,830350,
-5224,-5140,14084,-451,146,-134,-28000,19000,100000,830352,
-5260,-5104,14020,-476,125,-134,-28000,19000,100000,830355,
-5236,-5148,14200,-423,69,-98,-28000,19000,100000,830367,
-5144,-5188,14128,-486,117,-114,-28000,19000,100000,830369,
-5228,-5148,14000,-449,31,-110,-28000,19000,100000,830372,
-5136,-5004,14060,-435,18,-118,-28000,19000,100000,830384,
-5184,-5096,14044,-429,60,-114,-28000,19000,100000,830387,
-5156,-5100,14000,-453,-8,-121,-28000,19000,100000,830389,
-5208,-5144,13972,-441,4,-84,-28000,19000,100000,830401,
-5152,-5088,14132,-399,-9,-98,-27000,19000,100000,830403,
-5256,-5172,13960,-407,3,-92,-27000,19000,100000,830406,
-5204,-5280,14076,-365,-26,122,-27000,19000,100000,830418,
-5220,-5292,13968,-359,65,163,-27000,19000,100000,830421,
-5176,-5268,14060,-334,59,236,-27000,19000,100000,830423,
-5288,-5396,14120,-181,177,391,-27000,19000,101000,830435,
-5244,-5436,13896,-159,269,423,-27000,19000,101000,830438,
-5204,-5436,13720,-184,341,482,-27000,19000,101000,830440,
-5812,-5420,13896,-21,976,1123,-27000,20000,101000,830452,
-5832,-5432,14108,-31,1017,1212,-27000,20000,101000,830455,
-6008,-5428,14052,85,1183,1294,-27000,20000,101000,830457,
-6660,-5420,14236,526,1335,1405,-27000,20000,101000,830470,
-6780,-5416,13952,433,1337,1490,-27000,20000,101000,830472,
7024,5288,14012,-159,-884,-502,13000,-19000,148000,831649,
7064,5404,14072,-103,-881,-502,13000,-19000,148000,831652,
7028,5396,14032,-147,-1002,-515,13000,-19000,148000,831654,
6908,5444,13752,57,-1299,-567,13000,-19000,148000,831666,
6948,5432,13776,-2,-1398,-549,13000,-19000,148000,831669,
6976,5412,13808,99,-1390,-543,13000,-19000,148000,831671,
7268,5420,13588,176,-1325,-509,13000,-20000,148000,831683,
7148,5328,13564,270,-1205,-483,13000,-20000,148000,831686,
7336,5412,13424,213,-1121,-502,13000,-20000,148000,831688,
7552,5436,13448,298,-442,-530,13000,-20000,148000,831700,
7616,5468,13572,265,-285,-568,13000,-20000,148000,831703,
7624,5536,13492,244,-230,-587,13000,-20000,148000,831705,
7088,5628,13536,179,206,-650,13000,-20000,148000,831717,
7032,5668,13572,241,286,-599,13000,-20000,148000,831720,
7024,5604,13624,184,286,-591,13000,-20000,148000,831722,
6484,5584,13576,72,219,-541,14000,-20000,148000,831735,
6516,5544,13528,109,256,-518,14000,-20000,148000,831737,
6448,5540,13700,23,168,-571,14000,-20000,148000,831739,
6260,5692,13500,-23,3,-488,14000,-20000,148000,831752,
6392,5640,13328,-123,-99,-488,14000,-20000,148000,831754,
6172,5720,13424,-86,-129,-466,14000,-20000,148000,831757,
6092,5784,13764,-231,-770,-484,14000,-20000,148000,831769,
6152,5848,13636,-292,-910,-445,14000,-20000,148000,831771,
6120,5788,13712,-258,-1007,-427,14000,-20000,147000,831774,
6104,5696,13348,-235,-1688,-191,14000,-20000,147000,831786,
6204,5776,13352,-252,-1818,-152,14000,-20000,147000,831789,
6372,5748,13328,-182,-1942,-108,14000,-20000,147000,831791,
6944,5776,13264,-102,-1918,57,14000,-20000,147000,831803,
7016,5816,13260,-48,-1906,62,14000,-20000,147000,831806,
7188,5880,13088,-54,-1750,48,14000,-20000,147000,831808,
7540,6112,13472,-47,-1080,-101,14000,-21000,147000,831821,
7672,6060,13504,-102,-928,-54,14000,-21000,147000,831823,
7624,6212,13648,-137,-821,-64,14000,-21000,147000,831825,
7456,6112,13864,-274,-160,-98,14000,-21000,147000,831838,
7268,6084,13760,-277,-146,-97,14000,-21000,147000,831840,
7308,6060,13712,-283,7,-141,14000,-21000,147000,831843,
6996,5984,13496,-352,213,-79,14000,-21000,147000,831855,
6876,5876,13384,-309,292,-47,14000,-21000,147000,831857,
6928,5872,13356,-357,219,-61,14000,-21000,147000,831860,
6824,5840,13388,-169,93,48,14000,-21000,147000,831872,
6864,5700,13304,-211,-38,40,14000,-21000,147000,831874,
6808,5900,13292,-114,-33,82,14000,-21000,147000,831877,
6724,6044,13504,-186,-314,226,14000,-21000,147000,831889,
6812,5984,13476,-133,-343,177,14000,-21000,147000,831891,
6892,6032,13648,-172,-382,174,14000,-21000,147000,831894,
7048,6032,13568,-156,-578,149,14000,-21000,147000,831906,
7216,5956,13468,-210,-606,137,14000,-21000,147000,831908,
7080,5936,13652,-186,-628,158,14000,-21000,147000,831911,
7220,5904,13324,-200,-577,144,14000,-21000,147000,831923,
7216,5916,13412,-149,-504,186,14000,-21000,147000,831925,
7180,5956,13336,-204,-529,157,14000,-21000,147000,831928,
7252,5896,13512,-113,-364,121,14000,-21000,147000,831940,
7320,6064,13472,-65,-258,139,14000,-21000,147000,831942,
7424,6028,13492,-87,-282,91,14000,-21000,147000,831945,
7324,5988,13232,-42,88,76,14000,-21000,147000,831957,
7296,5852,13388,-110,103,70,14000,-21000,147000,831960,
7344,5956,13348,-74,191,77,14000,-21000,147000,831962,
7308,5904,13276,-115,183,98,14000,-21000,147000,831964,
7168,5884,13260,-115,459,167,14000,-21000,147000,831977,
7104,5848,13248,-139,431,196,14000,-21000,147000,831979,
7240,5904,13056,-113,544,240,14000,-21000,147000,831981,
7232,5968,13340,-205,474,326,14000,-21000,147000,831994,
7180,5884,13216,-204,540,371,14000,-21000,147000,831996,
7084,5968,13204,-200,468,359,14000,-21000,147000,831999,
7148,5956,13120,-196,522,425,14000,-21000,147000,832011,
7132,5812,13248,-221,392,447,14000,-21000,147000,832013,
7164,5840,13092,-166,475,439,14000,-21000,147000,832016,
7232,5720,13328,-184,320,458,15000,-21000,147000,832028,
7400,5888,13244,-132,422,432,15000,-21000,147000,832031,
7244,5832,13332,-179,342,458,15000,-21000,147000,832033,
7216,5896,13372,-163,351,424,15000,-21000,147000,832046,
7252,5808,13264,-184,251,430,15000,-21000,147000,832048,
7176,5876,13364,-215,252,431,15000,-21000,147000,832050,
7356,5716,13380,-176,121,430,15000,-21000,147000,832063,
7312,5688,13252,-206,103,412,15000,-21000,147000,832065,
7208,5712,13432,-188,50,408,15000,-21000,147000,832067,
7496,5664,13252,-118,258,399,15000,-21000,147000,832080,
7476,5776,13276,-169,189,394,15000,-21000,147000,832082,
7488,5708,13308,-100,314,358,15000,-21000,147000,832084,
7312,5668,13360,-146,384,287,15000,-21000,147000,832097,
7252,5692,13236,-138,469,308,15000,-21000,147000,832099,
7288,5640,13352,-204,397,272,15000,-21000,147000,832102,
7320,5640,13056,-173,424,327,15000,-21000,147000,832114,
7216,5572,13128,-102,467,320,15000,-21000,147000,832117,
7168,5564,13084,-202,468,355,15000,-21000,147000,832119,
7204,5420,12912,-173,464,328,15000,-21000,147000,832131,
7068,5412,12972,-126,504,321,15000,-21000,147000,832134,
7052,5452,12944,-159,395,367,15000,-21000,147000,832136,
6964,5564,13284,-176,281,458,15000,-21000,147000,832149,
6948,5576,13372,-248,250,470,15000,-21000,147000,832151,
7060,5672,13400,-191,160,453,15000,-21000,147000,832153,
7120,5664,13408,-408,29,369,15000,-21000,147000,832166,
7236,5672,13420,-377,20,392,15000,-21000,147000,832168,
7192,5612,13428,-432,-1,349,15000,-21000,147000,832171,
7228,5332,13256,-401,-20,338,15000,-21000,147000,832183,
7320,5332,13076,-412,-19,359,15000,-21000,147000,832185,
7404,5284,13056,-371,-15,400,15000,-21000,147000,832188,
7524,5396,12956,-301,75,395,15000,-21000,148000,832200,
7484,5316,12800,-246,104,389,15000,-21000,148000,832203,
7528,5276,12872,-255,176,358,15000,-21000,148000,832205,
7692,5300,12948,-369,332,273,15000,-21000,148000,832217,
7544,5304,12840,-388,471,232,15000,-21000,148000,832220,
7644,5312,12812,-425,442,229,15000,-21000,148000,832222,
7648,5240,12924,-648,677,186,15000,-21000,148000,832234,
7388,5276,12944,-734,615,228,15000,-21000,148000,832237,
7316,5264,13012,-706,661,201,15000,-21000,148000,832239,
7012,5340,13052,-991,365,166,15000,-21000,148000,832251,
7196,5344,13084,-942,360,199,15000,-21000,148000,832254,
7156,5324,12992,-1005,271,184,14000,-21000,148000,832256,
7504,5304,12952,-990,206,124,14000,-21000,148000,832269,
7556,5292,12892,-1042,129,96,14000,-21000,148000,832271,
7636,5188,12716,-1000,201,101,14000,-21000,148000,832273,
7556,5332,12688,-934,202,21,14000,-21000,148000,832286,
7568,5296,12584,-966,202,31,14000,-21000,148000,832288,
7484,5348,12592,-914,223,28,14000,-21000,148000,832290,
7424,4984,12568,-876,286,-57,14000,-21000,148000,832303,
7452,5108,12452,-841,291,-47,14000,-21000,148000,832305,
7440,5000,12572,-828,347,-31,14000,-21000,148000,832307,
7528,4968,12356,-852,495,-81,14000,-21000,148000,832320,
7536,5072,12364,-874,552,-109,14000,-21000,148000,832322,
7412,4976,12368,-920,535,-111,14000,-21000,148000,832325,
7192,5020,12348,-1065,766,-132,14000,-21000,148000,832337,
7224,4960,12148,-1142,731,-130,14000,-21000,148000,832340,
7288,4944,11972,-1136,829,-156,14000,-21000,148000,832342,
7312,4584,11556,-1306,979,-204,14000,-21000,148000,832354,
7260,4580,11356,-1346,1114,-248,14000,-21000,148000,832357,
7280,4544,11240,-1356,1100,-282,14000,-21000,148000,832359,
7272,4280,11300,-1509,1342,-317,14000,-21000,148000,832372,
7092,4348,11016,-1457,1460,-298,14000,-21000,148000,832374,
7104,4352,10936,-1567,1430,-275,14000,-21000,148000,832376,
7084,4328,10616,-1661,1564,-138,14000,-21000,148000,832389,
7200,4204,10584,-1781,1565,-128,14000,-21000,148000,832391,
7084,4088,10596,-1757,1604,-119,14000,-21000,148000,832394,
7260,4392,10676,-2225,1917,-70,14000,-21000,148000,832406,
7300,4240,10676,-2266,1970,-77,13000,-21000,148000,832408,
7204,4248,10784,-2426,2016,-90,13000,-21000,148000,832411,
7084,4132,10984,-2851,2040,-146,13000,-21000,148000,832423,
6948,4132,10936,-2999,1941,-187,13000,-21000,148000,832426,
7044,4100,10796,-3014,1980,-170,13000,-21000,148000,832428,
7120,3740,10412,-3351,1977,-233,13000,-21000,148000,832441,
7148,3664,10304,-3355,2103,-232,13000,-21000,148000,832443,
7328,3600,10240,-3413,2091,-279,13000,-21000,148000,832445,
7436,3360,9908,-3460,2601,-584,12000,-20000,148000,832458,
7516,3288,9784,-3506,2706,-630,12000,-20000,148000,832460,
7400,3220,9792,-3526,2823,-688,12000,-20000,148000,832463,
6956,3056,10196,-3618,3111,-912,12000,-20000,148000,832475,
6852,3064,10176,-3708,3102,-914,12000,-20000,148000,832477,
6748,3076,10204,-3724,3081,-941,12000,-20000,148000,832480,
6204,3044,11160,-4038,2498,-807,11000,-20000,148000,832492,
6208,3100,11232,-4119,2387,-774,11000,-20000,148000,832495,
6112,3100,11060,-4180,2228,-725,11000,-20000,148000,832497,
6096,3404,11400,-4420,1587,-788,11000,-20000,147000,832509,
6276,3296,11244,-4425,1447,-824,11000,-20000,147000,832512,
6452,3216,11308,-4467,1381,-895,11000,-20000,147000,832514,
7044,2916,11060,-4385,1217,-1255,10000,-20000,147000,832527,
7032,2900,11292,-4440,1213,-1306,10000,-20000,147000,832529,
7052,2832,11272,-4370,1275,-1353,10000,-20000,147000,832531,
7192,2860,11372,-4383,1747,-1674,10000,-19000,147000,832544,
7068,2848,11500,-4301,1829,-1755,10000,-19000,147000,832546,
7040,2792,11356,-4338,1846,-1800,10000,-19000,147000,832548,
6724,2784,11516,-4321,2249,-1842,10000,-19000,147000,832561,
6580,2752,11436,-4356,2385,-1845,9000,-19000,147000,832563,
6664,2632,11240,-4349,2471,-1847,9000,-19000,147000,832565,
6356,2660,11368,-4565,3149,-1930,9000,-19000,147000,832578,
6208,2660,11424,-4609,3192,-1960,9000,-19000,147000,832580,
6232,2796,11336,-4733,3233,-1944,9000,-19000,147000,832583,
5740,3096,12016,-5181,3109,-1833,8000,-18000,147000,832595,
5764,3136,11932,-5322,3045,-1804,8000,-18000,147000,832598,
5772,3020,11832,-5375,3006,-1772,8000,-18000,146000,832600,
6100,3180,11668,-5886,2738,-2014,8000,-18000,146000,832612,
6116,3064,11620,-5888,2832,-2085,8000,-18000,146000,832615,
6200,2972,11676,-6011,2809,-2147,8000,-18000,146000,832617,
6552,2948,11928,-6410,3400,-2652,7000,-18000,146000,832630,
6436,2920,11840,-6433,3564,-2710,7000,-18000,146000,832632,
6656,3056,11940,-6548,3691,-2806,7000,-18000,146000,832634,
6312,2980,12128,-6891,4019,-3000,6000,-17000,146000,832647,
6336,2956,12192,-6975,4029,-3002,6000,-17000,146000,832649,
6184,3060,12268,-7029,4087,-2988,6000,-17000,146000,832652,
5568,3020,12672,-7491,4087,-2923,6000,-17000,145000,832664,
5736,2968,12864,-7549,4137,-2856,5000,-17000,145000,832667,
5732,2892,12840,-7658,4199,-2883,5000,-17000,145000,832669,
5740,2784,13120,-8187,4364,-2797,5000,-16000,145000,832681,
5680,2808,13056,-8311,4442,-2858,5000,-16000,145000,832684,
5820,2940,13040,-8390,4484,-2945,4000,-16000,145000,832686,
5704,2528,13056,-8862,4520,-3352,4000,-16000,145000,832699,
5552,2600,13128,-8941,4572,-3404,4000,-16000,144000,832701,
5548,2508,13044,-9022,4641,-3489,3000,-15000,144000,832704,
5468,2328,13360,-9497,5054,-3789,3000,-15000,144000,832716,
5452,2420,13568,-9521,5025,-3900,2000,-15000,144000,832719,
5480,2336,13356,-9606,5071,-4043,2000,-15000,144000,832721,
5084,2168,13240,-10084,5349,-4626,1000,-14000,143000,832734,
5072,2216,13484,-10259,5272,-4629,1000,-14000,143000,832736,
5000,2224,13476,-10271,5364,-4560,1000,-14000,143000,832738,
4560,1896,13792,-10813,4915,-4842,0,-14000,143000,832751,
4508,1924,13884,-10816,4858,-4937,0,-14000,143000,832753,
4296,1916,14036,-10942,4620,-5008,0,-14000,143000,832755,
3856,1388,14240,-11200,3695,-4850,0,-13000,142000,832768,
3896,1152,14412,-11273,3559,-4834,0,-13000,142000,832770,
3880,1144,14308,-11288,3426,-4848,0,-13000,142000,832772,
4020,768,14384,-11111,2718,-5233,-1000,-13000,141000,832785,
4056,788,14436,-11088,2627,-5233,-1000,-13000,141000,832787,
4100,636,14208,-11050,2705,-5221,-2000,-13000,141000,832790,
4376,416,14204,-10996,3226,-5318,-2000,-12000,141000,832802,
4576,432,14232,-10982,3464,-5346,-3000,-12000,141000,832805,
4636,440,14236,-11022,3603,-5410,-3000,-12000,140000,832807,
5000,516,14400,-11173,5178,-5722,-4000,-12000,140000,832819,
4976,552,14608,-11347,5467,-5932,-4000,-12000,140000,832822,
4956,508,14408,-11297,5740,-5991,-4000,-12000,140000,832824,
4128,-84,14900,-11711,6509,-6197,-5000,-11000,139000,832836,
3720,-56,15092,-11751,6491,-6202,-5000,-11000,139000,832839,
3632,-56,14952,-11817,6546,-6169,-5000,-11000,139000,832841,
2692,-228,15412,-12136,5775,-5834,-6000,-11000,138000,832854,
2508,-368,15316,-12200,5517,-5790,-7000,-10000,138000,832856,
2460,-292,15296,-12217,5302,-5795,-7000,-10000,138000,832858,
2536,-700,15680,-12473,3915,-5678,-8000,-10000,137000,832871,
2604,-584,15748,-12524,3607,-5741,-8000,-10000,137000,832873,
2612,-724,15644,-12540,3233,-5730,-8000,-10000,137000,832876,
3148,-1080,15404,-12562,2489,-5813,-9000,-10000,136000,832888,
3248,-1216,15120,-12589,2331,-5858,-9000,-10000,136000,832891,
4084,-1576,14860,-12342,2182,-6338,-11000,-10000,136000,832903,
4136,-1628,14888,-12320,2206,-6419,-11000,-10000,136000,832905,
4112,-1740,14836,-12250,2257,-6509,-11000,-10000,135000,832908,
4508,-2024,14752,-12233,2980,-6872,-12000,-10000,135000,832920,
4548,-1920,15108,-12162,3385,-6940,-12000,-10000,135000,832923,
4552,-2216,15080,-12301,3650,-7035,-12000,-10000,134000,832925,
4744,-2668,15268,-12358,5378,-7443,-13000,-9000,134000,832938,
4552,-2668,15364,-12447,5656,-7537,-14000,-9000,133000,832940,
4020,-2884,15244,-12514,6684,-7750,-15000,-9000,133000,832953,
3900,-3028,15092,-12544,6653,-7714,-15000,-9000,132000,832955,
3728,-3088,15328,-12608,6699,-7738,-15000,-9000,132000,832957,
2972,-3184,15684,-12739,5890,-7769,-16000,-8000,131000,832970,
2836,-3352,15976,-12661,5702,-7739,-16000,-8000,131000,832972,
2736,-3296,16188,-12618,5456,-7735,-16000,-8000,131000,832974,
2640,-3484,16552,-12562,3723,-7743,-17000,-8000,130000,832987,
2448,-3752,16780,-12620,3298,-7763,-18000,-8000,130000,832989,
2716,-3972,16884,-12189,1426,-7971,-19000,-8000,129000,833002,
2768,-4104,16932,-12196,1097,-8036,-19000,-8000,129000,833004,
2904,-4104,16888,-12089,921,-8057,-19000,-8000,129000,833006,
3732,-4484,17228,-12066,262,-8306,-20000,-9000,128000,833019,
4032,-4540,17080,-11966,476,-8342,-20000,-9000,128000,833021,
4208,-4596,17084,-12047,645,-8453,-20000,-9000,128000,833024,
5340,-5068,17192,-12030,2655,-8940,-21000,-9000,127000,833036,
5340,-5148,17124,-12104,3101,-9058,-22000,-9000,127000,833038,
5400,-5284,17120,-11991,3626,-9199,-22000,-9000,127000,833041,
5224,-5836,16956,-11969,6495,-9743,-23000,-9000,126000,833053,
5112,-5932,16888,-11902,7022,-9787,-23000,-9000,125000,833055,
4120,-6392,17296,-11673,9229,-10205,-24000,-8000,124000,833068,
3796,-6316,17028,-11768,9540,-10241,-24000,-8000,124000,833070,
3804,-6440,17116,-11677,9857,-10301,-24000,-8000,124000,833073,
2136,-7072,18172,-11617,10338,-10497,-25000,-8000,122000,833085,
1704,-7204,18132,-11464,10242,-10479,-25000,-7000,122000,833088,
1508,-7412,18496,-11387,9825,-10512,-25000,-7000,122000,833090,
40,-7828,18532,-10997,8919,-10401,-26000,-7000,120000,833103,
64,-7888,18676,-11003,8648,-10352,-26000,-7000,120000,833105,
-240,-8496,18940,-10344,7530,-10192,-27000,-7000,119000,833117,
-188,-8812,19100,-10236,7322,-10089,-27000,-7000,119000,833120,
-212,-8812,19020,-10021,7284,-10039,-28000,-7000,118000,833122,
-108,-9200,18972,-9269,6649,-9910,-28000,-6000,117000,833135,
-156,-9256,19028,-8982,6479,-9724,-28000,-6000,117000,833137,
-164,-9140,18748,-8884,6462,-9655,-29000,-6000,117000,833139,
-484,-9176,18796,-7996,6404,-8964,-29000,-6000,116000,833152,
-336,-9192,18844,-7930,6291,-8929,-29000,-6000,116000,833154,
-440,-9284,18892,-7733,6404,-8806,-29000,-6000,115000,833156,
-748,-9300,18832,-7013,6153,-8374,-30000,-6000,114000,833169,
-888,-9292,18888,-6836,6157,-8321,-30000,-6000,114000,833171,
-1300,-9328,18760,-6257,5341,-7684,-30000,-6000,113000,833184,
-1256,-9240,18924,-6111,5170,-7547,-31000,-6000,113000,833186,
-1396,-9252,18932,-6010,4971,-7479,-31000,-6000,113000,833189,
-1504,-9220,18852,-5537,3646,-7004,-31000,-6000,112000,833201,
-1576,-9204,18732,-5469,3377,-6960,-31000,-6000,112000,833203,
-1520,-9232,18912,-5410,3063,-6904,-31000,-6000,112000,833206,
-1388,-9312,18200,-4870,1968,-6379,-32000,-6000,111000,833218,
-1208,-9216,18108,-4773,1855,-6275,-32000,-6000,111000,833221,
-1048,-9300,18132,-4665,1778,-6156,-32000,-6000,111000,833223,
-504,-9300,17512,-4085,2021,-5715,-32000,-6000,111000,833236,
-512,-9340,17632,-4026,2098,-5613,-32000,-6000,110000,833238,
-8,-9196,17448,-3633,3211,-5130,-32000,-6000,110000,833250,
52,-9180,17368,-3576,3532,-5088,-32000,-6000,110000,833253,
76,-9184,17232,-3539,3699,-5021,-32000,-6000,110000,833255,
32,-9260,17028,-3269,5029,-4606,-33000,-6000,109000,833267,
-56,-9156,17092,-3154,5255,-4496,-33000,-6000,109000,833270,
-228,-9208,16940,-3091,5361,-4438,-33000,-6000,109000,833272,
-716,-9348,17180,-2744,5578,-3927,-33000,-5000,108000,833285,
-968,-9336,17116,-2684,5565,-3871,-33000,-5000,108000,833287,
-984,-9244,17140,-2608,5436,-3754,-33000,-5000,108000,833289,
-1444,-9164,17156,-2196,4605,-3232,-33000,-5000,107000,833302,
-1480,-9124,17248,-2084,4461,-3105,-33000,-5000,107000,833304,
-1508,-9108,17352,-2039,4178,-3039,-33000,-5000,107000,833306,
-1508,-8808,17020,-1560,3020,-2565,-33000,-5000,107000,833319,
-1464,-8812,17084,-1513,2730,-2450,-33000,-5000,107000,833321,
-944,-8432,16760,-1192,1808,-1956,-33000,-5000,107000,833334,
-760,-8432,16668,-1188,1602,-1870,-33000,-5000,107000,833336,
-700,-8352,16616,-1166,1522,-1810,-33000,-5000,107000,833339,
-160,-8244,16380,-1033,1223,-1499,-33000,-5000,106000,833351,
-104,-8200,16432,-1005,1302,-1465,-33000,-5000,106000,833354,
8,-8148,16432,-1025,1265,-1400,-33000,-5000,106000,833356,
304,-8212,16184,-938,1660,-1201,-33000,-4000,106000,833369,
308,-8240,16068,-915,1643,-1137,-33000,-4000,106000,833371,
340,-8280,16200,-798,1724,-1088,-33000,-4000,106000,833373,
160,-8196,16296,-596,1787,-707,-33000,-4000,106000,833386,
312,-8112,16344,-563,1859,-623,-33000,-4000,106000,833388,
228,-8188,16300,-565,1804,-588,-33000,-4000,106000,833390,
388,-7912,16364,-304,1881,-400,-33000,-4000,106000,833403,
316,-8052,16416,-306,1842,-355,-33000,-4000,106000,833405,
400,-7988,16364,-219,1928,-312,-33000,-4000,106000,833407,
472,-8028,16484,-2,1984,-194,-33000,-4000,105000,833420,
548,-7892,16440,32,2056,-181,-33000,-4000,105000,833422,
500,-8072,16416,13,1980,-164,-33000,-4000,105000,833424,
388,-7852,16516,226,1866,-57,-33000,-4000,105000,833437,
376,-7920,16672,247,1762,-55,-33000,-4000,105000,833439,
304,-7812,16516,267,1725,-43,-33000,-4000,105000,833442,
448,-7852,16652,469,1256,91,-33000,-3000,105000,833454,
496,-7820,16656,466,1274,105,-33000,-3000,105000,833456,
560,-7792,16684,523,1184,93,-33000,-3000,105000,833459,
964,-7856,16932,678,1144,98,-33000,-3000,105000,833471,
900,-7912,16744,766,1196,74,-33000,-3000,105000,833474,
1036,-7836,16820,775,1207,68,-33000,-3000,105000,833476,
892,-7952,16960,1084,1295,87,-33000,-3000,105000,833489,
980,-7976,17044,1134,1217,92,-33000,-3000,105000,833491,
964,-7984,16920,1216,1277,142,-33000,-3000,105000,833493,
984,-8044,17108,1527,1360,249,-32000,-3000,105000,833506,
1112,-8048,17100,1608,1487,269,-32000,-3000,105000,833508,
1140,-8048,17248,1606,1437,257,-32000,-3000,105000,833510,
1148,-8092,17480,1989,1762,272,-32000,-3000,105000,833523,
1188,-8068,17424,2018,1700,279,-32000,-3000,105000,833525,
1160,-7952,17512,2098,1803,335,-32000,-3000,105000,833528,
1204,-8100,17836,2507,1910,356,-32000,-3000,105000,833540,
1216,-8184,17716,2517,1899,360,-32000,-3000,105000,833542,
1276,-8040,17640,2634,1953,372,-32000,-3000,105000,833545,
924,-8068,18088,2890,1888,333,-31000,-2000,105000,833557,
908,-8012,18220,2980,1881,319,-31000,-2000,105000,833559,
904,-8008,18032,2995,1792,285,-31000,-2000,105000,833562,
1072,-8148,18040,3304,1657,221,-31000,-2000,105000,833574,
1136,-8192,18196,3316,1595,195,-31000,-2000,105000,833577,
1132,-8340,18124,3418,1568,195,-31000,-2000,105000,833579,
972,-8172,18360,3765,1207,218,-30000,-2000,105000,833592,
1088,-8232,18280,3832,1162,213,-30000,-2000,105000,833594,
912,-8236,18408,3907,1063,215,-30000,-2000,105000,833596,
764,-8144,18448,4132,596,171,-30000,-2000,104000,833609,
840,-8280,18476,4211,493,204,-30000,-2000,104000,833611,
864,-8012,18284,4247,375,216,-29000,-2000,104000,833613,
852,-7988,18484,4481,-128,326,-29000,-2000,105000,833626,
836,-7908,18232,4563,-254,375,-29000,-2000,105000,833628,
888,-7836,18380,4565,-278,409,-29000,-2000,105000,833631,
1212,-7632,18540,4687,-443,529,-28000,-2000,105000,833643,
1216,-7656,18480,4645,-420,555,-28000,-2000,105000,833645,
1376,-7612,18600,4689,-417,558,-28000,-2000,105000,833648,
1420,-7520,18656,4907,-365,567,-28000,-2000,105000,833660,
1512,-7404,18696,4917,-417,591,-28000,-2000,105000,833663,
1424,-7464,18744,4974,-337,607,-27000,-2000,105000,833665,
1340,-7236,18944,5221,-400,598,-27000,-2000,105000,833677,
1300,-7224,18908,5240,-422,540,-27000,-2000,105000,833680,
1368,-7204,18980,5326,-453,534,-27000,-2000,105000,833682,
1176,-6968,19332,5520,-634,372,-26000,-2000,105000,833695,
1252,-7056,19384,5607,-623,332,-26000,-2000,105000,833697,
1264,-6884,19492,5599,-736,311,-26000,-2000,105000,833699,
948,-6984,19508,6051,-1142,5,-25000,-2000,105000,833712,
908,-6884,19456,6073,-1217,-49,-25000,-2000,105000,833714,
948,-7016,19416,6227,-1353,-78,-25000,-2000,105000,833716,
1024,-6776,19676,6677,-1796,-245,-24000,-2000,105000,833729,
920,-6688,19612,6847,-1951,-278,-24000,-2000,105000,833731,
1008,-6720,19624,6881,-2021,-328,-24000,-2000,105000,833733,
940,-6612,19584,7498,-2568,-458,-23000,-3000,105000,833746,
1036,-6552,19676,7580,-2535,-452,-23000,-3000,105000,833748,
1024,-6604,19708,7686,-2668,-453,-23000,-3000,105000,833750,
1192,-6324,19688,8355,-2630,-608,-22000,-3000,105000,833763,
1200,-6272,19772,8496,-2623,-625,-22000,-3000,105000,833765,
1312,-6136,19620,8580,-2550,-673,-22000,-3000,105000,833767,
1576,-5996,19304,9286,-2113,-779,-21000,-3000,105000,833780,
1748,-5816,19416,9378,-1906,-838,-21000,-3000,105000,833782,
1804,-5824,19468,9502,-1726,-880,-21000,-3000,105000,833784,
2096,-5520,19288,10013,-638,-1195,-20000,-3000,105000,833797,
2020,-5544,19164,10157,-337,-1256,-20000,-3000,105000,833799,
1812,-5436,19272,10178,-232,-1312,-19000,-3000,105000,833802,
1504,-4968,18892,10668,567,-1532,-18000,-3000,105000,833814,
1480,-4884,18900,10646,687,-1552,-18000,-3000,105000,833817,
1464,-4888,18876,10777,696,-1554,-18000,-3000,105000,833819,
1052,-4652,18708,11142,872,-1644,-17000,-3000,105000,833831,
1004,-4564,18608,11207,956,-1661,-17000,-3000,105000,833834,
712,-4264,18520,11595,667,-1719,-15000,-3000,104000,833846,
500,-4096,18544,11639,614,-1707,-15000,-3000,104000,833849,
504,-4140,18572,11633,478,-1656,-15000,-3000,104000,833851,
408,-3872,18532,12037,-202,-1675,-14000,-3000,104000,833864,
184,-3692,18532,12033,-414,-1637,-14000,-3000,104000,833866,
156,-3764,18676,12131,-574,-1645,-13000,-3000,104000,833868,
112,-3312,18104,12561,-1457,-1664,-12000,-4000,104000,833881,
164,-3320,18164,12552,-1565,-1704,-12000,-4000,104000,833883,
136,-3104,18084,12594,-1674,-1676,-12000,-4000,104000,833886,
416,-2888,17616,12847,-2119,-1859,-10000,-4000,104000,833898,
464,-2904,17492,12758,-2136,-1844,-10000,-4000,104000,833900,
424,-2828,17456,13012,-2143,-1881,-10000,-4000,104000,833903,
512,-2664,17024,13062,-2299,-1878,-9000,-4000,104000,833915,
616,-2664,16932,13049,-2297,-1817,-8000,-4000,104000,833917,
564,-2660,16832,13000,-2267,-1801,-8000,-4000,104000,833920,
696,-1992,16428,13025,-1717,-1501,-7000,-4000,103000,833932,
772,-1932,16300,13003,-1551,-1462,-7000,-4000,103000,833935,
788,-1724,16036,12974,-1249,-1431,-6000,-4000,103000,833937,
1216,-1120,15908,12100,201,-1485,-5000,-4000,103000,833950,
1036,-1004,16212,11921,480,-1530,-5000,-4000,103000,833952,
1068,-868,16340,11649,670,-1678,-5000,-4000,103000,833954,
560,-328,15816,10821,1292,-2154,-4000,-4000,103000,833967,
508,-388,15416,10710,1319,-2187,-4000,-4000,103000,833969,
312,-188,15188,10690,1152,-2168,-3000,-4000,103000,833971,
-660,-268,14664,10902,258,-1749,-2000,-4000,103000,833984,
-928,-120,14356,10973,-134,-1663,-2000,-4000,103000,833986,
-900,-68,14260,10886,-419,-1550,-2000,-4000,103000,833988,
-748,-16,14900,11687,-2298,-1406,-1000,-4000,103000,834001,
-1032,84,15020,11744,-2769,-1438,0,-4000,103000,834003,
-1072,216,14968,11764,-3360,-1420,0,-4000,103000,834006,
-332,688,14868,11827,-4413,-1604,0,-5000,102000,834018,
-32,676,14856,11864,-4631,-1608,0,-5000,102000,834021,
256,716,14864,11822,-4658,-1682,0,-5000,102000,834023,
924,1040,14656,11531,-4930,-1963,1000,-5000,102000,834035,
920,1076,14788,11459,-4906,-2061,2000,-6000,102000,834037,
976,1128,14700,11421,-5059,-2111,2000,-6000,102000,834040,
1400,1420,14292,11006,-4372,-2340,3000,-6000,102000,834052,
1452,1356,14052,10921,-4285,-2387,3000,-6000,102000,834055,
1484,1456,14220,10889,-4099,-2446,3000,-6000,102000,834057,
1484,1600,14016,10423,-3497,-2922,4000,-7000,101000,834069,
1320,1644,13812,10401,-3289,-2978,5000,-7000,101000,834072,
1364,1732,13816,10251,-3124,-3035,5000,-7000,101000,834074,
1120,1768,13512,9861,-2677,-3445,6000,-7000,101000,834087,
1092,1796,13436,9772,-2736,-3494,6000,-7000,101000,834089,
1096,1912,13296,9834,-2610,-3553,6000,-7000,101000,834091,
872,2124,12892,9796,-3043,-3481,7000,-7000,100000,834104,
992,2064,12752,9869,-3100,-3400,7000,-7000,100000,834106,
924,2128,12684,9852,-3222,-3314,8000,-7000,100000,834109,
1224,2176,12208,10300,-3452,-3068,9000,-7000,100000,834121,
1320,2212,12100,10283,-3412,-3118,9000,-8000,100000,834124,
1444,2220,12140,10427,-3442,-3199,9000,-8000,100000,834126,
1424,2508,12280,10441,-3005,-3129,10000,-8000,99000,834138,
1664,2552,12252,10487,-2834,-3071,10000,-8000,99000,834141,
1540,2796,12436,10364,-2722,-3065,10000,-8000,99000,834143,
1584,3244,12520,10144,-1963,-3066,12000,-8000,99000,834156,
1648,3192,12424,9986,-1881,-3089,12000,-8000,99000,834158,
1512,3388,12280,9977,-1675,-3070,12000,-8000,99000,834160,
1460,3320,11908,9536,-1160,-2912,13000,-8000,99000,834173,
1448,3520,11956,9578,-1064,-2863,13000,-8000,98000,834175,
1580,3428,12004,9462,-993,-2818,13000,-8000,98000,834177,
1648,3704,11500,9329,-371,-2825,14000,-8000,98000,834190,
1720,3656,11472,9242,-288,-2842,14000,-8000,98000,834192,
1772,3916,11464,9283,-116,-2783,15000,-8000,98000,834195,
1904,4008,11072,8916,560,-2619,15000,-8000,98000,834207,
1820,4036,11168,8891,719,-2664,16000,-8000,98000,834209,
1812,4144,10992,8820,741,-2773,16000,-8000,98000,834212,
1204,4484,10624,8455,1012,-2469,17000,-8000,98000,834224,
1176,4440,10340,8295,979,-2370,17000,-8000,97000,834227,
1088,4412,10552,8233,990,-2278,17000,-8000,97000,834229,
916,4692,10372,8043,761,-1955,18000,-7000,97000,834242,
888,4660,10176,7983,705,-1857,18000,-7000,97000,834244,
940,4692,10064,7911,531,-1772,18000,-7000,97000,834246,
1476,5176,9836,7577,600,-1482,19000,-7000,97000,834259,
1616,5192,9668,7531,561,-1437,19000,-7000,97000,834261,
1760,5272,9672,7451,671,-1398,19000,-7000,97000,834263,
2084,5880,9184,6826,1113,-1436,20000,-7000,97000,834276,
2220,5828,9080,6707,1149,-1426,20000,-7000,97000,834278,
2200,5892,9068,6506,1173,-1471,20000,-7000,97000,834280,
1816,6060,8824,5893,1390,-1512,21000,-7000,97000,834293,
1708,5908,8844,5755,1282,-1463,21000,-7000,97000,834295,
1604,5936,8860,5664,1373,-1427,21000,-7000,97000,834297,
1736,6284,8956,4961,902,-1188,22000,-7000,97000,834310,
1588,6272,8944,4848,910,-1131,22000,-7000,97000,834312,
1708,6488,9084,4681,810,-1130,22000,-7000,97000,834315,
2000,6860,9052,3887,563,-1153,22000,-7000,97000,834327,
2080,6888,8912,3760,555,-1183,22000,-7000,97000,834329,
2260,6824,8728,3613,620,-1194,23000,-7000,97000,834332,
2444,7032,8348,3170,316,-1041,23000,-7000,96000,834344,
2500,7084,8432,3128,346,-1005,23000,-7000,96000,834346,
2524,7060,8340,3047,264,-996,23000,-7000,96000,834349,
2444,7024,8460,2752,-45,-904,23000,-7000,96000,834361,
2428,6984,8484,2788,-45,-858,24000,-7000,96000,834363,
2460,7128,8520,2717,-107,-852,24000,-7000,96000,834366,
2240,7356,9096,2413,-283,-681,24000,-7000,96000,834378,
2348,7344,9256,2269,-305,-654,24000,-7000,96000,834380,
2420,7460,9456,2232,-304,-640,24000,-7000,96000,834383,
2476,7840,9848,1584,-432,-835,24000,-7000,96000,834395,
2556,7908,9864,1424,-397,-878,24000,-7000,96000,834398,
2512,8032,10256,1225,-501,-886,24000,-7000,96000,834400,
2308,7888,10268,543,-645,-904,25000,-7000,96000,834413,
2268,7896,10392,402,-725,-926,25000,-7000,96000,834415,
2376,7924,10372,292,-706,-929,25000,-7000,96000,834417,
2124,7968,10816,-182,-1287,-913,25000,-7000,96000,834430,
2080,8028,10920,-235,-1311,-931,25000,-7000,96000,834432,
2096,7932,10952,-281,-1493,-935,25000,-7000,96000,834434,
1992,7920,10848,-506,-2131,-929,25000,-7000,95000,834447,
2040,7956,11080,-505,-2165,-935,25000,-7000,95000,834449,
2048,7848,10996,-570,-2268,-956,25000,-7000,95000,834451,
2192,7868,11228,-601,-2569,-893,25000,-7000,95000,834464,
2272,7852,11428,-556,-2607,-890,25000,-7000,95000,834466,
2340,7916,11408,-606,-2570,-881,25000,-7000,95000,834469,
2564,8112,11788,-712,-2421,-839,25000,-8000,95000,834481,
2604,8120,11948,-806,-2383,-839,25000,-8000,95000,834483,
2532,8096,12028,-759,-2324,-860,25000,-8000,95000,834486,
2348,8088,12256,-948,-1941,-783,25000,-8000,95000,834498,
2312,8096,12316,-933,-1860,-744,25000,-8000,95000,834501,
2296,8068,12528,-980,-1754,-727,25000,-8000,95000,834503,
2176,8024,12532,-997,-1343,-724,25000,-8000,95000,834516,
2128,7912,12648,-1012,-1294,-724,25000,-8000,95000,834518,
2064,8028,12528,-998,-1217,-695,25000,-8000,95000,834520,
1936,7852,12652,-1035,-814,-554,25000,-8000,94000,834533,
1976,7880,12368,-973,-674,-548,25000,-8000,94000,834535,
2036,7840,12480,-1048,-701,-525,25000,-8000,94000,834537,
2000,8160,12900,-1035,-411,-351,25000,-8000,94000,834550,
1928,8248,12876,-1065,-442,-289,25000,-8000,94000,834552,
