Ax,Ay,Az,Gx,Gy,Gz,Roll,Pitch,Yaw,Timestamp,Target
3820,7784,14496,1428,-316,6447,21000,-15000,84000,845672,
3884,7872,14660,1407,-413,6486,21000,-15000,84000,845674,
4032,7952,14608,1510,-335,6611,21000,-15000,85000,845687,
4144,7868,14540,1573,-264,6607,21000,-15000,85000,845689,
4156,7852,14392,1557,-293,6658,21000,-15000,85000,845691,
4540,7884,14184,1697,30,6731,21000,-15000,85000,845704,
4432,7960,14300,1643,81,6709,21000,-15000,85000,845706,
4424,7856,14052,1718,116,6741,21000,-15000,86000,845708,
4388,7488,14096,1735,617,6846,21000,-15000,86000,845721,
4376,7512,14280,1782,672,6838,21000,-15000,86000,845723,
4384,7472,14248,1755,754,6902,21000,-15000,86000,845725,
4152,7516,13936,1714,971,7130,21000,-16000,87000,845738,
4084,7484,14088,1698,983,7180,21000,-16000,87000,845740,
4076,7280,14172,1713,987,7215,21000,-16000,87000,845742,
4032,7204,14116,1669,947,7439,21000,-16000,88000,845755,
3932,7116,14080,1753,952,7473,21000,-16000,88000,845757,
4048,7048,13968,1693,906,7521,21000,-16000,88000,845759,
4020,6900,13780,1821,799,7791,21000,-16000,89000,845772,
4084,6900,13624,1835,859,7847,21000,-16000,89000,845774,
4108,6900,13628,1834,819,7897,21000,-16000,89000,845776,
4380,6760,13464,1918,1004,8047,21000,-16000,90000,845789,
4416,6648,13388,1964,1125,8096,21000,-16000,90000,845791,
4504,6536,13360,1917,1232,8114,21000,-16000,90000,845793,
4532,6392,13288,1994,1488,8392,21000,-17000,91000,845806,
4372,6316,13244,1957,1581,8452,21000,-17000,91000,845808,
4352,6360,13228,1987,1591,8563,21000,-17000,92000,845810,
4568,6380,13112,1980,1997,8908,21000,-17000,92000,845823,
4744,6316,12996,1887,1998,8963,21000,-17000,93000,845825,
4692,6356,13148,1928,2111,8970,21000,-17000,93000,845827,
4968,6388,13032,1800,2322,9153,21000,-17000,94000,845840,
4996,6392,13032,1826,2356,9155,21000,-17000,94000,845842,
4980,6324,12980,1802,2389,9202,21000,-17000,94000,845844,
4748,6308,12844,1723,2325,9447,21000,-17000,95000,845857,
4724,6216,13016,1723,2257,9532,21000,-17000,95000,845859,
4708,6108,12892,1762,2214,9539,21000,-17000,95000,845861,
4768,6112,12796,1694,1793,9832,21000,-17000,96000,845874,
4888,5984,12908,1716,1686,9893,21000,-17000,96000,845876,
4692,6060,12936,1703,1571,9939,21000,-17000,97000,845879,
5012,6012,12756,1682,1020,10197,21000,-18000,98000,845891,
4984,5984,12868,1629,965,10183,21000,-18000,98000,845893,
5056,5984,12812,1622,909,10295,20000,-18000,98000,845896,
5632,5972,12688,1509,725,10477,20000,-18000,99000,845908,
5724,6120,12924,1457,667,10551,20000,-18000,99000,845910,
5772,6140,12940,1458,743,10539,20000,-18000,99000,845913,
6228,6240,12864,1239,662,10621,20000,-19000,100000,845925,
6372,6260,12804,1216,729,10595,20000,-19000,101000,845927,
6352,6252,12804,1151,610,10657,20000,-19000,101000,845930,
6664,6200,13040,1060,703,10755,20000,-19000,102000,845942,
6708,6188,13056,999,668,10717,20000,-19000,102000,845944,
6704,6152,13080,1031,737,10729,20000,-19000,102000,845947,
7164,6140,13040,955,740,10639,19000,-19000,103000,845959,
6968,6028,13088,977,819,10531,19000,-20000,103000,845961,
7304,6104,13116,959,756,10591,19000,-20000,104000,845964,
7344,5936,13200,1073,868,10505,19000,-20000,105000,845976,
7332,5884,13168,1044,807,10516,19000,-20000,105000,845978,
7368,5916,13080,1136,873,10491,19000,-20000,105000,845981,
7656,5972,13252,1187,1095,10414,19000,-20000,106000,845993,
7780,6032,13128,1135,1082,10366,19000,-20000,106000,845995,
7692,6068,13248,1142,1082,10352,19000,-20000,106000,845998,
8224,6116,13308,1163,1609,10132,19000,-21000,107000,846010,
8396,6108,13212,1077,1631,10093,19000,-21000,108000,846013,
8360,6152,13384,1133,1794,10021,18000,-21000,108000,846015,
8492,6140,13328,1039,2407,9847,18000,-21000,109000,846027,
8560,6064,13220,1039,2599,9770,18000,-21000,109000,846030,
8428,6232,13164,921,2549,9826,18000,-21000,109000,846032,
8824,6244,13300,912,3031,9563,18000,-21000,110000,846044,
8908,6164,13388,847,3035,9517,18000,-21000,110000,846047,
8852,6216,13528,895,3090,9421,18000,-21000,111000,846049,
8600,6136,13456,840,2995,9093,18000,-21000,112000,846062,
8584,6104,13428,895,3006,9051,18000,-21000,112000,846064,
8548,6032,13492,852,2921,8969,17000,-21000,112000,846066,
8468,5960,13724,946,2425,8619,17000,-21000,113000,846079,
8512,5916,13496,998,2351,8521,17000,-21000,113000,846081,
8600,5900,13708,998,2298,8487,17000,-21000,113000,846083,
8788,5804,13592,1128,1916,8073,17000,-21000,114000,846096,
8820,5856,13620,1107,1807,8014,17000,-21000,114000,846098,
8756,5928,13688,1159,1793,7912,17000,-21000,114000,846100,
9116,5880,13724,1196,1562,7556,17000,-21000,115000,846113,
9060,5744,13536,1251,1587,7446,17000,-21000,115000,846115,
9076,5900,13768,1219,1525,7407,17000,-22000,115000,846117,
9356,5760,13984,1298,1541,6933,17000,-22000,116000,846130,
9372,5744,14004,1249,1465,6891,17000,-22000,116000,846132,
9456,5792,13960,1317,1453,6782,17000,-22000,116000,846134,
9488,5588,13844,1345,1336,6371,16000,-22000,117000,846147,
9480,5460,13824,1408,1398,6320,16000,-22000,117000,846149,
9528,5588,13804,1377,1348,6255,16000,-22000,117000,846151,
9724,5196,13672,1557,1408,5687,16000,-22000,118000,846164,
9584,5284,13644,1544,1372,5676,16000,-22000,118000,846166,
9516,5196,13620,1654,1380,5600,16000,-22000,118000,846168,
9116,5028,13636,1776,1175,5470,16000,-22000,119000,846181,
9076,4996,13540,1846,1162,5475,16000,-22000,119000,846183,
9008,5004,13584,1866,1115,5464,16000,-22000,119000,846185,
9080,4796,13236,2065,983,5325,16000,-22000,119000,846198,
8948,4880,13196,2045,1022,5277,16000,-22000,119000,846200,
9016,4844,13236,2077,989,5268,16000,-22000,120000,846202,
9036,4752,13088,2031,1369,5060,16000,-22000,120000,846215,
9048,4660,12848,2038,1452,5063,16000,-22000,120000,846217,
9140,4768,12928,2013,1541,5017,16000,-22000,120000,846219,
8900,4552,12736,1929,2021,4766,16000,-22000,121000,846232,
8856,4588,12724,1831,2077,4745,16000,-22000,121000,846234,
8844,4564,12608,1843,2157,4736,16000,-22000,121000,846236,
8644,4424,12304,1671,2396,4627,16000,-22000,122000,846249,
8564,4384,12284,1731,2505,4606,16000,-22000,122000,846251,
8592,4276,12260,1662,2528,4571,16000,-22000,122000,846253,
8284,4272,12012,1526,2790,4459,16000,-22000,122000,846266,
8388,4248,12124,1476,2767,4415,16000,-22000,122000,846268,
8400,4296,12172,1451,2807,4416,16000,-22000,122000,846271,
7972,4244,12236,1090,2690,4348,16000,-22000,123000,846283,
7912,4252,12152,1080,2650,4336,16000,-22000,123000,846285,
7744,4240,12240,996,2616,4313,16000,-22000,123000,846288,
7592,4244,12228,656,2089,4345,16000,-22000,124000,846300,
7496,4132,12328,633,2073,4310,16000,-22000,124000,846302,
7548,4068,12268,541,1901,4266,16000,-22000,124000,846305,
7636,4068,12196,373,1367,4199,16000,-22000,124000,846317,
7824,3936,12364,283,1246,4169,16000,-22000,124000,846319,
7684,3940,12296,296,1177,4151,16000,-22000,124000,846322,
8064,3916,12164,106,781,3961,16000,-22000,125000,846334,
7972,3888,12272,44,608,3972,16000,-22000,125000,846336,
8144,3932,12384,45,590,3931,16000,-22000,125000,846339,
8232,3860,12412,-173,111,3850,15000,-22000,125000,846351,
8268,3856,12424,-159,162,3765,15000,-22000,125000,846353,
8340,3776,12532,-236,33,3792,15000,-23000,125000,846356,
8600,3748,12580,-417,-42,3523,15000,-23000,126000,846368,
8644,3760,12692,-477,-119,3523,15000,-23000,126000,846370,
8556,3768,12908,-514,-78,3469,15000,-23000,126000,846373,
8852,3748,12716,-672,-136,3402,15000,-23000,126000,846385,
8860,3732,12888,-723,-103,3357,15000,-23000,126000,846388,
8856,3800,12868,-703,-166,3364,15000,-23000,126000,846390,
8972,3892,13028,-737,-69,3310,15000,-23000,127000,846402,
9080,3872,13104,-809,-81,3261,15000,-23000,127000,846405,
8996,3748,13044,-759,-10,3261,15000,-23000,127000,846407,
9272,3872,13264,-792,173,2996,14000,-23000,127000,846420,
9304,3980,13268,-733,218,2968,14000,-23000,127000,846422,
9140,3996,13292,-790,196,2907,14000,-23000,127000,846424,
9164,4020,13592,-699,400,2716,14000,-23000,128000,846437,
9200,4000,13508,-718,366,2689,14000,-23000,128000,846439,
9124,3948,13688,-638,406,2644,14000,-23000,128000,846441,
9264,4096,13896,-609,451,2335,14000,-24000,128000,846454,
9348,4048,13892,-547,505,2306,14000,-24000,128000,846456,
9224,4136,13884,-552,462,2217,14000,-24000,128000,846458,
9072,4244,14044,-466,456,1880,14000,-24000,128000,846471,
9100,4116,13988,-458,375,1812,14000,-24000,128000,846473,
9040,4192,14048,-438,403,1759,14000,-24000,128000,846475,
8852,4120,13988,-325,250,1561,14000,-24000,128000,846488,
8864,4140,13948,-325,237,1529,14000,-24000,128000,846490,
8872,4128,13896,-267,187,1542,14000,-24000,128000,846492,
9104,4364,13992,-222,161,1397,14000,-24000,129000,846505,
9192,4376,14136,-225,137,1372,14000,-24000,129000,846507,
9220,4404,14016,-182,226,1306,14000,-24000,129000,846509,
9180,4496,14056,-197,431,1117,13000,-24000,129000,846522,
9180,4388,14148,-185,597,1060,13000,-24000,129000,846524,
9200,4460,14096,-203,566,1027,13000,-24000,129000,846526,
9096,4440,13804,-90,870,889,13000,-24000,129000,846539,
9124,4500,13860,-113,919,837,13000,-24000,129000,846541,
9044,4416,13796,-101,994,830,13000,-24000,129000,846543,
8972,4560,13892,-80,1090,597,13000,-24000,129000,846556,
8872,4560,13928,-104,1184,515,13000,-24000,129000,846558,
8744,4628,13864,-101,1071,484,13000,-24000,129000,846560,
8488,4556,13740,-160,787,307,13000,-24000,129000,846573,
8276,4568,13920,-81,682,276,13000,-24000,129000,846575,
8164,4684,13808,-138,600,271,13000,-24000,129000,846578,
8168,4696,13816,-97,4,224,13000,-24000,129000,846590,
8084,4672,13848,-87,-59,229,13000,-24000,129000,846592,
8232,4632,13780,-122,-238,220,13000,-24000,129000,846595,
8284,4592,13516,-56,-378,65,13000,-24000,129000,846607,
8384,4628,13636,-116,-428,53,13000,-24000,129000,846609,
8472,4568,13504,-44,-385,45,13000,-24000,129000,846612,
8456,4716,13424,-91,-269,23,13000,-24000,129000,846624,
8460,4684,13308,-7,-177,64,13000,-24000,129000,846626,
8348,4800,13400,-52,-179,46,13000,-24000,129000,846628,
8624,4832,13484,-78,260,26,13000,-24000,129000,846641,
8600,4844,13332,-74,208,40,13000,-24000,129000,846643,
8648,4912,13244,-100,357,16,14000,-24000,129000,846646,
8492,4876,13304,-186,624,-1,14000,-24000,129000,846658,
8464,4744,13264,-146,706,-44,14000,-24000,129000,846660,
8376,4944,13400,-213,690,-16,14000,-24000,129000,846663,
8040,4948,13560,-295,505,13,14000,-24000,129000,846675,
7948,4828,13480,-291,406,23,14000,-24000,129000,846677,
7992,4876,13296,-311,463,28,14000,-24000,129000,846680,
8104,4756,13336,-256,18,-1,14000,-24000,129000,846692,
8072,4788,13212,-244,-67,10,14000,-24000,129000,846694,
8164,4824,13248,-213,-30,-20,14000,-24000,129000,846697,
8416,4860,13232,-138,-185,-70,14000,-24000,129000,846709,
8408,4728,13196,-122,-110,-75,14000,-24000,129000,846711,
8488,4856,13060,-134,-126,-115,14000,-24000,129000,846714,
8440,5048,13196,-144,-126,-227,14000,-24000,129000,846726,
8400,5020,13220,-107,-68,-213,14000,-24000,129000,846728,
8308,5032,13288,-123,-146,-203,14000,-24000,129000,846731,
8260,4996,12988,-155,-126,-160,14000,-24000,129000,846743,
8136,5076,13112,-130,-134,-172,14000,-24000,129000,846745,
8224,4976,13100,-136,-51,-177,14000,-24000,129000,846748,
8180,4820,12956,-106,43,-269,14000,-24000,129000,846760,
8156,4904,12948,-184,46,-302,14000,-24000,129000,846763,
8144,4800,12980,-131,44,-270,14000,-24000,129000,846765,
8024,4816,13032,-184,84,-224,14000,-24000,129000,846777,
7968,4896,12860,-146,165,-204,14000,-24000,129000,846780,
7936,4816,13020,-203,148,-215,14000,-24000,129000,846782,
8156,4980,12840,-142,268,-190,14000,-24000,129000,846794,
8172,4952,12976,-165,224,-176,14000,-24000,129000,846797,
8220,4964,12860,-153,329,-200,14000,-24000,129000,846799,
8024,4980,12880,-172,470,-124,14000,-24000,129000,846811,
8016,5088,12900,-161,528,-92,14000,-24000,129000,846814,
7860,5032,12956,-234,490,-93,14000,-24000,129000,846816,
7684,5012,13092,-285,546,-62,14000,-24000,129000,846828,
7580,5100,12956,-242,486,-38,14000,-24000,129000,846831,
7648,4952,13168,-257,537,-46,14000,-24000,129000,846833,
7636,5052,13228,-305,357,94,14000,-24000,129000,846845,
7628,5032,13284,-361,296,89,14000,-24000,129000,846848,
7700,5088,13320,-353,264,120,14000,-24000,129000,846850,
7668,5004,13316,-452,41,132,14000,-24000,129000,846862,
7652,5140,13180,-423,41,121,14000,-24000,129000,846865,
7720,5120,13188,-461,-33,145,14000,-24000,129000,846867,
8032,5068,13200,-550,-61,265,14000,-24000,129000,846879,
8016,5084,13188,-453,-6,302,14000,-24000,129000,846882,
8096,5084,13244,-504,12,285,14000,-24000,129000,846884,
8580,5120,13196,-451,427,265,14000,-24000,129000,846896,
8564,5104,13188,-446,590,225,14000,-24000,129000,846899,
8528,5048,13300,-447,620,248,14000,-24000,129000,846901,
8552,5120,13392,-334,1215,218,14000,-24000,129000,846913,
8480,5180,13304,-387,1243,172,14000,-24000,129000,846916,
8428,5184,13236,-309,1349,147,14000,-24000,129000,846918,
8072,5148,13500,-295,1571,109,14000,-24000,129000,846930,
7912,5128,13448,-222,1635,144,14000,-24000,129000,846933,
7872,5012,13616,-260,1592,144,14000,-24000,129000,846935,
7628,4988,13404,-145,1475,161,14000,-24000,129000,846947,
7628,4900,13504,-189,1442,164,14000,-24000,129000,846950,
7616,4896,13608,-153,1398,182,14000,-24000,129000,846952,
7280,4984,13628,-141,862,219,14000,-24000,129000,846965,
7228,4924,13488,-76,751,264,14000,-24000,129000,846967,
7200,4908,13460,-71,685,272,14000,-24000,129000,846969,
7304,4840,13608,-4,112,445,14000,-24000,129000,846982,
7472,4792,13644,-42,-39,509,14000,-24000,129000,846984,
7484,4756,13676,31,-22,498,14000,-24000,129000,846986,
7880,4900,13584,28,-208,510,14000,-24000,129000,846999,
7920,4900,13424,104,-126,538,14000,-24000,129000,847001,
8052,4980,13412,62,-136,508,14000,-24000,129000,847003,
8400,5048,13304,83,153,438,14000,-24000,129000,847016,
8384,5036,13392,38,147,403,14000,-24000,129000,847018,
8304,5132,13404,69,204,360,14000,-24000,129000,847020,
8120,5116,13332,-32,520,317,14000,-24000,129000,847033,
8244,5048,13436,-23,505,335,14000,-24000,129000,847035,
8172,5036,13384,-35,582,325,14000,-24000,129000,847037,
8144,4968,13432,-31,601,350,14000,-24000,129000,847050,
8012,4960,13412,-83,581,345,14000,-24000,129000,847052,
8052,4892,13412,-35,594,333,14000,-24000,129000,847054,
7884,4996,13560,-85,503,266,14000,-24000,129000,847067,
7940,4816,13480,-51,419,277,14000,-24000,129000,847069,
7848,4828,13536,-42,366,286,14000,-24000,129000,847071,
7840,4864,13456,-91,187,332,14000,-24000,129000,847084,
7904,4864,13796,-148,121,338,14000,-24000,129000,847086,
7832,4884,13544,-122,146,322,14000,-24000,129000,847089,
8128,4816,13416,-227,36,320,14000,-24000,129000,847101,
8092,4848,13496,-203,109,314,14000,-24000,129000,847103,
8300,4820,13416,-232,49,302,14000,-24000,129000,847106,
8184,4832,13516,-282,260,294,14000,-24000,129000,847118,
8224,4784,13504,-313,202,251,14000,-24000,129000,847120,
8236,4788,13404,-254,314,276,14000,-24000,129000,847123,
8056,4756,13532,-437,217,274,14000,-24000,129000,847135,
8088,4676,13484,-401,293,235,14000,-24000,129000,847137,
8052,4792,13348,-449,235,273,14000,-24000,129000,847140,
8216,4744,13300,-467,241,192,14000,-24000,129000,847152,
8260,4684,13212,-480,180,217,14000,-24000,129000,847155,
8140,4716,13256,-527,161,229,14000,-24000,129000,847157,
8084,4720,13628,-515,15,238,14000,-24000,129000,847169,
8208,4692,13572,-501,-19,266,14000,-24000,129000,847172,
8052,4744,13524,-480,-27,260,14000,-24000,129000,847174,
8304,4772,13612,-437,-201,192,14000,-24000,129000,847186,
8156,4676,13540,-463,-217,168,14000,-24000,129000,847189,
8096,4620,13472,-443,-231,149,14000,-24000,129000,847191,
8196,4612,13536,-388,-210,33,14000,-24000,129000,847203,
8360,4680,13540,-413,-179,37,14000,-24000,129000,847206,
8228,4556,13380,-398,-183,30,14000,-24000,129000,847208,
8128,4528,13380,-360,-166,-31,14000,-24000,129000,847220,
8208,4640,13404,-345,-173,-5,14000,-24000,129000,847223,
8224,4472,13480,-348,-205,-3,14000,-24000,129000,847225,
8068,4628,13408,-340,-150,49,14000,-24000,129000,847238,
8168,4584,13320,-279,-121,49,14000,-24000,129000,847240,
8196,4572,13408,-298,-45,39,14000,-24000,129000,847242,
8288,4848,13192,-331,51,73,14000,-24000,129000,847255,
8396,4820,13468,-339,186,76,14000,-24000,129000,847257,
8372,4832,13436,-431,150,85,14000,-24000,129000,847259,
8276,4844,13492,-495,322,15,14000,-24000,129000,847272,
8296,4920,13540,-454,360,-13,14000,-24000,129000,847274,
8280,4772,13472,-503,366,9,14000,-24000,129000,847276,
7856,4584,13356,-454,260,-21,14000,-24000,129000,847289,
7916,4564,13356,-469,132,-19,14000,-24000,129000,847291,
8024,4532,13200,-402,220,-38,14000,-24000,129000,847293,
8088,4556,13016,-333,-42,-67,14000,-24000,129000,847306,
8264,4512,13192,-265,-58,-81,14000,-24000,129000,847308,
8204,4524,13268,-299,-48,-92,14000,-24000,129000,847310,
8208,4752,13224,-326,-39,-197,14000,-25000,129000,847323,
8268,4680,13100,-401,-1,-189,14000,-25000,129000,847325,
8292,4716,13068,-378,-37,-225,14000,-25000,129000,847327,
8332,4780,13128,-548,104,-279,14000,-25000,129000,847340,
8312,4800,13180,-590,71,-324,14000,-25000,129000,847342,
8280,4788,13128,-601,97,-313,14000,-25000,129000,847345,
8144,4708,13100,-678,66,-303,14000,-25000,129000,847357,
8112,4700,13164,-633,77,-344,14000,-25000,129000,847359,
8112,4816,13332,-664,59,-355,14000,-25000,129000,847362,
8024,4616,13368,-565,63,-412,14000,-25000,129000,847374,
8076,4684,13276,-624,17,-410,14000,-25000,129000,847376,
8028,4656,13220,-538,65,-435,14000,-25000,129000,847379,
8016,4712,12928,-549,65,-462,14000,-25000,129000,847391,
8032,4672,12916,-567,84,-500,14000,-25000,129000,847394,
8064,4664,13008,-516,106,-492,14000,-25000,129000,847396,
8248,4640,12840,-549,260,-533,14000,-25000,129000,847408,
8164,4640,12732,-626,298,-559,14000,-25000,129000,847411,
8152,4652,12620,-591,322,-557,14000,-25000,129000,847413,
7996,4600,12660,-667,493,-548,14000,-25000,129000,847425,
7992,4460,12708,-667,533,-556,14000,-25000,129000,847428,
8060,4456,12436,-658,580,-539,14000,-25000,129000,847430,
8120,4400,12412,-709,657,-494,14000,-25000,129000,847442,
8036,4288,12352,-748,683,-488,14000,-25000,129000,847445,
8008,4356,12380,-764,692,-478,14000,-25000,129000,847447,
8128,4184,12176,-766,762,-456,14000,-25000,129000,847459,
8028,4132,12232,-777,717,-475,14000,-25000,129000,847462,
7996,4140,12304,-762,786,-460,14000,-24000,129000,847464,
8004,4060,12232,-825,828,-458,14000,-24000,129000,847476,
8168,3944,12140,-873,848,-512,13000,-24000,129000,847479,
8160,3924,12136,-855,872,-501,13000,-24000,129000,847481,
8104,3760,11912,-863,1121,-627,13000,-24000,129000,847493,
8256,3612,11828,-799,1226,-627,13000,-24000,129000,847496,
8224,3716,11656,-848,1293,-638,13000,-24000,129000,847498,
8304,3604,11596,-827,1707,-742,13000,-24000,129000,847510,
8464,3520,11660,-867,1844,-738,13000,-24000,129000,847513,
8384,3464,11664,-890,1904,-747,13000,-24000,129000,847515,
8688,3488,11492,-969,2644,-869,13000,-24000,128000,847527,
8504,3420,11324,-1037,2689,-835,13000,-24000,128000,847530,
8652,3480,11508,-996,2915,-913,13000,-24000,128000,847532,
8296,3412,11220,-1179,3525,-989,13000,-24000,128000,847544,
8284,3412,11244,-1258,3620,-1034,13000,-24000,128000,847547,
8308,3436,11232,-1264,3715,-1034,13000,-24000,128000,847549,
8012,3340,11004,-1454,3987,-1096,13000,-23000,128000,847562,
8060,3376,10904,-1490,3999,-1147,13000,-23000,128000,847564,
7980,3348,10992,-1487,4045,-1154,13000,-23000,128000,847566,
7828,3228,10832,-1730,4187,-1316,13000,-23000,128000,847579,
7936,3216,10692,-1758,4256,-1334,13000,-23000,128000,847581,
7840,3284,10736,-1826,4262,-1380,13000,-23000,128000,847583,
7712,3180,10544,-2094,4421,-1558,13000,-22000,128000,847596,
7660,3152,10464,-2120,4409,-1547,13000,-22000,128000,847598,
7724,3200,10332,-2169,4408,-1589,13000,-22000,128000,847600,
7460,3188,10252,-2590,4318,-1727,12000,-22000,128000,847613,
7448,3192,10288,-2714,4280,-1772,12000,-22000,128000,847615,
7432,3232,10468,-2752,4306,-1817,12000,-22000,128000,847617,
7112,3288,10388,-3399,3967,-2020,12000,-21000,128000,847630,
7048,3376,10276,-3414,3982,-2043,12000,-21000,128000,847632,
6856,3392,10328,-3593,3815,-2094,12000,-21000,128000,847635,
6596,3348,10168,-4174,3466,-2161,12000,-21000,128000,847647,
6660,3336,10152,-4335,3293,-2181,12000,-21000,128000,847649,
6752,3200,9796,-4879,3169,-2376,11000,-20000,128000,847662,
6812,3148,9732,-5041,3145,-2438,11000,-20000,128000,847664,
6728,3020,9776,-5088,3165,-2433,11000,-20000,128000,847666,
6760,2848,9880,-5744,3322,-2680,11000,-20000,127000,847679,
6592,2912,9952,-5782,3379,-2725,11000,-20000,127000,847681,
6552,2720,9916,-5925,3401,-2747,10000,-20000,127000,847684,
6276,2444,9904,-6420,3585,-2852,10000,-20000,127000,847696,
6128,2452,9952,-6601,3536,-2839,10000,-20000,127000,847699,
6064,2424,10024,-6615,3583,-2852,10000,-20000,127000,847701,
5788,2524,10144,-7213,3379,-2828,9000,-19000,127000,847713,
5900,2668,10160,-7266,3413,-2803,9000,-19000,127000,847716,
5828,2672,10196,-7436,3361,-2813,9000,-19000,127000,847718,
5828,2928,10816,-8069,3119,-2864,8000,-19000,126000,847730,
5668,3024,11036,-8270,2970,-2877,8000,-19000,126000,847733,
5692,3104,11164,-8329,2864,-2936,8000,-19000,126000,847735,
6092,3160,11488,-9144,2241,-2995,7000,-19000,126000,847747,
6112,3164,11460,-9189,2204,-3016,7000,-19000,126000,847750,
6148,3008,11628,-9371,2145,-3066,7000,-18000,126000,847752,
6488,2736,11384,-9863,2152,-3440,6000,-18000,126000,847765,
6540,2552,11404,-9968,2193,-3527,6000,-18000,126000,847767,
6680,2496,11284,-9985,2275,-3591,6000,-18000,125000,847769,
6944,1984,11324,-10183,2675,-3971,5000,-18000,125000,847782,
6944,1856,11304,-10246,2751,-4013,5000,-18000,125000,847784,
7036,1836,11556,-10212,2894,-4066,5000,-18000,125000,847786,
6936,1536,11752,-10469,3443,-4308,4000,-18000,125000,847799,
6892,1544,11924,-10430,3504,-4392,4000,-18000,124000,847801,
6700,1460,12216,-10522,3526,-4458,4000,-18000,124000,847803,
6136,1256,12260,-10884,3968,-4616,3000,-17000,124000,847816,
6104,1184,12296,-10930,3955,-4703,3000,-17000,124000,847818,
6248,1052,12180,-10928,3941,-4733,2000,-17000,124000,847820,
5280,824,12504,-11177,3417,-5160,1000,-17000,123000,847833,
4960,988,12944,-11205,3278,-5170,1000,-17000,123000,847835,
4244,812,13728,-11682,1709,-4958,0,-17000,123000,847847,
4208,664,13960,-11694,1542,-5024,0,-16000,123000,847850,
4212,516,13968,-11733,1336,-4985,0,-16000,122000,847852,
4236,140,14596,-12000,-185,-5499,0,-16000,122000,847864,
4168,-56,14424,-11955,-432,-5512,0,-16000,122000,847867,
4340,-136,14560,-11957,-761,-5548,0,-16000,122000,847869,
4676,-588,14412,-11623,-1428,-5572,-1000,-17000,121000,847881,
4724,-744,14576,-11517,-1473,-5568,-1000,-17000,121000,847884,
4884,-960,14472,-11499,-1512,-5541,-2000,-17000,121000,847886,
5776,-1020,14316,-11008,-466,-5732,-3000,-17000,120000,847898,
6072,-988,14236,-11048,-139,-5763,-3000,-17000,120000,847901,
6168,-1016,14116,-11028,269,-5749,-3000,-17000,120000,847903,
6712,-1040,13992,-10741,2816,-5896,-4000,-17000,120000,847916,
6692,-952,14020,-10772,3247,-5962,-4000,-17000,119000,847918,
6516,-980,14040,-10688,3873,-5913,-4000,-17000,119000,847920,
5944,-868,14688,-10890,6453,-5970,-5000,-16000,119000,847933,
5852,-824,14712,-10906,6776,-5978,-5000,-16000,119000,847935,
4412,-892,15472,-11168,7618,-6014,-6000,-15000,118000,847947,
4040,-896,15528,-11108,7649,-6037,-6000,-15000,118000,847950,
3792,-1056,15720,-11140,7597,-6109,-6000,-15000,118000,847952,
2552,-1444,15516,-10827,6604,-6354,-7000,-14000,117000,847965,
2468,-1520,15444,-10713,6369,-6400,-7000,-14000,117000,847967,
2288,-1592,15324,-10661,6039,-6459,-7000,-14000,117000,847969,
2212,-1856,15344,-10219,4395,-6733,-8000,-14000,116000,847982,
2304,-2004,15508,-10067,4182,-6772,-8000,-14000,116000,847984,
2336,-1952,15628,-10001,3824,-6762,-8000,-14000,116000,847986,
2896,-2052,15788,-9837,2882,-6694,-9000,-14000,115000,847999,
2888,-2008,15912,-9791,2674,-6716,-9000,-14000,115000,848001,
3164,-1784,16060,-9883,2035,-6549,-10000,-13000,114000,848014,
3192,-1836,16112,-10035,1843,-6509,-10000,-13000,114000,848016,
3180,-1892,16064,-9996,1899,-6478,-10000,-13000,114000,848018,
3436,-2148,16000,-10254,1710,-6380,-11000,-13000,113000,848031,
3404,-2244,16056,-10308,1818,-6395,-11000,-13000,113000,848033,
3664,-2308,16076,-10325,1888,-6346,-12000,-13000,113000,848035,
3872,-2532,15680,-10453,2566,-6238,-12000,-13000,112000,848048,
3880,-2660,15780,-10454,2786,-6243,-12000,-13000,112000,848050,
4216,-2812,15880,-10614,3922,-6340,-13000,-13000,112000,848063,
4228,-2860,15896,-10578,4178,-6352,-13000,-13000,111000,848065,
4244,-2972,15880,-10603,4372,-6371,-14000,-13000,111000,848067,
4108,-3240,15788,-10615,5177,-6831,-14000,-13000,111000,848080,
4056,-3304,15760,-10635,5206,-6865,-15000,-13000,110000,848082,
3860,-3376,15536,-10641,5297,-6884,-15000,-12000,110000,848084,
3016,-3632,15272,-10417,5159,-6923,-16000,-12000,109000,848097,
2920,-3736,15348,-10410,5128,-6911,-16000,-12000,109000,848099,
2844,-3660,15272,-10393,4986,-6709,-17000,-12000,109000,848112,
2764,-3644,15284,-10335,4879,-6704,-17000,-12000,108000,848114,
2864,-3656,15220,-10378,4764,-6655,-17000,-12000,108000,848116,
2920,-3612,15284,-10755,4127,-6626,-18000,-12000,108000,848129,
2988,-3648,15492,-10839,4109,-6648,-18000,-11000,107000,848131,
3012,-3584,15512,-10910,3968,-6713,-18000,-11000,107000,848133,
3388,-3944,15416,-11329,3533,-6921,-19000,-11000,106000,848146,
3408,-3960,15160,-11484,3514,-6955,-19000,-11000,106000,848148,
4044,-4516,15032,-11649,4243,-7266,-20000,-11000,106000,848160,
4096,-4768,15072,-11644,4562,-7283,-20000,-11000,105000,848163,
4188,-4912,14980,-11668,4881,-7331,-20000,-11000,105000,848165,
4616,-5256,14928,-11764,7532,-7407,-21000,-11000,104000,848178,
4664,-5436,14808,-11757,8150,-7423,-21000,-11000,104000,848180,
4772,-5500,14896,-11826,8680,-7499,-22000,-11000,104000,848182,
4060,-6288,15288,-11367,11468,-8065,-22000,-10000,103000,848195,
3736,-6420,15596,-11286,11821,-8150,-23000,-10000,103000,848197,
2008,-6776,16192,-10653,12779,-8233,-23000,-9000,101000,848209,
1460,-6684,15968,-10607,12888,-8174,-24000,-9000,101000,848212,
1264,-6688,15860,-10577,12624,-8106,-24000,-9000,101000,848214,
-248,-7100,17064,-10049,10455,-7699,-25000,-8000,100000,848227,
-376,-6992,16900,-9930,10017,-7624,-25000,-8000,100000,848229,
-480,-7068,16768,-9938,9473,-7586,-25000,-8000,99000,848231,
-1008,-6944,17180,-9428,6186,-7179,-26000,-7000,98000,848244,
-900,-6864,17080,-9473,5455,-7133,-26000,-7000,98000,848246,
-340,-6900,16708,-9275,2849,-6855,-26000,-7000,98000,848258,
-108,-6864,16840,-9333,2530,-6802,-27000,-7000,97000,848261,
144,-6816,16824,-9258,2361,-6757,-27000,-7000,97000,848263,
1668,-7024,16240,-9493,2462,-6818,-28000,-7000,97000,848275,
2108,-7096,16008,-9403,2828,-6795,-28000,-7000,97000,848278,
2352,-7244,15924,-9510,3090,-6880,-28000,-8000,96000,848280,
2976,-7484,15668,-9480,5096,-6932,-29000,-7000,96000,848293,
2932,-7516,15532,-9507,5395,-6950,-29000,-7000,95000,848295,
2828,-7560,15464,-9447,5855,-6919,-29000,-7000,95000,848297,
2480,-8128,16180,-9325,7420,-6948,-30000,-7000,94000,848310,
2488,-8080,15976,-9352,7741,-6980,-30000,-7000,94000,848312,
2108,-8068,15792,-9602,7775,-7052,-30000,-7000,94000,848314,
704,-8496,16540,-9469,7681,-7214,-31000,-7000,93000,848327,
408,-8576,16788,-9451,7502,-7215,-31000,-7000,93000,848329,
104,-8704,16864,-9456,7345,-7170,-31000,-7000,93000,848331,
-748,-9156,17392,-9181,5415,-6991,-32000,-6000,92000,848344,
-784,-9208,17420,-9127,4893,-6929,-32000,-6000,92000,848346,
-828,-9108,17352,-9055,4480,-6908,-32000,-6000,91000,848348,
-676,-9320,17364,-8866,2136,-6564,-33000,-6000,91000,848361,
-560,-9328,17388,-8807,1850,-6471,-33000,-7000,91000,848363,
748,-9592,17124,-8535,1219,-6194,-34000,-7000,90000,848375,
872,-9604,16940,-8577,1214,-6199,-34000,-7000,90000,848378,
1120,-9752,16780,-8512,1290,-6117,-34000,-7000,90000,848380,
1824,-9812,16308,-8175,2157,-6148,-34000,-7000,89000,848393,
1788,-9720,16336,-8090,2371,-6032,-35000,-7000,89000,848395,
1932,-9764,15992,-8135,2671,-5948,-35000,-7000,89000,848397,
2456,-10192,16356,-7603,4457,-5593,-35000,-7000,88000,848410,
2588,-10056,16012,-7619,4808,-5593,-35000,-7000,88000,848412,
2504,-10084,15744,-7677,5167,-5595,-36000,-7000,88000,848414,
2104,-10300,16496,-7548,6908,-5661,-36000,-7000,87000,848427,
1892,-10296,16460,-7432,7224,-5651,-36000,-7000,87000,848429,
1860,-10400,16464,-7377,7493,-5660,-36000,-7000,87000,848431,
996,-10668,17104,-7016,7872,-6071,-37000,-6000,86000,848444,
964,-10656,17124,-6874,7731,-6045,-37000,-6000,86000,848446,
664,-10596,17296,-6812,7503,-6022,-37000,-6000,86000,848449,
56,-10976,17512,-5980,6156,-5661,-38000,-6000,85000,848461,
8,-10988,17584,-5868,5756,-5574,-38000,-6000,85000,848463,
-36,-10888,17340,-5706,5480,-5493,-38000,-6000,85000,848466,
-236,-10816,17228,-5122,3933,-5188,-38000,-6000,84000,848478,
-124,-10852,17248,-4943,3629,-5098,-38000,-6000,84000,848480,
184,-10660,16852,-4438,2686,-4661,-38000,-6000,83000,848493,
356,-10568,16812,-4306,2646,-4560,-39000,-6000,83000,848495,
512,-10644,16648,-4281,2560,-4455,-39000,-6000,83000,848497,
1040,-10692,16392,-3885,3085,-3973,-39000,-6000,83000,848510,
1156,-10672,16188,-3909,3229,-3898,-39000,-6000,83000,848512,
1156,-10632,16328,-3792,3451,-3794,-39000,-6000,83000,848515,
1372,-10708,16280,-3582,4311,-3422,-39000,-6000,82000,848527,
1404,-10684,16192,-3514,4585,-3349,-39000,-6000,82000,848529,
1336,-10692,16152,-3478,4779,-3292,-39000,-6000,82000,848532,
1016,-10508,16192,-3289,5557,-3093,-40000,-6000,81000,848544,
924,-10464,15964,-3258,5679,-3053,-40000,-6000,81000,848547,
816,-10496,16076,-3181,5681,-3022,-40000,-6000,81000,848549,
556,-10308,15896,-2914,6054,-2767,-40000,-5000,80000,848561,
508,-10332,15836,-2834,6044,-2760,-40000,-5000,80000,848564,
504,-10272,15800,-2749,6007,-2686,-40000,-5000,80000,848566,
-136,-10112,15632,-2324,5353,-2476,-40000,-5000,80000,848578,
-240,-10180,15676,-2272,5211,-2413,-40000,-5000,80000,848581,
-944,-9988,15776,-1989,3970,-2129,-40000,-5000,79000,848593,
-1020,-10020,15708,-1973,3598,-2028,-40000,-5000,79000,848596,
-1196,-10104,15796,-1844,3328,-1984,-40000,-4000,79000,848598,
-976,-10112,15676,-1766,1879,-1552,-40000,-4000,79000,848610,
-776,-10108,15508,-1676,1585,-1514,-40000,-4000,79000,848613,
-840,-10168,15660,-1705,1328,-1408,-40000,-4000,79000,848615,
-136,-9988,15420,-1518,492,-1065,-40000,-4000,79000,848628,
-80,-9968,15368,-1469,391,-1003,-40000,-4000,79000,848630,
28,-9908,15616,-1449,292,-921,-40000,-4000,79000,848632,
640,-9804,15296,-1239,292,-674,-40000,-4000,79000,848645,
684,-9908,15104,-1232,409,-670,-40000,-4000,79000,848647,
776,-9868,15096,-1184,417,-661,-40000,-4000,79000,848649,
1024,-10004,14956,-954,874,-598,-40000,-4000,78000,848662,
1080,-9888,15016,-950,911,-570,-40000,-4000,78000,848664,
1172,-9880,14932,-890,1009,-567,-41000,-4000,78000,848666,
1496,-9852,14936,-661,1396,-529,-41000,-4000,78000,848679,
1392,-9904,15008,-576,1566,-514,-41000,-4000,78000,848681,
1456,-9912,14872,-538,1563,-508,-41000,-4000,78000,848683,
1260,-9780,15056,-299,2101,-535,-40000,-4000,78000,848696,
1396,-9856,15076,-317,2113,-560,-40000,-4000,78000,848698,
1344,-9836,15192,-236,2203,-560,-40000,-4000,78000,848700,
1312,-10052,15840,-81,2010,-485,-40000,-4000,78000,848713,
1328,-9972,15852,-1,2027,-448,-40000,-4000,78000,848715,
1188,-10116,15888,46,1803,-423,-40000,-4000,78000,848717,
1132,-10076,16312,382,1311,-311,-40000,-4000,78000,848730,
1208,-10216,16228,414,1161,-308,-40000,-4000,78000,848732,
1224,-10240,16376,544,1103,-313,-40000,-4000,78000,848734,
1432,-10400,16752,895,453,-247,-40000,-4000,78000,848747,
1448,-10460,16792,1029,415,-237,-40000,-4000,78000,848749,
1480,-10432,16756,1009,243,-229,-40000,-4000,78000,848751,
1924,-10412,17116,1482,-236,-281,-40000,-4000,78000,848764,
2016,-10516,17180,1487,-340,-346,-40000,-4000,78000,848766,
2100,-10668,17184,1609,-357,-330,-40000,-4000,78000,848769,
2240,-10912,17476,2077,-530,-437,-40000,-4000,78000,848781,
2364,-10832,17288,2155,-503,-440,-39000,-4000,78000,848783,
2432,-10932,17352,2190,-534,-498,-39000,-4000,78000,848786,
2636,-11180,17564,2666,-373,-733,-39000,-4000,77000,848798,
2604,-11020,17500,2644,-451,-755,-39000,-4000,77000,848801,
2648,-10980,17372,2721,-307,-786,-39000,-4000,77000,848803,
2712,-11520,17704,3046,-100,-941,-39000,-4000,77000,848815,
2736,-11448,17840,3228,57,-992,-39000,-4000,77000,848818,
2904,-11492,17688,3287,117,-999,-39000,-4000,77000,848820,
3036,-11324,17680,3789,561,-1078,-38000,-4000,77000,848833,
3064,-11400,17680,3891,632,-1111,-38000,-4000,77000,848835,
2924,-11552,17804,4044,677,-1163,-38000,-4000,77000,848837,
2872,-11216,17564,4509,1154,-1223,-37000,-4000,77000,848850,
2804,-11204,17616,4682,1204,-1246,-37000,-4000,77000,848852,
2684,-11172,17544,4727,1275,-1252,-37000,-4000,77000,848854,
2468,-10992,17656,5271,1488,-1268,-37000,-4000,77000,848867,
2452,-10976,17484,5309,1492,-1305,-37000,-4000,77000,848869,
2272,-10792,17568,5412,1445,-1312,-37000,-4000,77000,848871,
2028,-10688,17624,5651,1104,-1244,-36000,-4000,77000,848884,
1776,-10608,17716,5746,1009,-1246,-36000,-4000,77000,848886,
2000,-10652,17520,5749,888,-1234,-36000,-4000,77000,848889,
1832,-10412,17604,6091,319,-1285,-35000,-4000,76000,848901,
1768,-10452,17628,6130,272,-1283,-35000,-4000,76000,848903,
1792,-10480,17508,6179,107,-1293,-35000,-4000,76000,848906,
2096,-10248,17648,6458,-158,-1400,-34000,-4000,76000,848918,
2084,-10348,17532,6525,-289,-1442,-34000,-4000,76000,848920,
2048,-10264,17604,6605,-262,-1474,-34000,-4000,76000,848923,
2004,-10080,17416,7047,-187,-1525,-33000,-5000,76000,848935,
2060,-10060,17320,7145,-119,-1511,-33000,-5000,76000,848938,
2124,-10016,17468,7239,-76,-1540,-33000,-5000,76000,848940,
2140,-9788,17492,7605,388,-1609,-32000,-5000,76000,848952,
2148,-9828,17412,7719,517,-1614,-32000,-5000,76000,848955,
1936,-9820,17324,7744,570,-1682,-32000,-5000,76000,848957,
1816,-9648,17540,8141,1054,-1709,-31000,-5000,76000,848969,
1628,-9616,17524,8174,1076,-1717,-31000,-5000,76000,848972,
1772,-9452,17596,8305,1108,-1713,-31000,-5000,76000,848974,
1508,-9140,17612,8486,1223,-1561,-30000,-5000,75000,848987,
1424,-8984,17732,8575,1220,-1561,-30000,-5000,75000,848989,
1468,-8884,17800,8614,1153,-1566,-30000,-5000,75000,848991,
1196,-8572,17776,8938,792,-1612,-29000,-5000,75000,849004,
1128,-8596,17812,8944,763,-1599,-29000,-5000,75000,849006,
1016,-8416,17724,9011,621,-1639,-28000,-5000,75000,849008,
1036,-8332,17596,9332,479,-1699,-27000,-5000,75000,849021,
980,-8300,17440,9378,334,-1676,-27000,-5000,75000,849023,
948,-8252,17544,9455,307,-1707,-27000,-5000,75000,849025,
1040,-7868,17344,9750,256,-1760,-26000,-5000,75000,849038,
920,-7792,17408,9892,262,-1752,-26000,-5000,75000,849040,
968,-7728,17288,9823,260,-1782,-26000,-5000,75000,849042,
1044,-7328,17416,10128,216,-1842,-25000,-5000,74000,849055,
916,-7432,17328,10088,213,-1881,-25000,-5000,74000,849057,
972,-7392,17408,10181,166,-1892,-24000,-5000,74000,849059,
872,-7256,17156,10421,154,-1927,-23000,-5000,74000,849072,
792,-7252,16996,10606,26,-1944,-23000,-5000,74000,849074,
684,-7108,17140,10572,84,-1906,-23000,-5000,74000,849076,
572,-6788,16872,11029,80,-1864,-22000,-5000,74000,849089,
472,-6780,16984,11034,63,-1855,-22000,-5000,74000,849091,
604,-6596,16844,11169,86,-1827,-22000,-5000,74000,849093,
804,-6224,17036,11342,387,-1841,-20000,-5000,74000,849106,
864,-6252,17040,11445,455,-1821,-20000,-5000,74000,849108,
704,-6052,17128,11454,446,-1834,-20000,-5000,74000,849110,
568,-5716,17284,11666,566,-1816,-19000,-5000,74000,849123,
492,-5692,17156,11617,621,-1812,-19000,-5000,73000,849125,
564,-5708,17072,11728,565,-1808,-19000,-5000,73000,849127,
436,-5656,16860,11909,703,-1789,-17000,-5000,73000,849140,
396,-5412,16820,11993,634,-1793,-17000,-5000,73000,849142,
452,-5416,16772,12003,770,-1745,-17000,-5000,73000,849144,
124,-5056,16712,12310,650,-1694,-16000,-5000,73000,849157,
140,-5032,16548,12315,650,-1665,-16000,-5000,73000,849159,
224,-4940,16728,12330,536,-1636,-15000,-5000,73000,849161,
76,-4508,16400,12410,437,-1582,-14000,-5000,73000,849174,
60,-4500,16672,12495,442,-1598,-14000,-5000,73000,849176,
8,-4296,16552,12605,428,-1574,-14000,-5000,73000,849178,
64,-3800,16164,12397,362,-1445,-12000,-5000,73000,849191,
-116,-3852,16200,12374,413,-1360,-12000,-5000,73000,849193,
-36,-3808,15996,12318,344,-1361,-12000,-5000,73000,849195,
-116,-3680,15736,12381,234,-1354,-11000,-5000,72000,849208,
-244,-3664,15640,12425,90,-1371,-11000,-5000,72000,849210,
-320,-3684,15532,12417,56,-1298,-10000,-5000,72000,849212,
-884,-3496,14984,12653,-412,-1094,-9000,-5000,72000,849225,
-940,-3632,14904,12513,-561,-1038,-9000,-5000,72000,849227,
-944,-3568,14860,12851,-719,-948,-9000,-5000,72000,849230,
-1224,-3044,14948,12500,-1619,-497,-8000,-5000,72000,849242,
-1252,-2872,14824,12747,-1805,-382,-7000,-5000,72000,849244,
-1256,-2724,14760,12568,-2066,-279,-7000,-5000,72000,849247,
-1248,-1904,14744,12497,-3507,97,-6000,-5000,72000,849259,
-1092,-1692,14628,12510,-3777,191,-6000,-5000,72000,849261,
-1108,-1520,14248,12302,-3893,241,-6000,-5000,72000,849264,
-736,-1220,14408,11948,-5288,531,-4000,-6000,72000,849276,
-352,-1044,14192,11997,-5371,548,-4000,-6000,72000,849279,
-228,-880,14044,11986,-5484,558,-4000,-6000,72000,849281,
348,-368,13852,11186,-5764,615,-3000,-6000,73000,849294,
608,-288,13764,11071,-5857,622,-3000,-6000,73000,849296,
800,-132,13616,10972,-5813,623,-2000,-6000,73000,849298,
1312,100,13664,10382,-5998,333,-1000,-7000,73000,849310,
1372,172,13624,10372,-6062,279,-1000,-7000,73000,849313,
1516,188,13604,10210,-6001,237,-1000,-7000,73000,849315,
1868,188,13652,9745,-5597,16,0,-8000,73000,849327,
1940,100,13528,9674,-5415,-51,0,-8000,73000,849330,
1928,236,13472,9623,-5392,-134,0,-8000,73000,849332,
2084,244,13372,9546,-5263,-168,0,-8000,73000,849334,
2148,484,13264,9279,-4760,-476,0,-9000,73000,849347,
2148,620,13252,9198,-4761,-477,0,-9000,73000,849349,
2076,592,13260,9150,-4629,-475,1000,-9000,73000,849351,
2420,688,13528,8888,-4242,-703,1000,-9000,72000,849364,
2504,768,13372,8947,-4093,-711,2000,-9000,72000,849366,
2440,824,13416,8843,-3961,-786,2000,-9000,72000,849368,
2744,1124,13500,8729,-3384,-934,3000,-10000,72000,849381,
2768,1100,13520,8660,-3269,-983,3000,-10000,72000,849383,
2736,1236,13476,8647,-3261,-1010,3000,-10000,72000,849385,
2696,1492,13424,8626,-2906,-1118,4000,-10000,72000,849398,
2784,1508,13672,8623,-2954,-1168,4000,-10000,72000,849400,
2668,1584,13648,8615,-2949,-1169,4000,-10000,72000,849402,
2516,1836,13852,8595,-3274,-1428,5000,-10000,72000,849415,
2520,1944,13952,8534,-3277,-1426,5000,-10000,72000,849417,
2492,1916,13772,8541,-3433,-1428,5000,-10000,72000,849419,
2800,1900,13808,8531,-3588,-1650,6000,-11000,72000,849432,
2848,1968,13804,8541,-3676,-1671,6000,-11000,72000,849434,
2704,2048,13504,8581,-3675,-1745,6000,-11000,72000,849436,
3236,2208,13240,8577,-3546,-1893,7000,-11000,71000,849449,
3228,2224,13220,8625,-3430,-1946,8000,-11000,71000,849451,
3324,2156,13280,8587,-3382,-2016,8000,-11000,71000,849453,
3800,2548,12864,8578,-2454,-2200,9000,-12000,71000,849466,
3756,2540,12932,8502,-2326,-2248,9000,-12000,71000,849468,
3776,2604,12932,8494,-2053,-2262,9000,-12000,71000,849470,
3868,3168,12940,8157,-1190,-2422,10000,-12000,71000,849483,
3784,3188,12940,8155,-924,-2386,10000,-12000,71000,849485,
3776,3240,12904,8078,-801,-2401,10000,-12000,71000,849488,
3508,3432,12776,7903,-18,-2638,11000,-12000,70000,849500,
3472,3440,12764,7784,32,-2653,11000,-12000,70000,849502,
3428,3460,12748,7834,186,-2673,11000,-12000,70000,849505,
3008,3524,12832,7600,419,-2658,12000,-12000,70000,849517,
2924,3612,12820,7644,498,-2622,12000,-12000,70000,849519,
2884,3552,12836,7590,532,-2647,12000,-12000,70000,849522,
2920,3788,12668,7500,496,-2500,13000,-12000,70000,849534,
2852,3780,12692,7450,454,-2458,13000,-11000,70000,849536,
2960,3900,12552,7495,468,-2509,13000,-11000,70000,849539,
2752,4260,12504,7365,359,-2474,14000,-11000,69000,849551,
2732,4140,12500,7428,398,-2463,14000,-11000,69000,849553,
2784,4196,12308,7389,394,-2397,14000,-11000,69000,849556,
2912,4400,12296,7284,491,-2250,15000,-11000,69000,849568,
2988,4600,12256,7236,441,-2220,15000,-11000,69000,849570,
2916,4640,12220,7271,486,-2225,15000,-11000,69000,849573,
2692,4868,12308,7055,475,-2145,16000,-11000,69000,849585,
2616,4908,12368,7134,473,-2131,16000,-11000,69000,849587,
2688,5064,12164,7018,485,-2098,16000,-11000,69000,849590,
2672,5248,12168,6715,555,-1878,17000,-11000,69000,849602,
2732,5304,12240,6637,640,-1881,17000,-11000,69000,849605,
2780,5440,12308,6632,603,-1903,17000,-11000,69000,849607,
2748,5696,11796,6310,824,-1817,18000,-11000,68000,849619,
2792,5688,11872,6316,786,-1755,18000,-11000,68000,849622,
2688,5616,11840,6295,882,-1772,18000,-11000,68000,849624,
2492,5728,11696,6127,923,-1734,19000,-11000,68000,849636,
2488,5792,11796,6032,958,-1646,19000,-11000,68000,849639,
2532,5832,11784,6057,1017,-1625,19000,-11000,68000,849641,
2832,6116,11476,5795,1310,-1432,20000,-10000,68000,849653,
2744,6048,11388,5671,1346,-1474,20000,-10000,68000,849656,
2712,6180,11412,5638,1391,-1424,20000,-10000,68000,849658,
2800,6372,11784,5297,1587,-1480,21000,-10000,68000,849671,
2908,6440,11580,5328,1554,-1472,21000,-10000,68000,849673,
2728,6556,11608,5240,1543,-1491,21000,-10000,68000,849675,
2556,6672,11704,4977,1244,-1285,21000,-10000,68000,849688,
2472,6624,11788,4883,1266,-1231,22000,-10000,68000,849690,
2376,6600,11896,4816,1146,-1193,22000,-10000,68000,849692,
2180,6836,11788,4590,600,-1346,22000,-10000,68000,849705,
2200,6876,11724,4612,497,-1353,22000,-10000,68000,849707,
2004,6912,11696,4536,389,-1332,22000,-10000,68000,849709,
2328,7028,11272,4403,140,-960,23000,-10000,68000,849722,
2392,6968,11040,4328,96,-917,23000,-10000,67000,849724,
2416,6812,10876,4346,107,-931,23000,-10000,67000,849726,
2572,6892,10616,4096,509,-803,23000,-10000,67000,849739,
2576,6896,10648,4087,551,-809,24000,-10000,67000,849741,
2656,6892,10620,4005,558,-791,24000,-10000,67000,849743,
2476,7132,10448,3681,1124,-540,24000,-9000,67000,849755,
2436,7216,10392,3573,1131,-465,24000,-9000,67000,849758,
2392,7232,10520,3516,1214,-431,24000,-9000,67000,849760,
2176,7720,10784,3030,1015,-77,25000,-9000,67000,849773,
2276,7752,10808,2958,1002,-30,25000,-9000,67000,849775,
2224,7840,10836,2861,891,-87,25000,-9000,67000,849777,
2256,7724,10852,2566,553,-233,25000,-9000,67000,849790,
2252,7736,10840,2463,419,-241,25000,-9000,67000,849792,
2332,7856,10996,2497,415,-237,25000,-9000,67000,849794,
2400,7828,10672,2306,206,-165,25000,-9000,67000,849807,
2320,7820,10756,2346,231,-111,25000,-9000,67000,849809,
2360,7836,10552,2276,225,-116,25000,-9000,67000,849811,
2480,7972,10772,2090,339,-135,26000,-9000,67000,849824,
2388,8052,10656,2059,373,-106,26000,-9000,67000,849826,
2384,8096,10812,2001,330,-72,26000,-9000,67000,849828,
2184,8168,10968,1630,393,183,26000,-9000,67000,849841,
2152,8208,11208,1523,238,192,26000,-9000,67000,849843,
2136,8292,11268,1569,215,230,26000,-9000,67000,849845,
2292,8352,11300,1281,3,477,26000,-9000,67000,849858,
2312,8324,11236,1254,-1,491,26000,-9000,67000,849860,
2400,8504,11536,1202,-141,543,26000,-9000,67000,849862,
2320,8408,11564,1224,-118,572,26000,-9000,67000,849865,
2712,8496,11768,1079,-259,658,27000,-9000,67000,849877,
2688,8576,11424,1087,-179,688,27000,-9000,67000,849879,
2784,8784,11632,1013,-228,709,27000,-9000,67000,849882,
3164,9140,11992,833,-122,653,27000,-9000,68000,849894,
3072,9140,12096,789,-158,619,27000,-9000,68000,849896,
3124,9224,12032,743,-109,580,27000,-9000,68000,849899,
2928,9128,12700,599,-579,427,27000,-9000,68000,849911,
2908,9096,12424,575,-552,385,27000,-9000,68000,849913,
2820,9060,12496,475,-721,392,27000,-9000,68000,849916,
2692,8668,12836,542,-1171,317,27000,-10000,68000,849928,
2700,8704,12736,634,-1167,294,27000,-10000,68000,849931,
2752,8648,12632,596,-1302,287,27000,-10000,68000,849933,
2724,8728,12824,777,-1723,346,27000,-10000,67000,849945,
2832,8848,12848,736,-1724,373,27000,-10000,67000,849948,
2912,8808,12924,781,-1817,375,27000,-10000,67000,849950,
3272,9000,13020,869,-1959,381,27000,-10000,67000,849962,
3344,9016,13176,922,-2004,355,27000,-10000,67000,849965,
3428,9120,13148,952,-1947,347,27000,-10000,67000,849967,
