Ax,Ay,Az,Gx,Gy,Gz,Roll,Pitch,Yaw,Timestamp,Target
-4724,344,14540,-9689,1616,-9570,0,18000,229000,743096,
-5584,392,14712,-9889,1158,-9568,-1000,18000,228000,743108,
-5728,312,14832,-9842,1057,-9513,-1000,18000,228000,743110,
-6000,324,14932,-9932,837,-9526,-2000,18000,227000,743113,
-6136,-152,15092,-10364,-152,-9307,-3000,18000,226000,743125,
-6176,-172,15268,-10488,-300,-9215,-3000,18000,226000,743128,
-6232,-248,15480,-10548,-436,-9202,-3000,18000,226000,743130,
-5988,-964,15712,-10845,-817,-8853,-5000,18000,225000,743143,
-5944,-1088,15924,-10768,-759,-8745,-5000,18000,225000,743145,
-5948,-1204,16136,-10800,-811,-8771,-5000,18000,225000,743147,
-5836,-1328,16548,-10660,-250,-8489,-7000,18000,224000,743160,
-5840,-1428,16776,-10728,-110,-8362,-7000,18000,224000,743162,
-5836,-1348,16820,-10623,177,-8241,-7000,18000,224000,743165,
-6112,-1580,17108,-10423,723,-8024,-8000,18000,223000,743177,
-6264,-1668,17188,-10272,832,-7907,-9000,18000,223000,743180,
-6428,-1608,17104,-10318,784,-7885,-9000,18000,223000,743182,
-6592,-1920,17332,-10066,844,-7576,-10000,18000,222000,743195,
-6632,-2016,17584,-10079,733,-7573,-10000,18000,222000,743197,
-7048,-2620,17940,-9675,556,-7269,-11000,18000,221000,743209,
-7024,-2836,17812,-9664,430,-7182,-12000,18000,221000,743212,
-6984,-2892,17900,-9585,465,-7101,-12000,18000,221000,743214,
-6952,-2992,18004,-9060,63,-6674,-13000,18000,220000,743226,
-6740,-2888,17992,-8971,139,-6552,-13000,17000,220000,743229,
-6912,-2792,17988,-8982,128,-6514,-13000,17000,220000,743231,
-6600,-2724,18076,-8656,682,-6237,-14000,17000,219000,743244,
-6620,-2712,18028,-8599,861,-6140,-14000,17000,219000,743246,
-6488,-2708,18184,-8549,1050,-6094,-15000,17000,219000,743248,
-6636,-3036,18212,-8041,2308,-5775,-15000,17000,218000,743261,
-6604,-3152,18328,-7954,2649,-5679,-16000,17000,218000,743263,
-6712,-3252,18292,-7865,2877,-5628,-16000,18000,218000,743266,
-7016,-3508,18340,-7325,4189,-5297,-17000,18000,218000,743278,
-7196,-3428,18452,-7222,4455,-5203,-17000,18000,217000,743281,
-7368,-3472,18400,-6630,5445,-4846,-18000,18000,217000,743293,
-7560,-3516,18436,-6519,5616,-4786,-18000,18000,217000,743296,
-7536,-3592,18456,-6376,5743,-4724,-18000,18000,217000,743298,
-8140,-3264,18452,-5641,6090,-4348,-19000,19000,216000,743311,
-8216,-3192,18400,-5460,6107,-4279,-19000,19000,216000,743313,
-8236,-3008,18372,-5390,6011,-4220,-19000,19000,216000,743315,
-8960,-2820,18124,-4841,5267,-3834,-19000,19000,215000,743328,
-9020,-2736,18188,-4772,5024,-3706,-20000,19000,215000,743330,
-9064,-2636,17940,-4442,3697,-3313,-20000,20000,215000,743342,
-9056,-2636,17924,-4340,3487,-3260,-20000,20000,215000,743345,
-9028,-2592,18008,-4272,3310,-3191,-20000,20000,215000,743347,
-8480,-3000,17752,-3867,2384,-2814,-21000,20000,214000,743359,
-8472,-3008,17856,-3745,2327,-2786,-21000,20000,214000,743362,
-8352,-2964,17796,-3684,2201,-2696,-21000,20000,214000,743364,
-7696,-2932,17760,-3108,2015,-2390,-21000,20000,214000,743376,
-7640,-2880,17748,-2991,2014,-2358,-21000,20000,214000,743379,
-7552,-2768,17628,-2638,2165,-2201,-21000,20000,213000,743391,
-7672,-2880,17584,-2534,2150,-2174,-22000,20000,213000,743394,
-7592,-2744,17648,-2521,2131,-2133,-22000,20000,213000,743396,
-7756,-3092,17436,-2124,2017,-1848,-22000,20000,213000,743409,
-7708,-3100,17268,-2111,1941,-1793,-22000,20000,213000,743411,
-7620,-3236,17348,-2016,1928,-1708,-22000,20000,213000,743413,
-7528,-3500,16940,-1686,1781,-1391,-22000,21000,213000,743426,
-7388,-3588,16912,-1604,1752,-1328,-22000,21000,213000,743428,
-7288,-3672,16920,-1550,1772,-1299,-22000,21000,213000,743431,
-7224,-3744,16552,-1189,1592,-1012,-22000,21000,213000,743443,
-7256,-3652,16692,-1164,1631,-936,-22000,21000,213000,743446,
-6652,-3520,16260,-939,1624,-778,-22000,21000,213000,743458,
-6628,-3464,16404,-930,1630,-772,-22000,21000,213000,743460,
-6568,-3472,16156,-871,1671,-748,-22000,21000,213000,743463,
-6292,-3328,16112,-662,1949,-756,-22000,21000,212000,743475,
-6264,-3400,16136,-573,2009,-747,-22000,21000,212000,743478,
-6264,-3404,16168,-542,2018,-807,-22000,21000,212000,743480,
-6748,-3488,15668,-292,1878,-745,-22000,21000,212000,743493,
-6688,-3504,15556,-334,1782,-757,-22000,21000,212000,743495,
-6764,-3516,15480,-268,1690,-752,-22000,21000,212000,743497,
-6652,-3532,15272,-314,1199,-676,-22000,21000,212000,743510,
-6576,-3592,15204,-307,1128,-634,-22000,21000,212000,743512,
-6488,-3576,15192,-341,1052,-649,-22000,21000,212000,743514,
-6252,-3860,14992,-261,855,-530,-22000,22000,212000,743527,
-6252,-3800,14932,-245,837,-535,-22000,22000,212000,743529,
-6092,-3740,15076,-195,806,-537,-22000,22000,212000,743532,
-6116,-3748,14628,-134,927,-534,-22000,22000,212000,743544,
-6140,-3808,14780,-81,905,-513,-22000,22000,212000,743546,
-6056,-3756,14696,-117,901,-543,-22000,22000,212000,743549,
-6152,-3912,14356,-86,868,-513,-22000,22000,212000,743561,
-6112,-3948,14288,-92,867,-488,-22000,22000,212000,743564,
-6136,-3992,14236,-85,865,-482,-22000,22000,212000,743566,
-6132,-4072,14048,-68,925,-440,-22000,22000,212000,743579,
-6112,-3980,14024,-116,976,-460,-22000,22000,212000,743581,
-6132,-3980,14024,-36,1007,-424,-22000,22000,212000,743583,
-6396,-4000,14084,-130,919,-420,-22000,22000,212000,743596,
-6376,-3996,13884,-103,891,-410,-22000,22000,212000,743598,
-6400,-4092,13984,-165,860,-374,-22000,22000,212000,743601,
-6460,-4052,13792,-271,562,-267,-22000,22000,212000,743613,
-6516,-4076,13604,-336,421,-240,-22000,22000,212000,743615,
-6448,-3972,13796,-309,491,-216,-22000,22000,212000,743618,
-6296,-4152,13608,-423,345,-155,-22000,22000,212000,743630,
-6204,-4092,13668,-394,404,-131,-22000,22000,212000,743633,
-6196,-3996,13624,-445,387,-137,-22000,22000,212000,743635,
-6276,-4040,13692,-400,589,-191,-22000,22000,212000,743648,
-6272,-4012,13656,-414,532,-224,-22000,22000,212000,743650,
-6472,-3996,13620,-388,575,-210,-22000,22000,212000,743652,
-6680,-4008,13956,-385,151,-299,-22000,22000,212000,743665,
-6704,-3920,13848,-385,92,-319,-22000,22000,212000,743667,
-6844,-3948,13924,-434,-33,-312,-22000,22000,212000,743669,
-6556,-3816,13928,-487,-444,-335,-22000,22000,212000,743682,
-6532,-3808,13804,-560,-548,-353,-22000,22000,212000,743684,
-6344,-3808,13900,-541,-540,-341,-22000,22000,212000,743687,
-5904,-3876,13960,-564,-172,-293,-22000,22000,212000,743699,
-5976,-3752,13832,-574,-50,-312,-22000,22000,212000,743702,
-5820,-3832,14052,-507,138,-279,-22000,22000,212000,743704,
-5884,-3856,14060,-408,1039,-337,-23000,22000,211000,743717,
-6104,-3856,14140,-345,1156,-359,-23000,22000,211000,743719,
-6124,-3832,14236,-338,1259,-346,-23000,22000,211000,743721,
-6660,-3876,14152,-255,1371,-309,-23000,22000,211000,743734,
-6736,-3844,14076,-166,1359,-265,-23000,22000,211000,743736,
-6888,-3940,14060,-237,1288,-274,-23000,22000,211000,743739,
-6996,-3940,14116,-186,846,-181,-23000,22000,211000,743751,
-7012,-3944,14196,-222,745,-173,-23000,22000,211000,743753,
-6904,-3916,13904,-164,710,-186,-23000,22000,211000,743756,
-6756,-3684,13964,-131,411,-108,-22000,22000,211000,743768,
-6656,-3896,14048,-124,382,-92,-22000,22000,211000,743771,
-6704,-3788,14060,-66,462,-95,-22000,22000,211000,743773,
-6596,-3832,13884,-102,489,-68,-22000,23000,211000,743786,
-6576,-3800,13808,-56,583,-48,-22000,23000,211000,743788,
-6476,-3828,13996,-97,577,-69,-22000,23000,211000,743790,
-6348,-3872,13800,-47,929,-23,-22000,23000,211000,743803,
-6328,-3876,13836,-83,937,-27,-22000,23000,211000,743805,
-6404,-3916,13912,-57,1030,-15,-22000,23000,211000,743808,
-6572,-3952,13704,-26,1286,-30,-22000,23000,211000,743820,
-6536,-3932,13884,-35,1237,-12,-22000,23000,211000,743822,
-6604,-3968,13860,-10,1303,-6,-22000,23000,211000,743825,
-6724,-3968,13788,-4,1129,1,-22000,23000,211000,743837,
-6656,-3960,13848,90,1198,-7,-22000,23000,211000,743840,
-6784,-3980,13800,30,1113,5,-22000,23000,211000,743842,
-6664,-3824,13672,105,889,1,-22000,23000,211000,743854,
-6632,-3816,13560,47,840,-14,-22000,23000,211000,743857,
-6720,-3792,13812,100,755,-11,-22000,23000,211000,743859,
-6488,-3756,13792,49,655,-66,-22000,23000,211000,743872,
-6412,-3832,13816,104,665,-89,-22000,23000,211000,743874,
-6436,-3752,13684,60,655,-91,-22000,23000,211000,743876,
-6408,-3780,13832,126,717,-151,-22000,23000,211000,743889,
-6464,-3712,13752,84,692,-156,-22000,23000,211000,743891,
-6348,-3680,13748,89,756,-167,-22000,23000,211000,743894,
-6304,-3672,13764,56,810,-260,-22000,23000,211000,743906,
-6384,-3632,13860,60,791,-238,-22000,23000,211000,743908,
-6368,-3592,13780,82,843,-287,-22000,23000,211000,743911,
-6556,-3700,13936,16,761,-299,-22000,23000,211000,743923,
-6592,-3640,14072,40,800,-320,-22000,23000,211000,743926,
-6616,-3760,13936,32,706,-311,-22000,23000,211000,743928,
-6608,-3768,13848,44,615,-291,-22000,24000,211000,743941,
-6780,-3688,13792,-28,545,-281,-22000,24000,211000,743943,
-6692,-3752,13924,68,548,-264,-22000,24000,211000,743945,
-6868,-3916,13808,57,281,-204,-22000,24000,211000,743958,
-6844,-3892,13664,-14,196,-166,-22000,24000,211000,743960,
-6756,-3864,13628,19,198,-129,-22000,24000,211000,743962,
-6584,-3768,13720,-116,40,-78,-22000,24000,211000,743975,
-6552,-3700,13824,-52,110,-36,-22000,24000,211000,743977,
-6428,-3716,13728,-142,81,-45,-22000,24000,211000,743980,
-6388,-3684,13876,-129,444,22,-22000,24000,211000,743992,
-6364,-3696,13856,-174,474,19,-22000,24000,211000,743995,
-6308,-3636,13880,-132,547,29,-22000,24000,211000,743997,
-6688,-3592,13920,-173,851,9,-22000,24000,211000,744009,
-6596,-3536,13896,-174,915,7,-22000,24000,211000,744012,
-6560,-3564,13804,-169,903,30,-22000,24000,211000,744014,
-7008,-3524,13756,-219,746,-5,-22000,24000,211000,744027,
-6952,-3564,13660,-248,590,19,-22000,24000,211000,744029,
-7044,-3556,13656,-260,574,30,-22000,24000,211000,744031,
-6948,-3608,13548,-392,96,55,-22000,24000,211000,744044,
-7000,-3600,13784,-341,131,65,-22000,24000,211000,744046,
-6904,-3640,13656,-421,12,75,-22000,24000,211000,744049,
-6628,-3704,13744,-408,141,85,-22000,24000,211000,744061,
-6676,-3672,13760,-413,109,88,-22000,24000,211000,744063,
-6576,-3736,13736,-386,228,77,-22000,24000,211000,744066,
-6796,-3756,13672,-314,388,98,-22000,24000,211000,744078,
-6752,-3732,13552,-343,352,131,-22000,24000,211000,744081,
-6688,-3752,13640,-305,440,105,-22000,24000,211000,744083,
-6852,-3644,13640,-349,371,94,-22000,24000,211000,744096,
-6832,-3820,13692,-336,431,84,-22000,24000,211000,744098,
-6800,-3692,13680,-386,366,107,-22000,24000,211000,744100,
-6656,-3744,13624,-293,400,138,-22000,24000,211000,744113,
-6768,-3728,13640,-348,383,122,-22000,24000,211000,744115,
-6676,-3748,13612,-269,438,127,-22000,24000,211000,744117,
-6732,-3704,13540,-342,460,68,-22000,24000,211000,744130,
-6620,-3608,13504,-297,433,45,-22000,24000,211000,744132,
-6744,-3664,13512,-346,502,62,-22000,24000,211000,744134,
-6788,-3592,13500,-335,559,-13,-22000,24000,211000,744147,
-6764,-3596,13548,-305,499,-48,-22000,24000,211000,744149,
-6820,-3476,13472,-324,567,-35,-22000,24000,211000,744152,
-6956,-3592,13568,-390,330,15,-22000,24000,211000,744164,
-6900,-3612,13396,-347,363,7,-22000,24000,211000,744166,
-6932,-3628,13388,-440,228,11,-22000,24000,211000,744169,
-6896,-3552,13368,-511,75,45,-22000,24000,211000,744181,
-6776,-3552,13388,-588,-1,45,-22000,24000,211000,744184,
-6672,-3624,13372,-544,26,70,-22000,24000,211000,744186,
-6456,-3460,13568,-659,96,50,-22000,24000,211000,744199,
-6428,-3608,13496,-602,272,47,-22000,24000,211000,744201,
-6424,-3508,13536,-614,245,19,-22000,24000,211000,744203,
-6500,-3704,13644,-544,545,-46,-22000,24000,211000,744216,
-6616,-3664,13592,-512,530,-53,-22000,24000,211000,744218,
-6652,-3752,13792,-499,543,-41,-22000,24000,211000,744221,
-7016,-3668,13756,-457,318,-64,-22000,24000,211000,744233,
-7080,-3660,13676,-471,167,-73,-22000,24000,211000,744235,
-7044,-3612,13656,-456,171,-93,-22000,24000,211000,744238,
-6764,-3432,13612,-596,-226,-105,-22000,24000,211000,744250,
-6656,-3384,13728,-584,-232,-122,-22000,24000,211000,744253,
-6648,-3404,13564,-649,-229,-138,-22000,24000,211000,744255,
-6376,-3520,13720,-624,51,-195,-22000,24000,211000,744268,
-6412,-3592,13880,-650,34,-215,-22000,24000,211000,744270,
-6436,-3516,13760,-596,223,-192,-22000,24000,211000,744272,
-6844,-3648,13860,-572,354,-186,-22000,24000,211000,744285,
-6864,-3640,13692,-520,387,-170,-22000,24000,211000,744287,
-6980,-3728,13688,-588,295,-137,-22000,24000,211000,744290,
-7288,-3760,13876,-572,68,-107,-22000,24000,211000,744302,
-7236,-3756,13920,-598,-71,-72,-22000,24000,211000,744304,
-7352,-3760,13760,-573,-96,-85,-22000,24000,211000,744307,
-7036,-3712,13904,-599,-431,39,-22000,24000,211000,744319,
-7120,-3668,13892,-643,-460,20,-22000,24000,211000,744322,
-6904,-3688,14044,-616,-485,-6,-22000,24000,211000,744324,
-6648,-3640,14100,-645,-356,2,-22000,24000,211000,744337,
-6664,-3640,13968,-628,-349,18,-22000,24000,211000,744339,
-6656,-3600,13896,-628,-231,5,-22000,24000,211000,744341,
-6752,-3676,13816,-517,125,41,-22000,24000,211000,744354,
-6796,-3712,13988,-548,130,51,-22000,24000,211000,744356,
-6816,-3648,13780,-501,146,70,-22000,24000,211000,744358,
-6920,-3640,13936,-500,186,132,-22000,24000,211000,744371,
-7040,-3624,13872,-475,160,140,-22000,24000,211000,744373,
-7152,-3584,13696,-508,133,184,-22000,24000,211000,744375,
-7008,-3460,14032,-526,-147,192,-22000,24000,211000,744388,
-6964,-3508,14084,-610,-232,198,-22000,24000,211000,744390,
-7080,-3484,13996,-564,-193,189,-22000,24000,211000,744392,
-6944,-3420,14220,-632,-123,240,-22000,24000,211000,744405,
-6860,-3364,14184,-570,-98,258,-22000,24000,211000,744407,
-6888,-3424,14224,-568,-28,238,-22000,24000,211000,744409,
-7124,-3376,14384,-535,222,275,-22000,24000,211000,744422,
-7292,-3388,14540,-503,312,291,-22000,25000,211000,744424,
-7208,-3308,14684,-518,228,289,-22000,25000,211000,744426,
-7828,-3148,15148,-554,107,435,-22000,25000,212000,744439,
-8256,-2932,15664,-562,-249,621,-22000,25000,212000,744452,
-8320,-3044,15820,-625,-404,659,-22000,25000,212000,744454,
-8348,-3020,15948,-548,-476,721,-22000,25000,212000,744456,
-8788,-2916,16292,-517,-1198,1023,-22000,25000,212000,744469,
-9004,-2824,16292,-452,-1274,1049,-22000,25000,212000,744471,
-9004,-2792,16564,-505,-1460,1098,-22000,24000,212000,744474,
-9868,-2652,17008,-443,-2493,1437,-22000,24000,212000,744486,
-10112,-2632,17088,-506,-2893,1559,-22000,24000,212000,744488,
-10104,-2632,17336,-456,-3056,1633,-21000,24000,212000,744491,
-10424,-2496,18164,-677,-4695,2310,-21000,24000,213000,744503,
-10416,-2444,18528,-678,-4889,2442,-21000,24000,213000,744506,
-10256,-2464,18640,-717,-5196,2635,-21000,24000,213000,744508,
-9708,-2392,19860,-504,-5844,3270,-21000,23000,214000,744521,
-9664,-2352,19900,-457,-5866,3402,-21000,23000,214000,744523,
-9632,-2308,19944,-384,-5833,3481,-21000,23000,214000,744525,
-9788,-2244,21124,112,-5917,4093,-21000,23000,214000,744538,
-9920,-2140,21124,211,-5947,4189,-20000,23000,215000,744540,
-10588,-2012,22000,657,-6587,4962,-20000,22000,215000,744553,
-10768,-2076,22168,702,-6730,5092,-20000,22000,215000,744555,
-10920,-2068,22392,861,-6962,5237,-20000,22000,216000,744557,
-11536,-2012,23172,1537,-8461,6147,-19000,22000,217000,744570,
-11608,-1940,23512,1686,-8676,6378,-19000,22000,217000,744572,
-11648,-1864,23548,1749,-9108,6576,-19000,22000,217000,744575,
-11892,-1616,24172,2404,-10814,7624,-18000,21000,218000,744587,
-11616,-1668,24248,2484,-11248,7877,-18000,21000,218000,744590,
-11644,-1608,24208,2617,-11401,8036,-18000,21000,218000,744592,
-10884,-1940,24516,3391,-12796,9303,-17000,20000,220000,744605,
-10448,-1968,24344,3409,-13057,9543,-17000,20000,220000,744607,
-8976,-1800,24980,4351,-13216,10352,-16000,19000,221000,744619,
-8688,-1716,25096,4503,-13235,10542,-16000,18000,222000,744622,
-8388,-1712,25132,4726,-12951,10603,-16000,18000,222000,744624,
-7528,-1752,25288,5925,-12058,11193,-15000,17000,223000,744637,
-7492,-1784,25300,6243,-11701,11263,-14000,17000,224000,744639,
-7464,-1888,25296,6402,-11647,11328,-14000,17000,224000,744641,
-7744,-2108,24928,7775,-11461,11596,-13000,16000,225000,744654,
-7740,-2164,24860,7924,-11465,11628,-13000,16000,226000,744656,
-7892,-2272,23984,9007,-12522,11954,-11000,15000,227000,744669,
-7732,-2288,23980,9119,-12780,12036,-11000,15000,227000,744671,
-7520,-2296,23984,9369,-12989,12093,-11000,15000,228000,744674,
-6628,-2412,23420,10469,-13838,12113,-9000,14000,229000,744686,
-6492,-2480,23228,10690,-14009,12025,-9000,14000,229000,744688,
-6392,-2556,23144,10832,-14101,12097,-9000,13000,230000,744691,
-5368,-2664,22324,11896,-14179,12181,-7000,12000,231000,744703,
-5172,-2628,22236,12021,-14078,12010,-7000,12000,231000,744705,
-4168,-2872,21812,13067,-13744,11991,-6000,11000,233000,744718,
-4060,-2808,21744,13101,-13664,11977,-5000,11000,233000,744720,
-3828,-2892,21844,13301,-13588,11944,-5000,10000,233000,744723,
-2704,-2764,21148,14208,-12360,11657,-4000,9000,234000,744735,
-2568,-2700,21072,14464,-12223,11635,-3000,9000,235000,744737,
-2492,-2752,21152,14590,-11959,11462,-3000,9000,235000,744740,
-2504,-2508,20088,15610,-11170,10901,-1000,8000,236000,744752,
-2420,-2552,19844,15719,-11166,10812,-1000,8000,236000,744755,
-2536,-2464,18684,16268,-11497,10358,0,7000,237000,744767,
-2464,-2444,18448,16344,-11563,10271,0,6000,237000,744769,
-2356,-2388,18272,16533,-11717,10212,0,6000,237000,744772,
-1660,-1992,17424,16945,-12355,9798,2000,5000,238000,744784,
-1524,-1940,17264,17080,-12481,9778,2000,5000,239000,744787,
-1380,-1792,17076,17016,-12457,9653,3000,4000,239000,744789,
-752,-1728,16476,17219,-12943,9019,4000,3000,239000,744802,
-632,-1828,16316,17161,-12852,8913,5000,3000,240000,744804,
-420,-1932,16328,17194,-12942,8797,5000,3000,240000,744806,
292,-2016,15376,17088,-12771,8036,6000,1000,240000,744819,
512,-2108,15036,17133,-12855,7921,7000,1000,240000,744821,
652,-2048,14928,17075,-12653,7800,7000,1000,241000,744824,
1468,-2128,14520,17032,-12193,7143,9000,0,241000,744836,
1696,-2120,14536,17073,-12126,6975,9000,0,241000,744838,
1756,-2032,14564,17068,-12087,6831,9000,0,241000,744841,
2464,-1496,13968,17001,-11745,5967,11000,-1000,242000,744853,
2692,-1528,13760,17005,-11597,5811,11000,-1000,242000,744856,
2620,-1380,13764,17007,-11685,5652,11000,-2000,242000,744858,
3068,-828,12836,16850,-11372,4670,13000,-3000,242000,744871,
3172,-712,12836,16861,-11443,4506,13000,-3000,242000,744873,
3220,-608,12548,16754,-11453,4302,13000,-3000,242000,744875,
3788,-404,11584,16270,-11551,3294,15000,-5000,242000,744888,
4008,-356,11368,16092,-11644,3099,15000,-5000,242000,744890,
4116,-388,11284,16043,-11627,2881,15000,-5000,242000,744893,
4964,-72,10936,15687,-11203,1980,17000,-6000,242000,744905,
5136,76,10644,15633,-10996,1800,17000,-7000,242000,744907,
5392,236,10380,15475,-10850,1622,17000,-7000,242000,744910,
6212,808,10016,14929,-9675,699,19000,-8000,242000,744922,
6252,740,9792,14747,-9566,464,19000,-8000,242000,744925,
6396,832,9496,14660,-9331,292,19000,-8000,242000,744927,
6708,892,8868,13653,-8061,-595,20000,-9000,241000,744939,
6780,808,8828,13479,-7695,-721,21000,-9000,241000,744942,
6844,920,8728,13355,-7485,-916,21000,-9000,241000,744944,
7428,1184,8512,12616,-5567,-1775,22000,-10000,241000,744956,
7452,1184,8320,12462,-5303,-1969,22000,-10000,241000,744959,
7460,1348,8176,12419,-4959,-2092,23000,-10000,241000,744961,
7304,1784,8116,11738,-3286,-2982,24000,-11000,240000,744973,
7696,2084,7656,11885,-3620,-3215,24000,-11000,240000,744976,
7832,2372,7268,11593,-3169,-3429,24000,-11000,240000,744978,
7068,2304,7120,10881,-2917,-4398,25000,-11000,240000,744991,
6944,2236,7148,10798,-2976,-4520,25000,-11000,239000,744993,
6892,2220,7292,10635,-3025,-4702,26000,-11000,239000,744995,
6792,2048,6932,10297,-3818,-5785,27000,-11000,239000,745008,
6932,1956,6892,10149,-3867,-5971,27000,-11000,239000,745010,
6748,2056,6760,10057,-4102,-6159,27000,-11000,238000,745013,
6756,2072,6312,9586,-4489,-7214,28000,-12000,238000,745025,
6796,2128,6116,9485,-4584,-7437,28000,-12000,237000,745028,
6924,2152,5876,9472,-4565,-7600,29000,-12000,237000,745030,
6684,2248,5364,9030,-4871,-8599,30000,-12000,236000,745042,
6732,2116,5164,9022,-4936,-8745,30000,-12000,236000,745045,
6792,2064,4840,8840,-4949,-8947,30000,-12000,236000,745047,
6864,2128,4508,8297,-4735,-9821,31000,-12000,235000,745059,
6924,2120,4516,8217,-4485,-9956,31000,-12000,235000,745062,
6860,2152,4508,8161,-4408,-10110,31000,-12000,235000,745064,
6912,2656,4208,7724,-3309,-10719,32000,-12000,233000,745077,
6728,2928,4112,7653,-3157,-10841,33000,-12000,233000,745079,
6728,2996,3924,7467,-2891,-10910,33000,-12000,233000,745081,
6240,3680,3536,6776,-2085,-11504,34000,-12000,232000,745094,
6220,3612,3340,6555,-2033,-11610,34000,-12000,232000,745096,
6152,3736,3252,6475,-1884,-11748,34000,-12000,232000,745098,
5596,3840,2824,5678,-1354,-12232,35000,-11000,231000,745111,
5444,3840,2844,5609,-1252,-12309,35000,-11000,230000,745113,
5364,4060,2700,5450,-1165,-12426,35000,-11000,230000,745116,
5012,4284,2312,4931,-699,-12903,36000,-11000,229000,745128,
4848,4464,2552,4786,-680,-13007,36000,-11000,229000,745131,
4840,4528,2400,4701,-617,-13048,36000,-11000,229000,745133,
4416,5144,2220,4041,-375,-13395,37000,-10000,228000,745146,
4372,5412,2080,3938,-269,-13511,37000,-10000,227000,745148,
4212,5496,2044,3689,-180,-13558,37000,-10000,227000,745150,
3848,6216,2012,2928,433,-13874,38000,-9000,226000,745163,
3784,6336,1864,2692,501,-14003,38000,-9000,226000,745165,
3800,6512,1816,2612,647,-14011,38000,-9000,226000,745168,
3348,6920,1656,1639,1349,-14392,39000,-8000,225000,745180,
3144,7244,1588,1538,1526,-14400,39000,-8000,224000,745182,
3032,7412,1572,1214,1678,-14502,39000,-8000,224000,745185,
2304,7904,1348,253,2352,-14924,39000,-7000,223000,745197,
2236,7972,1348,52,2459,-14940,39000,-6000,223000,745200,
2012,8164,1412,-134,2447,-15052,39000,-6000,223000,745202,
1236,8632,1320,-1364,2673,-15247,40000,-5000,222000,745215,
904,8744,1536,-1624,2738,-15334,40000,-5000,222000,745217,
752,8656,1508,-1829,2798,-15349,40000,-5000,221000,745219,
-212,8468,1688,-3054,3151,-15755,40000,-3000,221000,745232,
-420,8444,1772,-3230,3337,-15779,40000,-3000,220000,745234,
-460,8236,1744,-3485,3405,-15867,40000,-3000,220000,745236,
-1712,7904,2228,-4336,4118,-16014,39000,-2000,219000,745249,
-1740,7964,2212,-4496,4253,-16123,39000,-1000,219000,745251,
-1928,7900,2380,-4582,4430,-16075,39000,-1000,219000,745254,
-3372,7632,2348,-5242,4984,-16241,39000,0,218000,745266,
-3724,7580,2560,-5388,5081,-16219,39000,0,218000,745269,
-3924,7440,2332,-5581,5135,-16249,39000,0,218000,745271,
-6032,7280,3256,-5834,5445,-16189,38000,2000,217000,745283,
-6144,7760,3348,-5890,5493,-16173,38000,2000,217000,745286,
-6772,7768,3716,-6155,5351,-16072,38000,2000,216000,745288,
-8168,7716,4288,-6659,4964,-15637,38000,4000,216000,745300,
-8304,7844,4312,-6713,4893,-15545,38000,4000,215000,745303,
-8644,7848,4584,-6754,4800,-15491,37000,4000,215000,745305,
-9976,8564,4836,-7190,4523,-14736,37000,6000,214000,745318,
-10308,8792,4572,-7407,4383,-14588,37000,6000,214000,745320,
-10484,8784,4332,-7615,4358,-14384,36000,6000,214000,745322,
-11528,8792,4584,-8968,4374,-13425,36000,8000,213000,745335,
-11808,8676,4752,-9036,4561,-13109,35000,8000,213000,745337,
-11992,8672,5108,-9240,4638,-12910,35000,8000,213000,745340,
-12680,8940,6184,-9483,5909,-11489,34000,9000,212000,745352,
-12680,8956,5972,-9644,6091,-11264,34000,10000,212000,745355,
-12924,8968,6280,-9643,6255,-10982,34000,10000,212000,745357,
-14136,8520,7524,-10100,6599,-9804,33000,11000,212000,745369,
-14260,8468,7524,-10102,6696,-9589,33000,11000,212000,745372,
-14576,8404,7848,-10169,6743,-9360,33000,12000,212000,745374,
-15236,9700,8452,-9899,7370,-8065,32000,13000,211000,745387,
-15292,10096,8580,-9883,7492,-7779,31000,13000,211000,745389,
-15256,10380,8604,-9848,7596,-7580,31000,13000,211000,745391,
-16072,11480,8512,-10041,7900,-6469,30000,15000,211000,745404,
-16588,11544,8536,-10073,7796,-6276,30000,15000,211000,745406,
-16848,11628,8668,-10140,7739,-6036,30000,15000,211000,745409,
-18916,11136,9648,-10444,6687,-4540,29000,16000,211000,745421,
-19032,11312,9924,-10546,6378,-4190,29000,16000,211000,745424,
-19416,11488,10688,-11300,4939,-2236,28000,17000,211000,745436,
-19144,11352,10888,-11447,4752,-1914,28000,17000,211000,745439,
-19112,11324,10952,-11654,4490,-1599,28000,17000,211000,745441,
-18468,9816,12264,-12068,4108,175,27000,18000,211000,745454,
-18500,9560,12308,-12098,4108,455,26000,18000,211000,745456,
-18248,9476,12384,-12095,4217,762,26000,18000,212000,745458,
-17980,9200,13376,-11681,5069,2288,25000,18000,212000,745471,
-17796,9292,13624,-11620,5295,2628,25000,18000,212000,745473,
-18004,9384,13844,-11498,5449,2955,25000,19000,212000,745475,
-18052,9996,14748,-11197,5231,5013,24000,19000,213000,745488,
-18124,10040,14668,-11174,5003,5317,24000,19000,213000,745490,
-18104,10132,14700,-11250,4889,5667,24000,19000,213000,745493,
-17344,9360,14920,-11922,3924,7205,23000,19000,214000,745505,
-17012,9168,14804,-11936,3726,7505,23000,19000,214000,745508,
-15244,8056,15516,-11967,2788,8911,22000,19000,215000,745520,
-14804,7976,15720,-11930,2638,9133,22000,19000,215000,745523,
-14748,7820,16092,-11827,2592,9408,22000,19000,215000,745525,
-12640,7292,17088,-11560,2752,10598,21000,19000,217000,745538,
-12420,7240,16924,-11476,2752,10885,21000,19000,217000,745540,
-11656,7364,17260,-11328,2908,10907,21000,19000,217000,745542,
-10192,7356,17804,-10616,3852,11640,20000,19000,218000,745555,
-10072,7400,17952,-10431,4103,11664,20000,19000,219000,745557,
-9880,7528,18160,-10382,4336,11752,20000,19000,219000,745560,
-9252,7836,17832,-9700,5670,12028,19000,20000,220000,745572,
-9204,7752,17588,-9694,5693,12084,19000,20000,220000,745575,
-9216,7728,17568,-9618,5807,12092,19000,20000,221000,745577,
-9136,6776,18036,-9656,5292,12535,19000,20000,222000,745590,
-9072,6388,18352,-9554,5172,12645,19000,20000,222000,745592,
-8980,6208,18368,-9564,5000,12884,19000,20000,223000,745594,
-7748,5360,19400,-9013,4680,13251,18000,20000,224000,745607,
-7428,5232,19532,-8953,4613,13268,18000,20000,224000,745609,
-6140,4792,19416,-8187,4703,13437,18000,20000,226000,745621,
-6008,4680,19488,-8119,4746,13453,18000,20000,226000,745624,
-5892,4600,19456,-7948,4846,13471,18000,20000,226000,745626,
-5192,4300,18932,-7231,5276,13503,18000,20000,228000,745639,
-5020,4336,18732,-7125,5312,13558,18000,20000,228000,745641,
-4964,4304,18632,-6998,5385,13522,17000,20000,228000,745643,
-4520,4600,18428,-6607,5444,13624,17000,20000,230000,745656,
-4468,4544,18564,-6579,5354,13640,17000,20000,230000,745658,
-4452,4548,18520,-6464,5285,13666,17000,20000,230000,745660,
-3876,4424,19040,-6037,4606,13730,17000,20000,232000,745673,
-3772,4364,19080,-5884,4585,13656,17000,20000,232000,745675,
-3624,4364,19064,-5917,4490,13658,17000,20000,232000,745678,
-2456,4292,18944,-5407,4299,13262,17000,20000,234000,745690,
-2324,4200,18976,-5347,4201,13150,17000,20000,234000,745693,
-2108,4300,18972,-5200,4175,13036,17000,20000,234000,745695,
-1332,4368,18704,-4706,3877,12549,17000,20000,236000,745708,
-1056,4468,18372,-4574,3905,12426,17000,20000,236000,745710,
-968,4452,18188,-4574,3862,12232,17000,20000,236000,745712,
-740,4452,18104,-4126,3784,11598,17000,19000,237000,745725,
-652,4404,18184,-4041,3700,11538,17000,19000,237000,745727,
-508,4388,17980,-3906,3710,11339,17000,19000,238000,745729,
-480,4544,17952,-3662,3456,10740,17000,19000,239000,745742,
-552,4468,18076,-3582,3450,10549,17000,19000,239000,745744,
-532,4456,17844,-3526,3283,10518,17000,19000,239000,745746,
-524,3960,17944,-3271,2578,9917,17000,19000,240000,745759,
-488,3864,17760,-3286,2401,9874,17000,19000,240000,745761,
-408,3892,17672,-3158,2300,9732,17000,19000,241000,745763,
-64,3712,17524,-2689,1775,9110,17000,19000,242000,745776,
-92,3712,17400,-2607,1711,8987,17000,19000,242000,745778,
-144,3672,17368,-2537,1559,8943,17000,19000,242000,745780,
100,3712,16836,-2157,941,8398,17000,19000,243000,745793,
136,3696,16736,-2171,736,8326,17000,18000,243000,745795,
216,3784,16536,-2059,696,8176,17000,18000,243000,745797,
404,4036,16172,-1950,26,7505,17000,18000,244000,745810,
548,4028,16124,-1845,-43,7385,17000,18000,244000,745812,
632,4140,16008,-1860,-161,7237,17000,18000,244000,745814,
616,4464,15616,-1701,-601,6542,17000,18000,245000,745827,
664,4352,15736,-1689,-795,6454,17000,17000,245000,745829,
472,4432,15856,-1581,-892,6280,17000,17000,245000,745831,
552,4472,15784,-1475,-1752,5729,17000,17000,245000,745844,
616,4532,15704,-1405,-1829,5598,17000,17000,245000,745846,
600,4652,15764,-1456,-1981,5501,17000,17000,245000,745849,
1124,5052,16028,-1070,-2149,4772,17000,16000,246000,745861,
1084,5204,16072,-984,-2131,4664,17000,16000,246000,745863,
1164,5328,15940,-997,-2133,4509,17000,16000,246000,745866,
1084,5548,15576,-962,-2143,3839,17000,16000,246000,745878,
920,5636,15624,-997,-2107,3732,17000,16000,246000,745880,
912,5612,15532,-1002,-2128,3617,17000,16000,246000,745883,
704,5352,15004,-1183,-1966,2922,17000,15000,247000,745895,
780,5272,15068,-1151,-1897,2862,17000,15000,247000,745898,
764,5196,14852,-1198,-1814,2746,17000,15000,247000,745900,
620,4984,14936,-1048,-1266,2149,17000,15000,247000,745913,
556,4844,14884,-1061,-1170,2053,17000,15000,247000,745915,
444,4972,14932,-979,-1074,1944,17000,15000,247000,745917,
-204,5064,14724,-902,-825,1416,17000,14000,247000,745930,
-292,5096,14796,-864,-792,1347,17000,14000,247000,745932,
-296,5112,14740,-902,-820,1245,17000,14000,247000,745934,
-704,4964,14376,-838,-989,740,17000,14000,247000,745947,
-704,4900,14396,-886,-973,662,17000,14000,247000,745949,
-740,4948,14568,-837,-1026,543,17000,14000,247000,745951,
-984,4780,14360,-648,-896,115,17000,14000,247000,745964,
-944,4712,14356,-534,-932,51,17000,14000,247000,745966,
-940,4824,14364,-516,-865,-44,17000,14000,247000,745968,
-1216,4956,14060,-338,-679,-395,17000,14000,247000,745981,
-1212,5144,14312,-325,-596,-480,17000,14000,247000,745983,
-1416,5188,14036,-256,-569,-548,17000,14000,247000,745986,
-1640,5456,13920,-294,-198,-849,17000,14000,247000,745998,
-1852,5400,13928,-279,-225,-892,17000,14000,247000,746000,
-1872,5420,13792,-289,-169,-939,17000,14000,247000,746003,
-2264,5536,13808,-288,-152,-1100,17000,14000,247000,746015,
-2392,5516,13748,-253,-82,-1141,17000,14000,247000,746017,
-2444,5684,13708,-301,-148,-1145,17000,14000,247000,746020,
-2552,5852,13524,-275,-36,-1323,17000,14000,247000,746032,
-2656,5896,13436,-317,-119,-1315,17000,14000,247000,746034,
-2828,5896,13424,-277,-155,-1354,17000,14000,247000,746037,
-2816,6056,13340,-381,-374,-1402,17000,14000,246000,746049,
-2736,6060,13084,-393,-293,-1432,17000,14000,246000,746052,
-2832,6108,13220,-418,-383,-1498,17000,14000,246000,746054,
-2904,6348,13420,-356,-283,-1575,17000,14000,246000,746067,
-3080,6284,13376,-344,-281,-1577,17000,14000,246000,746069,
-3088,6424,13464,-368,-286,-1583,17000,14000,246000,746071,
-3384,6748,13492,-386,-359,-1592,17000,14000,246000,746084,
-3336,6960,13500,-442,-408,-1580,17000,14000,246000,746086,
-3456,6956,13540,-424,-445,-1580,17000,14000,246000,746088,
-3480,7012,13316,-741,-793,-1580,17000,14000,246000,746101,
-3396,7028,13316,-747,-770,-1581,17000,14000,246000,746103,
-3452,6952,13432,-836,-880,-1572,17000,14000,246000,746106,
-3312,6680,13720,-833,-882,-1615,17000,14000,246000,746118,
-3304,6648,13864,-884,-935,-1642,17000,14000,246000,746121,
-3180,6552,13896,-803,-849,-1670,16000,14000,246000,746123,
-3400,6412,13724,-771,-670,-1762,16000,14000,245000,746135,
-3436,6388,13752,-680,-629,-1786,16000,14000,245000,746138,
-3520,6320,13796,-691,-594,-1791,16000,14000,245000,746140,
-3624,6512,13892,-451,-456,-1888,16000,14000,245000,746153,
-3672,6552,13856,-472,-506,-1917,16000,14000,245000,746155,
-3752,6488,13916,-401,-495,-1910,16000,14000,245000,746157,
-3884,6736,13860,-442,-591,-1924,16000,14000,245000,746170,
-3836,6868,13672,-397,-495,-1914,16000,14000,245000,746172,
-3852,6772,13720,-420,-570,-1931,16000,14000,245000,746175,
-3728,6796,13584,-401,-379,-1832,16000,14000,245000,746187,
-3820,6740,13664,-415,-425,-1810,16000,14000,245000,746189,
-3764,6904,13708,-372,-331,-1794,16000,14000,245000,746192,
-3936,7000,13620,-418,-150,-1708,16000,14000,244000,746204,
-3876,7004,13864,-390,-75,-1679,16000,14000,244000,746207,
-3952,7044,13504,-389,-69,-1662,16000,14000,244000,746209,
-4084,7144,13700,-462,28,-1549,16000,14000,244000,746221,
-4080,7104,13624,-479,-16,-1508,16000,14000,244000,746223,
-4092,7196,13720,-489,30,-1462,16000,14000,244000,746226,
