Ax,Ay,Az,Gx,Gy,Gz,Roll,Pitch,Yaw,Timestamp,Target
-2332,3468,15760,-466,-367,-293,5000,11000,206000,85697,
-1940,3404,15616,-472,-252,-351,5000,11000,206000,85710,
-2084,3544,15476,-521,-257,-380,5000,11000,206000,85712,
-2024,3456,15692,-506,-164,-413,5000,11000,206000,85714,
-2304,3416,15836,-549,70,-407,5000,11000,206000,85727,
-2376,3408,15580,-486,101,-416,5000,11000,206000,85729,
-2384,3300,15744,-512,122,-369,5000,11000,206000,85732,
-2528,3360,15744,-526,128,-369,5000,11000,206000,85734,
-2696,3500,15828,-534,93,-280,5000,11000,206000,85747,
-2704,3368,15868,-576,91,-257,5000,11000,206000,85749,
-2872,3244,15824,-518,32,-231,5000,11000,206000,85752,
-2672,3368,15972,-603,-91,-133,5000,11000,205000,85764,
-2660,3388,15944,-550,-174,-134,5000,11000,205000,85767,
-2592,3408,15972,-594,-172,-128,5000,11000,205000,85769,
-2576,3368,15896,-570,-231,-130,5000,11000,205000,85782,
-2464,3304,15840,-594,-217,-133,5000,11000,205000,85784,
-2440,3388,15884,-562,-173,-162,5000,11000,205000,85786,
-2284,3472,16052,-598,-114,-171,5000,11000,205000,85799,
-2364,3492,15904,-596,-37,-201,5000,11000,205000,85801,
-2212,3332,15988,-556,-92,-174,5000,11000,205000,85804,
-2492,3512,16112,-567,115,-247,5000,11000,205000,85816,
-2516,3504,16048,-543,112,-208,5000,11000,205000,85819,
-2548,3652,16268,-573,129,-231,5000,11000,205000,85821,
-2648,3332,16128,-556,93,-193,5000,11000,205000,85834,
-2796,3432,16124,-570,109,-208,5000,11000,205000,85836,
-2828,3348,16132,-526,21,-206,5000,11000,205000,85839,
-2660,3388,16212,-524,-26,-174,5000,11000,205000,85841,
-2672,3328,16188,-558,-261,-184,5000,11000,205000,85854,
-2556,3324,16188,-595,-291,-151,5000,11000,205000,85856,
-2692,3272,16164,-594,-300,-171,5000,11000,205000,85859,
-2452,3292,16156,-514,-331,-175,5000,11000,205000,85871,
-2460,3220,16116,-504,-305,-193,5000,11000,205000,85874,
-2424,3224,16184,-481,-288,-216,5000,11000,205000,85876,
-2276,3228,16096,-435,-105,-223,5000,11000,205000,85889,
-2308,3228,16148,-456,-120,-218,5000,11000,205000,85891,
-2168,3260,16056,-480,-44,-223,5000,11000,205000,85893,
-2368,3236,16132,-453,126,-178,5000,11000,205000,85906,
-2440,3268,16160,-400,167,-252,5000,11000,205000,85909,
-2500,3288,16092,-422,185,-198,5000,11000,205000,85911,
-2708,3176,15928,-409,220,-201,5000,11000,205000,85927,
-2736,3216,15988,-425,224,-166,5000,11000,205000,85930,
-2708,3172,16180,-380,188,-178,5000,11000,205000,85932,
-2668,3296,16080,-419,28,-72,5000,11000,205000,85945,
-2696,3260,16048,-406,-58,-82,5000,11000,205000,85947,
-2624,3208,16020,-447,-50,-42,5000,11000,205000,85949,
-2636,3232,16040,-464,-32,-76,5000,11000,205000,85952,
-2456,3380,15980,-468,-76,-84,5000,11000,205000,85965,
-2396,3324,16156,-439,-42,-108,5000,11000,205000,85967,
-2420,3372,16000,-422,-84,-79,5000,11000,205000,85969,
-2312,3356,16104,-371,30,-121,5000,11000,205000,85982,
-2152,3284,15976,-412,73,-83,5000,11000,205000,85984,
-2196,3424,15924,-387,105,-109,5000,11000,205000,85987,
-2164,3456,15844,-393,145,-118,5000,11000,205000,85989,
-2324,3216,15924,-341,417,-98,5000,11000,205000,86002,
-2400,3220,15872,-324,416,-91,5000,11000,205000,86004,
-2276,3232,15920,-335,428,-56,5000,11000,205000,86007,
-2428,3212,15952,-294,466,-28,5000,11000,205000,86019,
-2516,3232,15948,-353,455,1,5000,11000,205000,86022,
-2616,3092,15996,-381,482,13,5000,11000,205000,86024,
-2672,3228,15824,-320,414,0,5000,11000,205000,86026,
-2596,3252,16036,-388,259,9,5000,11000,205000,86039,
-2696,3160,16044,-396,159,39,5000,11000,205000,86041,
-2632,3204,15852,-437,118,52,5000,11000,205000,86044,
-2456,3244,15892,-467,-31,75,5000,11000,205000,86056,
-2392,3184,15920,-488,-50,59,5000,11000,205000,86059,
-2376,3204,16032,-483,1,40,5000,11000,205000,86061,
-2356,3208,16032,-462,-38,85,5000,11000,205000,86064,
-2208,3148,16108,-410,62,29,5000,11000,205000,86076,
-2244,3176,16096,-466,93,1,5000,11000,205000,86079,
-2208,3128,15912,-451,117,15,5000,11000,205000,86081,
-2208,3240,16064,-390,151,-21,5000,11000,205000,86084,
-2252,3284,16032,-432,254,-65,5000,11000,205000,86096,
-2224,3292,15988,-410,268,-71,5000,11000,205000,86099,
-2176,3372,16032,-426,234,-74,5000,11000,205000,86101,
-2320,3328,16048,-429,242,-172,5000,11000,205000,86114,
-2332,3408,15908,-468,271,-142,5000,11000,205000,86116,
-2208,3452,16080,-446,261,-202,5000,11000,205000,86118,
-2512,3392,16004,-480,169,-205,5000,11000,205000,86131,
-2492,3252,16056,-472,182,-255,5000,11000,205000,86134,
-2488,3264,15944,-448,97,-228,5000,11000,205000,86136,
-2540,3172,16088,-449,117,-203,5000,11000,205000,86138,
-2536,3212,16284,-479,-17,-166,5000,11000,205000,86151,
-2504,3308,16296,-499,-47,-162,5000,11000,205000,86153,
-2492,3288,15972,-511,5,-175,5000,11000,205000,86156,
-2464,3228,16036,-490,-69,-125,5000,11000,205000,86168,
-2388,3300,15992,-448,-88,-178,5000,11000,205000,86171,
-2432,3204,16036,-466,-123,-137,5000,11000,205000,86173,
-2304,3212,15908,-417,-58,-184,5000,11000,205000,86186,
-2296,3092,16100,-466,-38,-143,5000,11000,205000,86188,
-2288,3084,16024,-472,-4,-173,5000,11000,205000,86191,
-2252,3236,16112,-418,-4,-178,5000,11000,205000,86193,
-2328,3144,16204,-449,146,-144,5000,11000,205000,86206,
-2368,3116,16088,-389,118,-147,5000,11000,205000,86208,
-2448,3212,16032,-399,138,-101,5000,11000,205000,86211,
-2492,3180,16192,-375,170,-95,5000,11000,205000,86223,
-2440,3236,16224,-402,192,-84,5000,11000,205000,86226,
-2596,3216,16152,-389,207,-121,5000,11000,205000,86228,
-2412,3144,16056,-373,185,-64,5000,11000,205000,86241,
-2320,3328,16128,-365,238,-103,5000,11000,205000,86243,
-2352,3320,16008,-360,226,-63,5000,11000,205000,86245,
-2332,3320,16092,-407,265,-77,5000,11000,205000,86248,
-2396,3268,16020,-368,335,-84,5000,11000,205000,86260,
-2500,3180,15948,-380,406,-90,5000,11000,205000,86263,
-2544,3216,15944,-391,285,-75,5000,11000,205000,86275,
-2688,3304,16008,-404,303,-110,5000,11000,205000,86278,
-2584,3288,15980,-354,228,-91,5000,11000,205000,86280,
-2628,3232,16008,-418,75,-56,5000,11000,205000,86293,
-2672,3232,15952,-436,35,-51,5000,11000,205000,86295,
-2604,3268,15916,-459,-14,-41,5000,11000,205000,86298,
-2616,3248,16000,-480,20,-63,5000,11000,205000,86300,
-2664,3480,16032,-599,-154,-36,5000,11000,205000,86313,
-2700,3456,16016,-586,-196,-3,5000,11000,205000,86315,
-2700,3464,16080,-583,-244,-9,5000,11000,205000,86317,
-2728,3344,15864,-647,-452,-16,5000,11000,205000,86330,
-2772,3332,15876,-709,-542,12,5000,11000,205000,86333,
-2652,3400,15840,-708,-556,-20,5000,11000,205000,86335,
-2508,3192,15876,-695,-594,-33,5000,11000,205000,86337,
-2324,3160,15912,-762,-677,-32,4000,10000,205000,86350,
-2376,3292,15964,-727,-741,-67,4000,10000,205000,86352,
-2260,3116,15784,-740,-719,-44,4000,10000,205000,86355,
-2020,3256,15932,-727,-613,-82,4000,10000,205000,86367,
-2008,3216,16072,-739,-542,-102,4000,10000,205000,86370,
-1952,3176,15960,-789,-448,-131,4000,10000,205000,86372,
-2264,3308,16084,-701,-256,-65,4000,10000,205000,86385,
-2240,3216,16004,-696,-159,-89,4000,10000,205000,86387,
-2300,3144,16120,-657,-231,-82,4000,10000,205000,86390,
-2456,3072,16188,-588,-111,-76,4000,10000,205000,86402,
-2444,3020,16204,-538,-132,-41,4000,10000,205000,86405,
-2440,2952,16100,-570,-135,-31,4000,10000,205000,86407,
-2180,3000,16124,-418,-18,34,4000,10000,205000,86420,
-2140,3008,16108,-440,59,53,4000,10000,205000,86422,
-2188,3020,15988,-417,131,54,4000,10000,205000,86424,
-2024,2948,16036,-376,156,40,4000,10000,205000,86427,
-2012,2920,15960,-267,539,42,4000,10000,205000,86439,
-2056,2992,15884,-254,560,93,4000,10000,205000,86442,
-2032,2996,15872,-260,650,80,4000,10000,205000,86444,
-2220,3228,16108,-220,881,130,4000,10000,205000,86457,
-2144,3276,16124,-213,952,94,4000,10000,205000,86459,
-2292,3336,16072,-187,987,93,4000,10000,205000,86462,
-2232,3412,16060,-206,982,139,4000,10000,205000,86464,
-2388,3308,16096,-207,970,136,4000,10000,205000,86477,
-2476,3436,16096,-231,952,145,4000,10000,205000,86479,
-2420,3352,16060,-277,971,120,4000,10000,205000,86482,
-2576,3380,15988,-277,740,110,4000,11000,206000,86494,
-2484,3540,15992,-253,731,125,4000,11000,206000,86497,
-2532,3308,15824,-272,607,99,4000,11000,206000,86499,
-2592,3320,16124,-307,549,121,4000,11000,206000,86501,
-2556,3416,15988,-374,174,107,4000,11000,206000,86514,
-2556,3392,16044,-387,147,130,5000,11000,206000,86516,
-2516,3440,15940,-380,100,101,5000,11000,206000,86519,
-2340,3340,16180,-445,-137,29,5000,11000,206000,86532,
-2316,3396,16044,-441,-135,-3,5000,11000,206000,86534,
-2256,3304,16112,-423,-187,-8,5000,11000,206000,86536,
-2320,3224,16004,-465,-195,-18,5000,11000,206000,86539,
-2140,3424,16080,-487,-107,-75,4000,10000,206000,86551,
-2128,3308,16056,-497,-89,-123,4000,10000,206000,86554,
-2092,3388,16204,-422,-46,-103,4000,10000,206000,86556,
-2168,3288,16096,-511,175,-161,4000,10000,206000,86569,
-2264,3232,16004,-456,179,-139,4000,10000,206000,86571,
-2172,3264,15920,-504,211,-136,4000,10000,206000,86574,
-2508,3056,16096,-520,181,-34,4000,10000,206000,86586,
-2524,3096,15952,-511,203,-40,4000,10000,206000,86589,
-2576,3156,15940,-474,146,-45,4000,10000,206000,86591,
-2560,3128,16080,-478,108,1,4000,10000,206000,86594,
-2512,3116,15896,-539,-167,26,4000,10000,206000,86606,
-2444,3232,15956,-554,-173,13,4000,10000,206000,86609,
-2480,3192,15940,-549,-187,4,4000,10000,206000,86611,
-2180,3316,16120,-600,-193,6,4000,10000,206000,86624,
-2212,3236,16092,-539,-181,-20,4000,10000,206000,86626,
-2120,3212,15992,-557,-165,-24,4000,10000,206000,86628,
-2080,3280,15972,-594,-114,-31,4000,10000,206000,86631,
-2208,3248,16156,-554,43,-7,4000,10000,206000,86643,
-2372,3192,16184,-577,61,-12,4000,10000,206000,86646,
-2296,3292,16340,-507,89,-14,4000,10000,206000,86648,
-2420,3220,16032,-499,28,18,4000,10000,206000,86661,
-2468,3180,16032,-464,-51,60,4000,10000,206000,86663,
-2312,3108,15952,-523,-43,62,4000,10000,206000,86665,
-2444,3068,16212,-486,-30,61,4000,10000,206000,86668,
-2236,3020,15928,-451,-91,102,4000,10000,206000,86681,
-2260,3092,16080,-419,-84,96,4000,10000,206000,86683,
-2124,2956,15896,-423,-61,133,4000,10000,206000,86685,
-1992,3120,16056,-404,180,92,4000,10000,206000,86698,
-1896,3060,15844,-367,214,136,4000,10000,206000,86700,
-1948,3144,16092,-392,285,143,4000,10000,206000,86703,
-1912,3256,15936,-336,365,108,4000,10000,206000,86705,
-1948,3368,16176,-362,659,121,4000,10000,206000,86718,
-1948,3268,16240,-307,742,70,4000,10000,206000,86720,
-2160,3364,16140,-346,745,103,4000,10000,206000,86722,
-2208,3304,16080,-281,867,105,4000,10000,206000,86735,
-2164,3268,15956,-287,820,116,4000,10000,206000,86737,
-2308,3308,15916,-298,742,76,4000,10000,206000,86750,
-2324,3308,15940,-284,706,95,4000,10000,206000,86752,
-2300,3388,15940,-315,728,68,4000,10000,206000,86755,
-2268,3388,15884,-288,664,70,4000,10000,206000,86757,
-2416,3476,15892,-369,440,-30,4000,11000,206000,86770,
-2368,3304,16068,-367,343,-20,4000,11000,206000,86772,
-2384,3372,15872,-392,342,-45,4000,11000,206000,86775,
-2460,3296,16096,-422,117,-108,4000,11000,206000,86787,
-2512,3256,16068,-458,84,-112,4000,11000,206000,86790,
-2484,3324,15984,-443,93,-135,4000,11000,206000,86792,
-2428,3200,16060,-442,31,-114,4000,11000,206000,86794,
-2344,3244,15932,-491,20,-97,4000,11000,206000,86807,
-2448,3388,15988,-489,-4,-39,4000,11000,206000,86809,
-2412,3216,15956,-502,-25,-63,4000,11000,206000,86812,
-2248,3344,16048,-532,48,-67,4000,10000,206000,86824,
-2104,3288,15988,-574,94,-95,4000,10000,206000,86827,
-2212,3204,15976,-511,64,-99,4000,10000,206000,86829,
-2216,3328,16024,-538,66,-83,4000,10000,206000,86832,
-2364,3200,16028,-478,136,-77,4000,10000,206000,86844,
-2296,3212,16060,-586,143,-48,4000,10000,206000,86847,
-2340,3116,16040,-544,184,-83,4000,10000,206000,86849,
-2312,3120,16064,-535,142,-56,4000,10000,206000,86862,
-2256,3104,15928,-500,223,-58,4000,10000,206000,86864,
-2288,3104,15860,-453,180,-26,4000,10000,206000,86866,
-2208,3132,16012,-539,209,-16,4000,10000,206000,86869,
-2284,3136,16068,-513,198,56,4000,10000,206000,86881,
-2352,3028,16052,-501,227,48,4000,10000,206000,86884,
-2424,3208,15872,-515,244,42,4000,10000,206000,86886,
-2428,3152,16020,-525,124,45,4000,10000,206000,86899,
-2368,3176,16024,-523,138,21,4000,10000,206000,86901,
-2232,3256,15908,-536,69,29,4000,10000,206000,86904,
-2264,3296,16028,-560,69,14,4000,10000,206000,86906,
-2248,3328,16048,-540,15,-24,4000,10000,206000,86919,
-2144,3216,16024,-568,79,-43,4000,10000,206000,86921,
-2384,3248,16068,-520,52,-49,4000,10000,206000,86923,
-2188,3152,16120,-551,158,-25,4000,10000,206000,86936,
-2200,3176,16028,-514,140,-26,4000,10000,206000,86938,
-2184,3188,15940,-524,142,-25,4000,10000,206000,86941,
-2180,3156,16056,-535,200,-5,4000,10000,206000,86943,
-2124,3088,16040,-503,187,-34,4000,10000,206000,86956,
-2084,3132,16108,-477,227,-94,4000,10000,206000,86958,
-2220,3172,16156,-423,206,-80,4000,10000,206000,86961,
-2060,3204,16020,-408,392,-174,4000,10000,206000,86973,
-2148,3304,16132,-407,337,-180,4000,10000,206000,86976,
-2232,3224,16168,-444,406,-138,4000,10000,206000,86978,
-2384,3236,16172,-396,416,-146,4000,10000,206000,86991,
-2404,3192,16100,-419,445,-168,4000,10000,206000,86993,
-2484,3068,16220,-387,470,-175,4000,10000,206000,86995,
-2736,2988,16276,-459,294,-78,4000,11000,206000,87008,
-2780,3192,16036,-424,280,-99,4000,11000,206000,87010,
-2760,3192,16284,-480,169,-61,4000,11000,206000,87013,
-2788,3204,15908,-494,146,-39,4000,11000,206000,87015,
-2712,3244,16044,-545,-116,-13,4000,10000,206000,87028,
-2564,3252,16004,-558,-137,-24,4000,10000,206000,87030,
-2632,3144,16208,-518,-183,-33,4000,10000,206000,87032,
-2404,3076,16220,-563,-264,-60,4000,10000,206000,87045,
-2248,3120,16160,-531,-317,-42,4000,10000,206000,87047,
-2404,3048,16244,-569,-269,-34,4000,10000,206000,87050,
-2264,3140,16332,-478,-174,-28,4000,10000,206000,87062,
-2152,3232,16300,-497,-112,-3,4000,10000,206000,87065,
-2192,3244,16100,-448,-41,-61,4000,10000,206000,87067,
-2088,3132,16248,-444,-29,-54,4000,10000,206000,87070,
-2196,3304,16100,-380,225,-67,4000,10000,206000,87082,
-2276,3312,16100,-398,168,-37,4000,10000,206000,87085,
-2296,3168,16176,-387,226,-57,4000,10000,206000,87087,
-2456,3020,16212,-334,155,-57,4000,10000,206000,87100,
-2500,2904,16008,-329,118,-43,4000,10000,206000,87102,
-2456,3076,16012,-297,84,-81,4000,10000,206000,87104,
-2412,3064,16208,-323,21,-67,4000,10000,206000,87107,
-2248,2920,16200,-303,-58,-59,4000,10000,206000,87119,
-2316,3132,16284,-351,-39,-14,4000,10000,206000,87122,
-2200,3088,16140,-324,38,-81,4000,10000,206000,87124,
-2196,3192,16088,-318,125,-26,4000,10000,206000,87137,
-2152,3220,16156,-275,211,-93,4000,10000,206000,87139,
-2076,3132,16020,-281,196,-34,4000,10000,206000,87142,
-2128,3236,16000,-338,251,-26,4000,10000,206000,87144,
-2092,3244,16024,-287,348,-64,4000,10000,206000,87157,
-2216,3188,16132,-324,373,-42,4000,10000,206000,87159,
-2208,3296,16128,-296,389,-63,4000,10000,206000,87162,
-2112,3244,16008,-339,420,-90,4000,10000,206000,87174,
-2244,3244,16036,-271,466,-128,4000,10000,206000,87176,
-2128,3276,16052,-310,416,-117,4000,10000,206000,87179,
-2288,3288,16076,-273,406,-135,4000,10000,206000,87191,
-2404,3244,15876,-313,368,-149,4000,10000,206000,87194,
-2468,3148,15900,-331,357,-155,4000,10000,206000,87196,
-2476,3136,16036,-321,182,-162,4000,10000,206000,87209,
-2504,3272,16032,-361,122,-185,4000,10000,206000,87211,
-2432,3272,16056,-399,-120,-215,4000,10000,206000,87224,
-2536,3340,15988,-402,-137,-227,4000,10000,206000,87226,
-2428,3368,15984,-370,-188,-257,4000,10000,206000,87229,
-2292,3292,15988,-443,-237,-247,4000,10000,206000,87241,
-2276,3328,15888,-425,-263,-241,4000,10000,206000,87244,
-2312,3280,15972,-518,-222,-219,4000,10000,206000,87246,
-2140,3032,16044,-420,-45,-207,4000,10000,206000,87259,
-2180,3080,16024,-451,-61,-194,4000,10000,206000,87261,
-2252,2980,15980,-440,13,-224,4000,10000,206000,87264,
-2204,3004,16148,-417,-11,-153,4000,10000,206000,87266,
-2164,3120,16208,-412,123,-174,4000,10000,206000,87279,
-2148,3212,15980,-391,123,-151,4000,10000,206000,87281,
-2264,3176,15956,-457,136,-175,4000,10000,206000,87284,
-2076,3260,16004,-386,196,-204,4000,10000,206000,87296,
-2204,3272,16148,-403,250,-212,4000,10000,206000,87299,
-2200,3344,15936,-333,258,-242,4000,10000,206000,87301,
-2160,3224,15980,-369,293,-237,4000,10000,206000,87314,
-2328,3204,16056,-328,305,-216,4000,10000,206000,87316,
-2268,3284,16152,-360,276,-214,4000,10000,206000,87318,
-2424,3272,16096,-315,269,-152,4000,10000,206000,87331,
-2448,3272,15932,-318,265,-159,4000,10000,206000,87333,
-2444,3288,15972,-359,250,-174,4000,10000,206000,87336,
-2548,3260,16072,-382,112,-66,4000,10000,206000,87348,
-2516,3132,15908,-338,82,-88,4000,10000,206000,87351,
-2584,3068,16112,-353,22,-48,4000,10000,206000,87353,
-2588,3072,16164,-366,-22,-58,4000,10000,206000,87356,
-2328,3100,16032,-403,-117,-50,4000,10000,206000,87368,
-2348,3116,16012,-421,-112,-66,4000,10000,206000,87371,
-2400,3172,16004,-387,-101,-96,4000,10000,206000,87373,
-1928,3388,15876,-389,51,-84,4000,10000,206000,87386,
-2072,3352,16144,-359,66,-87,4000,10000,206000,87388,
-2028,3432,15992,-399,178,-104,4000,10000,206000,87390,
-1900,3412,15940,-344,234,-158,4000,10000,206000,87393,
-2036,3400,15876,-353,571,-166,4000,10000,206000,87406,
-2160,3472,15820,-306,614,-180,4000,10000,206000,87408,
-2140,3424,15696,-303,594,-128,4000,10000,206000,87410,
-2332,3392,15616,-377,606,-159,4000,10000,206000,87423,
-2412,3392,15780,-373,520,-129,4000,10000,206000,87425,
-2376,3372,15508,-428,474,-134,4000,10000,206000,87428,
-2536,3372,15636,-382,449,-155,4000,10000,206000,87430,
-2896,3456,15672,-572,84,-142,4000,10000,206000,87443,
-2680,3316,15724,-532,9,-163,4000,10000,206000,87445,
-2660,3432,15800,-571,-76,-146,4000,10000,206000,87448,
-2608,3248,15944,-637,-397,-160,4000,10000,206000,87460,
-2592,3220,15904,-693,-445,-144,4000,10000,206000,87463,
-2532,3264,15884,-726,-448,-164,4000,10000,206000,87465,
-2256,3192,15864,-765,-474,-158,4000,10000,206000,87478,
-2156,3312,15796,-731,-419,-155,4000,10000,206000,87480,
-2180,3232,15776,-705,-392,-130,4000,10000,206000,87482,
-1848,3324,15572,-666,-3,-145,4000,10000,206000,87495,
-1872,3372,15656,-685,5,-116,4000,10000,206000,87497,
-1844,3256,15720,-711,128,-155,4000,10000,206000,87500,
-1920,3304,15820,-649,158,-158,4000,10000,206000,87502,
-2152,3364,15800,-648,420,-99,4000,10000,206000,87515,
-2108,3448,15960,-628,422,-115,4000,10000,206000,87517,
-2124,3376,15780,-663,433,-71,4000,10000,206000,87520,
-2320,3404,16012,-636,427,-87,4000,10000,206000,87532,
-2440,3280,15856,-655,416,-53,4000,10000,206000,87535,
-2492,3276,15972,-645,428,-84,4000,10000,206000,87537,
-2424,3192,16056,-624,374,-83,4000,10000,206000,87539,
-2508,3240,16120,-681,268,-104,4000,10000,206000,87552,
-2460,3176,15740,-668,207,-49,4000,10000,206000,87554,
-2320,3220,15796,-699,87,-89,4000,10000,206000,87567,
-2360,3244,15828,-723,46,-66,4000,10000,206000,87570,
-2340,3312,15844,-734,24,-92,4000,10000,206000,87572,
-2308,3216,16032,-739,-19,-59,4000,10000,206000,87584,
-2284,3312,16016,-798,-4,-78,4000,10000,206000,87587,
-2292,3372,16084,-750,21,-59,4000,10000,206000,87589,
-2328,3288,16076,-782,-20,-67,4000,10000,206000,87592,
-2244,3276,16208,-749,96,-74,4000,10000,206000,87604,
-2336,3220,16120,-793,101,-43,4000,10000,206000,87607,
-2188,3196,16168,-806,161,-51,4000,10000,206000,87609,
-2316,3156,16240,-691,208,-1,4000,10000,206000,87622,
-2232,3204,16176,-727,246,-14,4000,10000,206000,87624,
-2332,3204,16236,-682,260,-17,4000,10000,206000,87627,
-2368,3100,16140,-718,240,-1,4000,10000,206000,87629,
-2284,3128,16260,-647,258,14,4000,10000,206000,87642,
-2296,3124,16348,-694,217,18,4000,10000,206000,87644,
-2364,3252,16244,-691,264,12,4000,10000,206000,87646,
-2400,3204,16168,-687,215,-8,4000,10000,206000,87659,
-2304,3148,16112,-635,192,-34,4000,10000,206000,87662,
-2464,3156,16276,-644,151,6,4000,10000,206000,87664,
-2456,3204,16240,-659,175,9,4000,10000,206000,87666,
-2484,3100,16216,-647,13,53,4000,10000,206000,87679,
-2548,3088,16240,-660,7,33,4000,10000,206000,87681,
-2484,3068,16272,-593,-10,32,4000,10000,206000,87684,
-2456,3080,16348,-620,-185,70,4000,10000,206000,87696,
-2440,3188,16100,-602,-230,85,4000,10000,206000,87699,
-2388,3084,16236,-649,-230,101,4000,10000,206000,87701,
-2328,3128,16200,-634,-193,77,4000,10000,206000,87704,
-2208,3172,16156,-641,-204,88,4000,10000,206000,87716,
-2172,3204,16196,-624,-157,77,4000,10000,206000,87719,
-2136,3116,16088,-598,-154,77,4000,10000,206000,87721,
-2088,3140,16308,-631,16,67,4000,10000,206000,87734,
-1988,3148,16304,-608,35,70,4000,10000,206000,87736,
-2048,3076,16368,-633,31,59,4000,10000,206000,87739,
-2120,3256,16164,-618,122,58,4000,10000,206000,87741,
-2264,3068,16484,-596,267,62,4000,10000,206000,87754,
-2180,3084,16280,-582,315,48,4000,10000,206000,87756,
-2224,3024,16392,-530,305,81,4000,10000,206000,87758,
-2416,3012,16248,-483,361,102,4000,10000,206000,87771,
-2480,2960,16208,-474,329,103,4000,10000,206000,87773,
-2400,2880,16244,-472,318,108,4000,10000,206000,87776,
-2512,2832,16200,-460,325,132,4000,10000,206000,87778,
-2232,2932,16136,-478,203,199,4000,10000,206000,87791,
-2300,3024,16060,-393,177,161,4000,10000,206000,87793,
-2316,3048,16128,-438,174,193,4000,10000,206000,87796,
-2156,3084,16020,-392,176,128,4000,10000,206000,87808,
-2084,3064,16048,-425,181,119,4000,10000,206000,87810,
-2100,3016,16060,-401,210,131,4000,10000,206000,87813,
-2108,3104,15964,-397,232,112,4000,10000,206000,87815,
-2016,3084,15980,-423,421,119,4000,10000,206000,87828,
-1972,2968,15972,-382,378,127,4000,10000,206000,87830,
-2056,3144,15968,-439,451,137,4000,10000,206000,87833,
-2152,3072,15928,-447,588,174,4000,10000,206000,87845,
-2288,3028,15900,-446,614,190,4000,10000,206000,87848,
-2256,3048,15916,-450,629,151,4000,10000,206000,87850,
-2292,3044,15932,-419,603,182,4000,10000,206000,87852,
-2424,3096,15912,-489,480,105,4000,10000,206000,87865,
-2276,3004,15708,-505,428,144,4000,10000,206000,87868,
-2408,3132,15940,-556,426,89,4000,10000,206000,87870,
-2344,3148,15808,-617,191,114,4000,10000,206000,87883,
-2348,3040,15680,-605,176,93,4000,10000,206000,87885,
-2288,3116,15864,-595,96,126,4000,10000,206000,87887,
-2276,3000,15948,-610,71,97,4000,10000,206000,87890,
-2220,3092,15952,-651,-32,61,4000,10000,206000,87902,
-2120,3160,15872,-683,-48,79,4000,10000,206000,87905,
-2108,3168,16216,-720,-24,33,4000,10000,206000,87907,
-2072,3068,15876,-726,-49,41,4000,10000,206000,87920,
-2080,3068,15992,-698,-14,40,4000,10000,206000,87922,
-2008,3028,16052,-671,-31,44,4000,10000,206000,87925,
-1956,2988,15804,-672,144,-2,4000,10000,206000,87937,
-1912,2984,15936,-626,127,30,4000,10000,206000,87940,
-1992,2900,15904,-658,181,6,4000,10000,206000,87942,
-2020,2908,16064,-646,342,9,4000,10000,206000,87955,
-2032,2992,15984,-651,373,34,4000,10000,206000,87957,
-2076,2984,16120,-651,411,15,4000,10000,206000,87959,
-1996,2944,16220,-620,389,59,4000,10000,206000,87962,
-2136,2888,16064,-629,456,24,4000,10000,206000,87975,
-2136,2916,16028,-639,427,24,4000,10000,206000,87977,
-2204,2956,16072,-662,437,3,4000,10000,206000,87979,
-2116,3004,16048,-687,336,-17,4000,10000,206000,87992,
-2180,3052,16004,-699,322,-62,4000,10000,206000,87994,
-2180,2876,15988,-639,309,-78,4000,10000,206000,87997,
-2196,3056,16032,-689,335,-65,4000,10000,206000,87999,
-2084,2984,15908,-651,291,-136,4000,10000,206000,88012,
-2096,2932,15744,-665,292,-123,4000,10000,206000,88014,
-2032,2980,15892,-680,336,-114,4000,10000,206000,88016,
-2212,3000,16056,-692,254,-119,4000,10000,206000,88029,
-2100,3056,15964,-659,317,-126,4000,10000,206000,88031,
-2100,2996,16100,-612,264,-125,4000,10000,206000,88034,
-2108,3116,16232,-683,239,-163,4000,10000,206000,88046,
-2192,3272,16196,-695,199,-131,4000,10000,206000,88049,
-2212,3304,16208,-726,265,-145,4000,10000,206000,88051,
-2176,3260,16120,-724,240,-140,3000,10000,206000,88064,
-2188,3148,16224,-769,286,-192,3000,10000,206000,88066,
-2308,3212,16184,-708,274,-186,3000,10000,206000,88069,
-2364,3060,16188,-720,207,-124,3000,10000,206000,88081,
-2468,3032,16360,-700,144,-83,3000,10000,206000,88084,
-2456,2924,16272,-725,128,-70,3000,10000,206000,88086,
-2492,2996,16300,-723,144,-104,3000,10000,206000,88089,
-2228,3084,16372,-679,-22,-107,3000,10000,206000,88101,
-2160,2948,16324,-677,-17,-168,3000,10000,206000,88104,
-2348,2972,16220,-641,-67,-166,3000,10000,206000,88106,
-2084,2948,16212,-641,43,-174,3000,10000,206000,88119,
-2056,3112,16032,-627,8,-196,3000,10000,206000,88121,
-2184,3012,16164,-681,53,-194,3000,10000,206000,88123,
-2144,3028,16372,-597,109,-203,3000,10000,206000,88126,
-2192,2960,16304,-562,363,-261,3000,10000,206000,88139,
-2280,2988,16328,-509,407,-241,3000,10000,206000,88141,
-2284,2944,16356,-499,406,-223,3000,10000,206000,88143,
-2540,2852,16180,-447,474,-200,3000,10000,206000,88156,
-2480,2924,16300,-514,449,-139,3000,10000,206000,88158,
-2456,2864,16116,-551,448,-135,3000,10000,206000,88161,
-2576,2852,15984,-510,394,-67,3000,10000,206000,88173,
-2532,2872,16152,-554,401,-50,3000,10000,206000,88176,
-2516,2904,15984,-511,355,-53,3000,10000,206000,88178,
-2560,2976,15948,-579,359,-35,3000,10000,206000,88180,
-2576,2900,16116,-552,233,-21,3000,10000,206000,88193,
-2560,2944,16100,-584,238,-9,3000,10000,206000,88195,
-2508,2908,16148,-610,209,-70,3000,10000,206000,88198,
-2480,3008,16208,-607,211,-72,3000,10000,206000,88210,
-2392,2976,16160,-607,245,-106,3000,10000,206000,88213,
-2352,3068,16280,-572,221,-63,3000,10000,206000,88215,
-2400,2988,16312,-585,215,-91,3000,10000,206000,88218,
-2408,2912,16092,-504,277,-34,3000,10000,206000,88230,
-2392,2936,16232,-546,294,-62,3000,10000,206000,88233,
-2516,2856,16244,-511,301,-82,3000,10000,206000,88235,
-2456,2920,16176,-527,211,1,3000,10000,206000,88248,
-2468,3048,16032,-487,197,-25,3000,10000,206000,88250,
-2364,3000,16164,-508,137,12,3000,10000,206000,88252,
-2400,2984,16288,-522,156,-8,3000,10000,206000,88255,
-2396,2964,16168,-556,116,-26,3000,10000,206000,88268,
-2452,3004,16080,-563,136,-28,3000,10000,206000,88270,
-2532,2924,16100,-492,105,-51,3000,10000,206000,88272,
-2568,2792,16100,-496,86,-16,3000,10000,206000,88285,
-2456,2732,16168,-448,72,10,3000,10000,206000,88287,
-2528,2776,16008,-510,57,40,3000,10000,206000,88290,
-2464,2812,16240,-501,84,24,3000,10000,206000,88292,
-2300,2796,15968,-464,105,143,3000,10000,206000,88305,
-2284,2876,15968,-480,205,114,3000,10000,206000,88307,
-2372,2768,16128,-436,178,135,3000,10000,206000,88310,
-2120,2740,15888,-470,380,138,3000,10000,206000,88322,
-2200,2728,15800,-464,371,151,3000,10000,206000,88325,
-2232,2788,16020,-476,367,179,3000,10000,206000,88327,
-2244,2856,15976,-475,435,139,3000,10000,206000,88329,
-2296,2872,16040,-467,487,191,3000,10000,206000,88342,
-2308,2948,16092,-476,468,157,3000,10000,206000,88344,
-2296,2944,16092,-480,477,162,3000,10000,206000,88347,
-2384,3064,16052,-468,514,88,3000,10000,206000,88359,
-2280,2964,16100,-469,434,108,3000,10000,206000,88362,
-2256,2924,16224,-494,474,73,3000,10000,206000,88364,
-2292,2996,16088,-448,432,88,3000,10000,206000,88367,
-2252,2964,16220,-443,433,100,3000,10000,206000,88379,
-2272,2928,15988,-441,337,104,3000,10000,206000,88382,
-2388,2912,16020,-464,325,97,3000,11000,206000,88384,
-2288,2924,15900,-422,159,60,3000,10000,206000,88397,
-2216,2968,16036,-453,204,75,3000,10000,206000,88399,
-2264,2892,16036,-498,196,14,3000,10000,206000,88401,
-2240,3040,16116,-444,138,34,3000,10000,206000,88404,
-2244,3164,15996,-526,173,-23,3000,10000,206000,88416,
-2236,3028,16128,-526,125,2,3000,10000,206000,88419,
-2180,2996,16012,-545,178,-45,3000,10000,206000,88421,
-2352,2888,16072,-507,205,-22,3000,10000,206000,88434,
-2344,2796,16092,-523,206,-10,3000,10000,206000,88436,
-2460,2848,16136,-516,256,-19,3000,10000,206000,88439,
-2332,2768,16132,-535,202,6,3000,10000,206000,88441,
-2276,2776,15944,-477,201,2,3000,10000,206000,88454,
-2220,2964,16104,-541,149,33,3000,10000,206000,88456,
-2344,2900,16012,-539,206,19,3000,10000,206000,88459,
-2100,2996,16192,-565,221,-72,3000,10000,206000,88475,
-2200,2984,16124,-613,238,-74,3000,10000,206000,88477,
-2136,2928,16176,-600,248,-69,3000,10000,206000,88480,
-2312,2848,16060,-583,234,-95,3000,10000,206000,88482,
-2448,3112,16296,-647,261,-129,3000,11000,206000,88495,
-2368,3040,16220,-613,214,-99,3000,11000,206000,88497,
-2580,3084,16280,-616,191,-112,3000,11000,206000,88500,
-2432,2848,16184,-545,36,-179,3000,10000,206000,88512,
-2472,2904,16180,-554,54,-111,3000,10000,206000,88515,
-2628,2868,16296,-583,37,-174,3000,10000,206000,88517,
-2476,2880,16156,-534,22,-121,3000,10000,206000,88520,
-2380,2768,16136,-515,55,-126,3000,10000,206000,88532,
-2308,2776,16028,-504,6,-69,3000,10000,206000,88535,
-2412,2760,16124,-503,41,-69,3000,10000,206000,88537,
-2352,2996,16220,-460,106,-60,3000,10000,206000,88550,
-2344,2820,16244,-506,111,-13,3000,10000,206000,88552,
-2304,2988,16168,-436,155,-66,3000,10000,206000,88554,
-2228,2908,16204,-492,147,-24,3000,10000,206000,88557,
-2324,2968,16300,-440,308,1,3000,10000,206000,88569,
-2328,2920,16272,-466,350,-4,3000,10000,206000,88572,
-2312,2948,16244,-466,400,-6,3000,10000,206000,88574,
-2384,2876,16208,-453,554,95,3000,11000,206000,88587,
-2376,2920,16112,-449,600,72,3000,11000,206000,88589,
-2440,2960,16096,-373,594,82,3000,11000,206000,88592,
-2456,2876,16164,-449,617,96,3000,11000,206000,88594,
-2680,2976,16164,-387,547,111,3000,11000,206000,88607,
-2612,3000,16132,-438,506,111,3000,11000,206000,88609,
-2624,2852,15980,-471,496,86,3000,11000,206000,88612,
-2772,2984,15924,-512,147,93,3000,11000,207000,88624,
-2840,2928,16092,-472,86,82,3000,11000,207000,88627,
-2800,2944,16196,-493,14,109,3000,11000,207000,88629,
-2732,2992,16140,-523,-53,107,3000,11000,207000,88631,
-2580,2812,16236,-498,-226,110,3000,11000,207000,88644,
-2540,2964,16300,-517,-216,84,3000,11000,207000,88646,
-2440,2912,16256,-472,-187,81,3000,11000,207000,88649,
-2164,2804,16072,-457,14,85,3000,11000,207000,88661,
-2224,2904,16244,-415,36,116,3000,11000,207000,88664,
-2208,2888,16212,-442,71,152,3000,11000,207000,88666,
-2196,2924,15924,-439,166,159,3000,11000,207000,88669,
-2212,2892,16032,-409,387,179,3000,11000,207000,88681,
-2236,2924,16068,-420,474,175,3000,11000,207000,88684,
-2288,2964,15856,-375,494,174,3000,11000,207000,88686,
-2444,2920,16016,-422,582,219,3000,11000,207000,88699,
-2480,2852,15904,-423,539,184,3000,11000,207000,88701,
-2520,2992,15944,-446,519,232,3000,11000,207000,88704,
-2468,2888,15876,-467,528,193,3000,11000,207000,88706,
-2492,2880,15876,-530,356,260,3000,11000,207000,88719,
-2596,2912,15868,-521,325,213,3000,11000,207000,88721,
-2516,2888,15864,-509,270,254,3000,11000,207000,88723,
-2324,2904,15768,-543,123,212,3000,11000,207000,88736,
-2292,2880,15860,-569,67,250,3000,11000,207000,88738,
-2316,2928,15776,-597,70,235,3000,11000,207000,88741,
-2288,2808,15792,-601,2,199,3000,11000,207000,88743,
-2180,2904,16100,-671,13,186,3000,11000,207000,88756,
-2008,3084,16040,-644,-61,148,3000,11000,207000,88758,
-2072,3032,15744,-682,-41,158,3000,11000,207000,88761,
-2124,2912,16032,-639,80,103,3000,11000,207000,88774,
-2040,2916,16044,-685,87,118,3000,11000,207000,88776,
-2148,2928,15984,-684,157,75,3000,11000,207000,88778,
-2136,2884,15944,-681,152,89,3000,11000,207000,88781,
-2288,2820,15976,-657,265,86,3000,11000,207000,88793,
-2328,2716,16068,-636,215,118,3000,11000,207000,88796,
-2264,2780,16144,-676,231,82,3000,11000,207000,88798,
-2232,2852,16132,-625,206,88,3000,11000,207000,88811,
-2256,2752,16052,-638,224,104,3000,11000,207000,88813,
-2408,2848,16088,-595,185,96,3000,11000,207000,88816,
-2280,2764,16168,-612,191,126,3000,11000,207000,88818,
-2228,2840,16204,-595,132,108,3000,11000,207000,88834,
-2220,2844,16356,-547,143,69,3000,11000,207000,88837,
-2132,2732,16192,-574,134,106,3000,11000,207000,88839,
-2012,2796,16480,-472,298,30,3000,11000,207000,88852,
-2104,2864,16404,-494,341,42,3000,11000,207000,88854,
-1976,2848,16428,-498,415,38,3000,11000,207000,88857,
-2080,2964,16324,-436,485,13,3000,11000,207000,88859,
-2184,2768,16480,-374,721,-20,3000,11000,207000,88872,
-2220,2784,16504,-358,687,18,3000,11000,207000,88874,
-2244,2960,16340,-399,714,-10,3000,11000,207000,88876,
-2560,2716,16276,-342,623,-15,3000,11000,207000,88889,
-2660,2764,16428,-347,579,21,3000,11000,207000,88891,
-2636,2748,16420,-317,555,-32,3000,11000,207000,88894,
-2604,2656,16408,-334,460,21,3000,11000,207000,88896,
-2648,2840,16620,-344,168,-50,3000,11000,207000,88909,
-2612,2908,16440,-365,57,-18,3000,11000,207000,88911,
-2676,2836,16464,-392,43,-7,3000,11000,207000,88914,
-2424,2708,16612,-324,-40,-16,3000,11000,207000,88926,
-2236,2704,16676,-312,35,-21,3000,11000,207000,88929,
-2284,2808,16568,-253,54,-34,3000,11000,207000,88931,
-2308,2784,16596,-261,81,-40,3000,11000,207000,88933,
-2016,2684,16488,-112,307,-61,3000,11000,207000,88946,
-2008,2808,16592,-131,342,-33,3000,11000,207000,88948,
-1932,2868,16540,-98,463,-77,3000,11000,207000,88951,
-2064,2844,16496,-6,722,-12,3000,11000,207000,88964,
-2056,2812,16444,11,803,-10,3000,11000,207000,88966,
-2180,2796,16640,78,793,-1,3000,11000,207000,88968,
-2148,2852,16456,34,816,7,3000,11000,207000,88971,
-2168,2716,16684,138,807,-19,3000,11000,207000,88983,
-2164,2676,16608,160,827,-41,3000,11000,207000,88986,
-2068,2732,16692,230,804,-35,3000,11000,207000,88988,
-2052,2812,16692,306,711,-7,3000,11000,207000,89001,
-2172,2812,16680,296,637,-5,3000,11000,207000,89003,
-2196,2712,16776,315,656,-12,3000,11000,207000,89006,
-1988,2792,16748,340,695,-50,3000,11000,207000,89008,
-1788,2636,16716,418,640,-121,3000,11000,207000,89021,
-1856,2612,16832,528,614,-151,3000,11000,207000,89023,
-1840,2716,16708,516,608,-182,3000,11000,207000,89025,
-1644,2668,16892,691,695,-299,3000,11000,207000,89038,
-1492,2536,16868,690,690,-295,3000,11000,207000,89041,
-1432,2680,16868,701,709,-380,3000,11000,207000,89043,
-1368,2516,16972,778,713,-419,4000,11000,207000,89045,
-1192,2512,16948,947,909,-617,4000,11000,207000,89058,
-1080,2496,16844,914,961,-647,4000,11000,207000,89060,
-1040,2524,16964,938,1022,-688,4000,11000,207000,89063,
-892,2500,16816,1074,1252,-866,4000,11000,207000,89075,
-968,2540,16752,1085,1334,-917,4000,11000,207000,89078,
-960,2532,16788,1157,1333,-964,4000,11000,207000,89080,
-1096,2308,16568,1251,1440,-1134,4000,11000,207000,89093,
-1136,2340,16496,1256,1445,-1144,4000,11000,207000,89095,
-1108,2276,16576,1224,1489,-1149,4000,11000,207000,89098,
-1200,2080,16380,1363,1343,-1309,4000,11000,207000,89110,
-1180,2196,16264,1339,1347,-1314,4000,11000,207000,89113,
-1196,2144,16516,1431,1323,-1365,4000,11000,207000,89115,
-972,2320,16320,1412,1232,-1473,4000,11000,206000,89128,
-924,2268,16348,1474,1229,-1508,4000,11000,206000,89130,
-952,2236,16544,1453,1200,-1511,4000,12000,206000,89132,
-804,2280,16228,1528,1274,-1674,4000,12000,206000,89145,
-816,2428,16120,1477,1266,-1668,4000,12000,206000,89147,
-888,2380,16056,1462,1316,-1714,5000,12000,206000,89150,
-896,2324,16132,1503,1383,-1828,5000,12000,206000,89162,
-856,2192,16004,1519,1442,-1859,5000,12000,206000,89165,
-1024,2152,16156,1545,1368,-1907,5000,12000,206000,89167,
-856,2332,16080,1562,1332,-2104,5000,12000,206000,89180,
-772,2556,15932,1578,1252,-2136,5000,12000,206000,89182,
-848,2368,15808,1527,1254,-2175,5000,12000,206000,89185,
-704,2708,16000,1582,1350,-2395,5000,12000,205000,89197,
-760,2524,15904,1566,1370,-2440,5000,12000,205000,89200,
-636,2688,15824,1628,1433,-2497,5000,12000,205000,89202,
-784,2636,15700,1665,1604,-2752,5000,12000,205000,89215,
-824,2564,15612,1701,1617,-2862,5000,12000,205000,89217,
-820,2580,15588,1667,1608,-2826,5000,12000,205000,89219,
-1116,2500,15336,1687,1726,-3112,5000,12000,205000,89236,
-1308,2608,15424,1740,1718,-3152,5000,12000,205000,89238,
-1400,2616,15280,1698,1694,-3177,5000,12000,205000,89241,
-1556,2684,15264,1647,1579,-3385,6000,13000,204000,89253,
-1556,2632,15332,1631,1548,-3405,6000,13000,204000,89256,
-1568,2680,15328,1587,1533,-3445,6000,13000,204000,89258,
-1704,2764,15104,1517,1525,-3586,6000,13000,204000,89271,
-1768,2820,15184,1511,1547,-3615,6000,13000,204000,89273,
-1636,2876,15144,1547,1565,-3671,6000,13000,204000,89275,
-1884,2732,14720,1399,1675,-3845,6000,13000,203000,89288,
-1840,2760,14652,1432,1682,-3834,6000,13000,203000,89290,
-1980,2824,14644,1407,1700,-3865,6000,13000,203000,89293,
-2032,2832,14396,1432,1858,-4085,6000,13000,203000,89305,
-2076,2856,14476,1354,1827,-4068,6000,13000,203000,89308,
-2048,2912,14316,1335,1921,-4136,6000,13000,203000,89310,
-2164,2856,14140,1291,2112,-4264,6000,13000,202000,89323,
-2196,3012,14212,1287,2168,-4341,6000,14000,202000,89325,
-2168,3000,14228,1303,2171,-4329,6000,14000,202000,89328,
-2360,3048,14096,1194,2510,-4475,6000,14000,202000,89340,
-2488,3204,14120,1222,2516,-4500,6000,14000,202000,89343,
-2396,3144,14116,1178,2607,-4503,6000,14000,202000,89345,
-2848,3228,13892,1122,2909,-4616,6000,14000,201000,89358,
-2860,3160,13948,1096,2957,-4614,6000,14000,201000,89360,
-2948,3156,13784,1109,3027,-4679,6000,14000,201000,89362,
-3040,3240,13576,970,3193,-4736,6000,15000,201000,89375,
-3124,3260,13672,994,3236,-4758,6000,15000,200000,89377,
-3172,3332,13480,894,3207,-4763,6000,15000,200000,89380,
-3568,3456,13336,769,3355,-4823,6000,15000,200000,89392,
-3568,3408,13264,684,3361,-4818,6000,15000,200000,89395,
-3692,3336,13356,621,3374,-4852,6000,15000,200000,89397,
-4004,3416,13248,439,3290,-4928,6000,16000,199000,89410,
-4048,3448,13180,409,3329,-4939,6000,16000,199000,89412,
-4124,3452,13072,400,3233,-4973,6000,16000,199000,89415,
-4280,3572,13184,191,3111,-5058,6000,16000,199000,89427,
-4284,3572,13152,192,3022,-5057,6000,16000,199000,89430,
-4268,3576,13344,126,3003,-5066,6000,16000,199000,89432,
-4288,3564,13224,22,3029,-5109,6000,17000,198000,89445,
-4260,3644,13148,-39,3113,-5111,6000,17000,198000,89447,
-4288,3600,13128,-10,3148,-5139,6000,17000,198000,89449,
-4272,3572,13088,-131,3560,-5099,6000,17000,197000,89462,
-4192,3488,13132,-125,3680,-5094,6000,17000,197000,89464,
-4384,3660,12952,-162,3747,-5085,6000,17000,197000,89467,
-4656,3476,12756,-305,4130,-5132,6000,18000,197000,89479,
-4832,3632,13032,-347,4163,-5096,6000,18000,197000,89482,
-4940,3708,13076,-418,4266,-5155,6000,18000,197000,89484,
-5504,3736,13204,-534,4333,-5125,5000,19000,196000,89497,
-5468,3676,13200,-581,4368,-5156,5000,19000,196000,89499,
-5600,3692,13232,-588,4296,-5153,5000,19000,196000,89502,
-5860,3444,13112,-716,4220,-5179,5000,19000,196000,89514,
-5820,3404,13040,-760,4159,-5108,5000,19000,195000,89516,
-5960,3332,13128,-817,4157,-5113,5000,19000,195000,89519,
-5948,3188,13120,-930,4135,-4956,5000,20000,195000,89531,
-6068,3260,13160,-993,4165,-4913,5000,20000,195000,89534,
-6108,3276,13192,-989,4196,-4927,5000,20000,195000,89536,
-6364,3296,13112,-1131,4319,-4770,5000,21000,194000,89549,
-6432,3240,13172,-1129,4333,-4746,5000,21000,194000,89551,
-6424,3176,13416,-1135,4300,-4714,5000,21000,194000,89554,
-6568,3152,13148,-1211,4460,-4644,4000,21000,194000,89566,
-6556,3020,13272,-1265,4439,-4577,4000,21000,194000,89569,
-6564,3088,13352,-1292,4491,-4551,4000,21000,194000,89571,
-6832,3032,13360,-1434,4564,-4426,4000,22000,193000,89584,
-6772,3116,13176,-1453,4605,-4421,4000,22000,193000,89586,
-6872,3052,13312,-1442,4610,-4376,4000,22000,193000,89588,
-7064,2936,13416,-1540,4762,-4209,4000,23000,193000,89601,
-7036,2912,13636,-1513,4753,-4159,4000,23000,193000,89603,
-7060,2892,13412,-1521,4753,-4113,4000,23000,193000,89606,
-7168,2836,13720,-1519,4909,-3950,3000,23000,192000,89618,
-7148,2856,13484,-1579,4946,-3893,3000,23000,192000,89621,
-7300,2796,13628,-1577,5054,-3893,3000,24000,192000,89623,
-7268,2764,13588,-1556,5182,-3803,3000,24000,192000,89636,
-7276,2804,13404,-1589,5243,-3790,3000,24000,192000,89638,
-7304,2628,13420,-1577,5259,-3786,3000,24000,192000,89641,
-7724,2624,13388,-1685,5339,-3738,3000,25000,191000,89653,
-7752,2640,13352,-1699,5290,-3668,3000,25000,191000,89656,
-7820,2572,13340,-1762,5268,-3690,3000,25000,191000,89658,
-8096,2400,12848,-1879,5017,-3608,2000,26000,191000,89671,
-8100,2444,13092,-1953,5021,-3589,2000,26000,191000,89673,
-8124,2352,13008,-1922,4982,-3599,2000,26000,191000,89675,
-8428,2152,12852,-2134,4868,-3410,2000,26000,190000,89688,
-8416,2092,12820,-2128,4857,-3400,2000,26000,190000,89690,
-8388,2008,12996,-2156,4835,-3294,2000,27000,190000,89693,
-8696,2112,13152,-2284,4817,-3129,1000,27000,190000,89705,
-8716,2124,13136,-2405,4817,-3075,1000,27000,190000,89708,
-8880,2168,13100,-2424,4878,-3051,1000,27000,190000,89710,
-9144,2196,13000,-2644,4844,-2797,1000,28000,189000,89723,
-9212,2288,13060,-2651,4893,-2823,1000,28000,189000,89725,
-9212,2192,13004,-2677,4781,-2786,1000,28000,189000,89728,
-9820,1984,12920,-2945,4550,-2581,0,28000,189000,89740,
-9892,2028,12876,-2994,4432,-2561,0,29000,189000,89743,
-10052,2080,12964,-3043,4284,-2513,0,29000,189000,89745,
-10432,1856,13048,-3213,3590,-2149,0,29000,189000,89758,
-10444,1848,13020,-3261,3499,-2105,0,29000,189000,89760,
-10420,1900,12972,-3226,3368,-2064,0,29000,189000,89763,
-9940,1600,13420,-3275,3355,-1379,0,30000,189000,89779,
-9972,1836,12828,-3222,3073,-1400,0,30000,189000,89781,
-10352,2208,12572,-3279,2723,-1569,0,30000,188000,89784,
-10524,1696,13284,-3439,2472,-1470,0,30000,188000,89797,
-10532,1640,13124,-3475,2428,-1348,0,30000,188000,89799,
-10340,1552,13192,-3541,2263,-1191,0,30000,188000,89801,
-9716,1568,13088,-3585,2390,-987,-1000,30000,188000,89814,
-9700,1544,13140,-3602,2470,-930,-1000,30000,188000,89817,
-9584,1492,13240,-3574,2634,-891,-1000,31000,188000,89819,
-9360,1636,13084,-3468,3652,-514,-1000,31000,188000,89832,
-9320,1660,13180,-3424,3883,-502,-1000,31000,188000,89834,
-9280,1700,13224,-3419,4085,-444,-1000,31000,188000,89837,
-9624,1748,13228,-3471,5010,-305,-2000,32000,188000,89849,
-9696,1828,13264,-3481,5105,-243,-2000,32000,188000,89852,
-9776,1828,13308,-3496,5192,-187,-2000,32000,188000,89854,
-10600,1504,13356,-3478,5404,70,-2000,32000,188000,89867,
-10652,1476,13600,-3505,5490,145,-2000,32000,188000,89869,
-10652,1460,13460,-3452,5518,235,-2000,33000,188000,89872,
-10796,1204,13664,-3327,5629,676,-2000,33000,188000,89884,
-10856,1104,13628,-3250,5581,780,-2000,33000,188000,89887,
-11036,1052,13592,-3214,5597,897,-3000,33000,188000,89889,
-10912,916,13184,-3052,5696,1311,-3000,34000,188000,89902,
-10888,1080,13180,-3057,5709,1386,-3000,34000,188000,89904,
-10796,996,13148,-3029,5752,1416,-3000,34000,188000,89907,
-10940,1216,12716,-3055,5648,1682,-3000,35000,189000,89920,
-11128,1232,12860,-2965,5673,1739,-3000,35000,189000,89922,
-11008,1272,12720,-3032,5633,1835,-3000,35000,189000,89925,
-10836,1356,12520,-3102,5467,2059,-3000,36000,189000,89937,
-10916,1304,12480,-3163,5401,2059,-3000,36000,189000,89940,
-10960,1264,12480,-3222,5426,2055,-3000,36000,189000,89942,
-11080,1084,12504,-3137,5268,2358,-3000,36000,189000,89955,
-11000,1184,12624,-3207,5203,2367,-3000,37000,189000,89958,
-11128,1164,12388,-3201,5121,2404,-3000,37000,189000,89960,
-11200,1024,12496,-3333,5020,2696,-3000,37000,190000,89973,
-11172,1188,12584,-3306,4919,2720,-3000,37000,190000,89975,
-11164,1068,12480,-3417,4878,2776,-3000,37000,190000,89978,
-11548,1288,12668,-3656,4547,2824,-4000,38000,190000,89990,
-11568,1272,12708,-3682,4449,2832,-4000,38000,190000,89993,
-11688,1264,12600,-3692,4311,2888,-4000,38000,190000,89995,
-11720,1288,12512,-3938,3550,3069,-4000,38000,191000,90008,
-11888,1168,12520,-3947,3335,3073,-4000,39000,191000,90010,
-11760,1060,12604,-4017,3191,3114,-4000,39000,191000,90013,
-11860,1260,12520,-4174,2321,3192,-4000,39000,191000,90026,
-11708,1112,12496,-4243,2281,3258,-4000,39000,191000,90028,
-11612,864,12520,-4178,2249,3275,-4000,39000,191000,90031,
-11592,592,12392,-4184,1915,3296,-4000,39000,192000,90043,
-11348,652,12264,-4095,1897,3334,-4000,39000,192000,90046,
-11456,616,12372,-4149,1846,3417,-4000,39000,192000,90048,
-11612,788,12352,-4250,1418,3544,-4000,39000,192000,90061,
-11560,828,12228,-4270,1283,3597,-4000,40000,193000,90063,
-11488,940,12336,-4322,1204,3619,-4000,40000,193000,90066,
-11400,1004,12284,-4491,578,3608,-4000,40000,193000,90078,
-11364,888,12328,-4523,500,3591,-4000,40000,193000,90081,
-11360,816,12388,-4520,326,3564,-4000,40000,193000,90083,
-10868,1052,12344,-4749,-144,3544,-4000,40000,194000,90096,
-10712,980,12344,-4778,-231,3530,-4000,40000,194000,90098,
-10496,1020,12348,-4823,-251,3487,-4000,40000,194000,90101,
-9772,1148,12320,-4946,-293,3245,-5000,40000,194000,90114,
-9728,1092,12268,-5028,-270,3234,-5000,40000,195000,90116,
-9640,1100,12268,-5005,-200,3176,-5000,40000,195000,90118,
-9152,884,12008,-5258,382,3055,-5000,40000,195000,90131,
-9136,912,12028,-5217,468,2986,-5000,40000,195000,90134,
-9180,780,12156,-5294,542,2914,-5000,40000,195000,90136,
-10184,728,13224,-5156,760,2652,-5000,40000,196000,90149,
-11440,356,14544,-4662,699,2798,-5000,40000,196000,90151,
-12096,268,14180,-4205,812,3046,-5000,40000,196000,90154,
-15272,796,14224,-3593,-1623,3938,-5000,40000,196000,90166,
-16084,528,14172,-3671,-2375,3938,-5000,40000,196000,90169,
-14532,1096,11744,-5887,-8828,3213,-5000,39000,197000,90182,
-13344,1544,12256,-6592,-9985,2696,-5000,39000,197000,90184,
-11608,1420,12748,-6937,-10837,2268,-5000,39000,197000,90186,
-3116,2168,13160,-7758,-10521,600,-6000,37000,197000,90199,
-2572,1908,13024,-7786,-9572,440,-6000,37000,197000,90202,
-956,2152,13756,-7701,-8324,314,-6000,37000,198000,90204,
172,528,14684,-6275,1520,1332,-7000,37000,198000,90217,
-548,52,14836,-5719,3837,1776,-7000,37000,198000,90219,
-1256,-124,14636,-5262,5874,2017,-7000,37000,198000,90222,
-8624,-888,13240,-3377,13733,2682,-7000,38000,198000,90234,
-9704,-580,12240,-3582,14184,2713,-7000,39000,198000,90237,
-11020,-276,12020,-3777,14284,2837,-7000,39000,198000,90239,
-16060,896,12124,-4407,10172,3144,-7000,40000,198000,90252,
-16368,944,12360,-4663,8630,3055,-7000,40000,198000,90254,
-16456,1428,11652,-5402,6717,2747,-7000,40000,198000,90257,
-15184,1024,12824,-6861,-1109,1696,-8000,40000,199000,90269,
-14592,828,12820,-7146,-2447,1479,-8000,40000,199000,90272,
-14084,800,13096,-7404,-3469,1328,-8000,40000,199000,90274,
-11624,232,13836,-7384,-6185,1168,-9000,40000,199000,90287,
-10964,96,13808,-7355,-6237,1201,-9000,40000,199000,90289,
-10920,44,13916,-7336,-6228,1237,-9000,40000,199000,90292,
-10048,-284,14420,-6965,-5237,1496,-9000,39000,199000,90304,
-10028,-244,14376,-6879,-4969,1516,-9000,39000,200000,90307,
-10136,-248,14404,-6788,-4769,1598,-9000,39000,200000,90309,
-10228,-248,14856,-6671,-3927,1784,-10000,38000,200000,90322,
-10184,-440,14900,-6623,-3837,1798,-10000,38000,200000,90324,
-10120,-324,15064,-6651,-3669,1774,-10000,38000,200000,90327,
-9700,-508,14984,-6570,-2796,1838,-10000,38000,200000,90340,
-9632,-432,15156,-6555,-2526,1888,-10000,38000,200000,90342,
-9232,-828,15128,-6516,-2294,1902,-10000,38000,201000,90344,
-9168,-1152,15508,-6144,-473,2005,-11000,38000,201000,90357,
-9156,-1264,15584,-5991,-184,1990,-11000,38000,201000,90360,
-9404,-1216,15384,-5913,79,2019,-11000,38000,201000,90362,
-10360,-1332,15556,-5378,1239,2357,-11000,38000,201000,90375,
-10556,-1348,15656,-5297,1439,2384,-11000,38000,201000,90377,
-10948,-1340,15356,-5246,1547,2557,-11000,38000,201000,90380,
-11692,-1524,15204,-5010,1307,2785,-12000,38000,202000,90392,
-11948,-1388,15256,-4954,1171,2841,-12000,38000,202000,90395,
-11816,-1388,15280,-4979,978,2826,-12000,38000,202000,90397,
-12452,-1360,15540,-4888,-530,3302,-12000,38000,202000,90410,
-12284,-1352,15340,-4840,-857,3437,-12000,38000,202000,90412,
-12296,-1348,15436,-4892,-1043,3481,-12000,38000,202000,90415,
-12004,-1640,15604,-4865,-2604,3466,-12000,38000,203000,90428,
-11808,-1744,15404,-4831,-2787,3438,-12000,38000,203000,90430,
-11820,-1704,15392,-4804,-3106,3554,-12000,38000,203000,90433,
-10952,-2024,15724,-4634,-3976,3883,-12000,38000,204000,90445,
-10788,-1872,15648,-4620,-4083,3928,-12000,38000,204000,90448,
-10596,-2044,15716,-4568,-4073,3967,-12000,38000,204000,90450,
-9884,-1896,15868,-4277,-4086,4221,-12000,37000,205000,90463,
-9752,-2016,15904,-4241,-3969,4267,-12000,37000,205000,90465,
-9744,-2116,15812,-4039,-3872,4372,-12000,37000,205000,90468,
-9248,-2092,16104,-3786,-3202,4389,-12000,37000,205000,90481,
-9396,-2132,15976,-3668,-3100,4441,-12000,37000,206000,90483,
-9360,-2096,16100,-3664,-2900,4518,-12000,37000,206000,90486,
-9072,-2224,16140,-3263,-2286,4702,-12000,37000,206000,90498,
-9024,-2144,16084,-3211,-2205,4729,-12000,37000,207000,90501,
-8940,-2148,16052,-3116,-2085,4703,-12000,37000,207000,90503,
-9056,-2308,15616,-2875,-1848,4676,-12000,36000,207000,90516,
-8924,-2332,15672,-2810,-1827,4646,-12000,36000,207000,90519,
-9028,-2344,15544,-2808,-1751,4676,-12000,36000,208000,90521,
-8916,-2368,15584,-2588,-1744,4632,-12000,36000,208000,90534,
-9080,-2352,15692,-2572,-1742,4606,-12000,36000,208000,90536,
-9012,-2308,15600,-2501,-1711,4634,-12000,36000,208000,90539,
-9008,-2172,15472,-2351,-1830,4626,-12000,36000,209000,90551,
-8968,-2132,15464,-2350,-1830,4620,-11000,36000,209000,90554,
-8884,-2176,15712,-2219,-1909,4556,-11000,36000,209000,90556,
-8564,-2016,15468,-2219,-1976,4345,-11000,36000,210000,90569,
-8544,-1996,15492,-2153,-1968,4323,-11000,36000,210000,90571,
-8600,-2076,15384,-2120,-1869,4330,-11000,36000,210000,90574,
-8624,-1956,15372,-1914,-1548,4460,-11000,36000,211000,90587,
-8820,-2004,15320,-1934,-1537,4440,-11000,36000,211000,90589,
-8684,-1984,15284,-1844,-1576,4460,-11000,36000,211000,90592,
-8708,-2108,15304,-1673,-1640,4418,-11000,36000,211000,90604,
-8784,-2148,15172,-1693,-1768,4366,-11000,36000,211000,90607,
-8964,-2156,15340,-1754,-1833,4344,-11000,36000,212000,90609,
-8764,-2228,15084,-1538,-2018,4364,-11000,35000,212000,90622,
-8524,-2116,14900,-1540,-2040,4289,-11000,35000,212000,90624,
-8728,-1972,14984,-1564,-2083,4266,-10000,35000,212000,90627,
-8508,-1724,14772,-1563,-2250,4182,-10000,35000,213000,90640,
-8380,-1744,14808,-1590,-2227,4140,-10000,35000,213000,90642,
-8344,-1688,14784,-1599,-2236,4193,-10000,35000,213000,90644,
-7964,-1440,14924,-1602,-2116,4029,-10000,35000,214000,90658,
-7956,-1436,14920,-1589,-2074,3994,-10000,35000,214000,90660,
-7608,-1332,14376,-1593,-2298,3658,-10000,35000,214000,90673,
-7672,-1320,14424,-1648,-2320,3588,-10000,35000,214000,90675,
-7624,-1412,14444,-1645,-2391,3540,-10000,35000,215000,90678,
-7416,-1628,14460,-1547,-2568,3371,-10000,34000,215000,90691,
-7476,-1648,14436,-1510,-2527,3323,-10000,34000,215000,90693,
-7428,-1596,14472,-1540,-2553,3349,-10000,34000,215000,90696,
-7476,-1660,14336,-1414,-2379,3157,-9000,34000,216000,90708,
-7352,-1744,14248,-1410,-2312,3101,-9000,34000,216000,90711,
-7520,-1668,14328,-1369,-2241,3089,-9000,34000,216000,90713,
-7672,-1544,14328,-1124,-2121,3062,-9000,34000,216000,90726,
-7932,-1568,14192,-1067,-2093,3076,-9000,34000,216000,90728,
-7956,-1676,14488,-979,-2087,3012,-9000,34000,216000,90731,
-8472,-1848,14964,-825,-2531,3005,-9000,34000,217000,90744,
-8440,-1636,14728,-814,-2640,3042,-9000,33000,217000,90746,
-8540,-1588,14628,-869,-2814,3106,-9000,33000,217000,90748,
-8744,-1448,14888,-913,-3982,3063,-9000,33000,217000,90761,
-8732,-1436,15056,-889,-4164,3061,-9000,33000,217000,90764,
-8832,-1576,15032,-819,-4359,3076,-9000,33000,218000,90766,
-8224,-1572,15088,-848,-5105,2965,-9000,32000,218000,90779,
-8240,-1496,15264,-765,-5216,2956,-9000,32000,218000,90781,
-8104,-1504,15372,-773,-5226,2988,-8000,32000,218000,90784,
-7508,-1620,15292,-598,-5282,2991,-8000,32000,219000,90796,
-7488,-1480,15216,-622,-5252,2987,-8000,32000,219000,90799,
-7340,-1528,15360,-594,-5283,2988,-8000,32000,219000,90801,
-7040,-1464,15320,-453,-5099,3077,-8000,31000,219000,90814,
-7004,-1408,15256,-437,-5102,3043,-8000,31000,219000,90816,
-6924,-1424,15140,-387,-5097,3055,-8000,31000,219000,90819,
-6816,-1476,15108,-255,-5104,2912,-8000,30000,220000,90832,
-6784,-1484,15052,-260,-5106,2874,-8000,30000,220000,90834,
-6768,-1564,15144,-276,-5080,2909,-8000,30000,220000,90837,
-6584,-1476,15276,-127,-5150,2805,-7000,30000,220000,90849,
-6632,-1352,15364,-96,-5163,2814,-7000,30000,220000,90852,
-6560,-1288,15392,-89,-5138,2830,-7000,29000,221000,90854,
-6192,-1308,15448,71,-4989,2859,-7000,29000,221000,90867,
-6268,-1252,15552,97,-4880,2857,-7000,29000,221000,90869,
-6144,-1256,15548,133,-4832,2811,-7000,29000,221000,90872,
-6000,-1048,15656,381,-4563,2706,-7000,28000,221000,90885,
-6056,-1200,15516,429,-4506,2709,-7000,28000,222000,90887,
-5904,-1132,15568,465,-4500,2646,-7000,28000,222000,90889,
-6188,-1080,15660,576,-4715,2587,-6000,28000,222000,90902,
-6148,-1156,15792,593,-4780,2611,-6000,28000,222000,90904,
-6244,-1024,15716,603,-4847,2575,-6000,28000,222000,90907,
-5772,-1012,15768,660,-4978,2545,-6000,27000,222000,90919,
-5732,-1092,15748,723,-4958,2500,-6000,27000,222000,90922,
-5540,-1100,15736,754,-4932,2443,-6000,27000,223000,90924,
-5416,-1036,15736,905,-4678,2303,-6000,26000,223000,90937,
-5552,-912,15676,932,-4689,2298,-6000,26000,223000,90939,
-5524,-808,15880,984,-4619,2295,-6000,26000,223000,90942,
-5612,-968,15764,1201,-4545,2272,-5000,26000,223000,90954,
-5628,-1020,15740,1191,-4503,2264,-5000,26000,223000,90957,
-5696,-1012,15724,1275,-4456,2223,-5000,26000,223000,90959,
-5768,-1104,15796,1447,-4606,2356,-5000,25000,224000,90972,
-5756,-1244,15708,1518,-4670,2350,-5000,25000,224000,90974,
-5712,-1160,15568,1524,-4712,2406,-5000,25000,224000,90977,
-5520,-916,15596,1633,-5046,2412,-5000,24000,224000,90989,
-5328,-1008,15400,1578,-5105,2399,-5000,24000,224000,90992,
-5392,-984,15344,1577,-5136,2419,-5000,24000,224000,90994,
-4876,-872,15212,1662,-5327,2468,-4000,24000,225000,91007,
-4852,-824,15276,1662,-5349,2418,-4000,24000,225000,91009,
-4832,-952,15284,1672,-5415,2433,-4000,23000,225000,91011,
-4360,-768,15280,1621,-5472,2350,-4000,23000,225000,91024,
-4232,-664,15348,1584,-5490,2385,-4000,23000,225000,91026,
-4140,-656,15252,1599,-5472,2390,-4000,23000,225000,91029,
-3636,-480,15492,1570,-5301,2157,-3000,22000,225000,91041,
-3620,-540,15628,1539,-5274,2132,-3000,22000,225000,91044,
-3696,-480,15588,1612,-5209,2102,-3000,22000,225000,91046,
-3460,-508,15732,1741,-4955,2042,-3000,21000,226000,91059,
-3476,-548,15744,1816,-4874,2018,-3000,21000,226000,91061,
-3324,-552,15788,1815,-4824,2021,-3000,21000,226000,91064,
-3016,-840,15888,2020,-4417,1972,-3000,21000,226000,91076,
-2920,-772,15932,2000,-4343,1963,-3000,21000,226000,91079,
-2808,-768,15912,2056,-4231,1962,-3000,21000,226000,91081,
-2664,-732,15776,2182,-3869,1816,-2000,20000,226000,91094,
-2680,-620,15904,2259,-3774,1791,-2000,20000,226000,91096,
-2632,-596,15904,2225,-3755,1775,-2000,20000,226000,91098,
-2460,-548,15984,2414,-3477,1662,-2000,20000,227000,91111,
-2536,-308,15768,2376,-3393,1635,-2000,19000,227000,91113,
-2360,-400,15824,2447,-3302,1572,-2000,19000,227000,91116,
-1956,-440,15856,2568,-2998,1341,-1000,19000,227000,91128,
-2048,-468,15912,2602,-2921,1268,-1000,19000,227000,91131,
-1936,-412,15764,2652,-2946,1256,-1000,19000,227000,91133,
-1824,-292,15816,2766,-2674,990,-1000,19000,227000,91146,
-1728,-228,15628,2778,-2635,972,-1000,19000,227000,91148,
-1616,-152,15656,2786,-2570,904,-1000,18000,227000,91151,
-1420,156,15792,2880,-2097,597,-1000,18000,227000,91167,
-1400,96,15744,2952,-2062,529,0,18000,227000,91170,
-1356,96,15580,2898,-1991,479,0,18000,227000,91172,
-1332,256,15520,2959,-1913,377,0,18000,227000,91174,
-1508,136,15408,3004,-1885,112,0,18000,227000,91187,
-1532,8,15376,3068,-1867,28,0,18000,227000,91189,
-1472,-56,15340,3069,-1872,20,0,18000,227000,91192,
-1308,12,15300,3110,-1794,9,0,18000,227000,91194,
-1028,52,15292,3279,-1336,-299,0,17000,227000,91207,
-844,104,15124,3273,-1249,-429,0,17000,227000,91209,
-916,184,15140,3326,-1192,-476,0,17000,227000,91212,
-856,296,14956,3291,-1110,-498,0,17000,227000,91214,
-808,680,15004,3470,-360,-795,0,17000,227000,91227,
-560,536,14936,3424,-219,-858,0,17000,227000,91229,
-804,692,14924,3435,10,-999,0,17000,227000,91232,
-1228,1048,14932,3368,252,-1271,0,17000,227000,91244,
-1428,1104,15088,3426,324,-1336,0,17000,227000,91247,
-1592,1116,15064,3421,284,-1329,0,17000,227000,91249,
-1688,1184,14980,3380,292,-1366,1000,17000,227000,91251,
-2412,1388,14992,3260,-172,-1561,1000,17000,227000,91264,
-2360,1256,14948,3219,-265,-1596,1000,17000,227000,91267,
-2500,1376,14988,3238,-390,-1649,1000,17000,227000,91269,
-2540,1376,15104,3192,-1161,-1846,1000,17000,226000,91282,
-2472,1500,15028,3167,-1290,-1942,1000,17000,226000,91284,
-2484,1560,15048,3150,-1509,-1945,1000,17000,226000,91286,
-2332,1812,14996,3083,-2087,-2320,2000,16000,226000,91299,
-2336,2068,14880,2970,-2250,-2378,2000,16000,226000,91301,
-2536,2008,15088,2956,-2368,-2462,2000,16000,226000,91304,
-2064,2124,14952,2915,-2879,-2852,2000,16000,226000,91316,
-2136,2060,14996,2871,-2943,-2908,2000,16000,226000,91319,
-1864,1984,15020,2875,-2959,-2993,2000,16000,226000,91321,
-1780,2376,15172,2682,-3138,-3413,2000,15000,225000,91334,
-2008,2420,15120,2735,-3126,-3466,2000,15000,225000,91336,
-1948,2408,15204,2693,-3085,-3454,2000,15000,225000,91339,
-2104,2464,15224,2555,-3119,-3744,2000,15000,225000,91351,
-2160,2484,15232,2481,-3143,-3742,2000,15000,225000,91354,
-2356,2560,15176,2466,-3094,-3800,3000,15000,225000,91356,
-2456,2504,15092,2289,-3206,-3977,3000,15000,224000,91369,
-2392,2508,15292,2265,-3231,-4002,3000,14000,224000,91371,
-2512,2476,15176,2277,-3257,-4008,3000,14000,224000,91373,
-2576,2388,15152,2164,-3513,-4102,3000,14000,224000,91386,
-2588,2356,15168,2156,-3555,-4153,3000,14000,224000,91388,
-2516,2288,15096,2108,-3553,-4189,3000,14000,223000,91391,
-2648,2164,15020,2104,-3745,-4398,3000,14000,223000,91403,
-2592,2224,15200,2070,-3764,-4404,3000,14000,223000,91406,
-2628,2164,15136,2063,-3786,-4477,3000,13000,223000,91408,
-2412,2192,15328,2041,-3829,-4437,3000,13000,222000,91421,
-2300,2292,15292,2106,-3782,-4458,3000,13000,222000,91423,
-2272,2224,15104,2061,-3706,-4401,3000,13000,222000,91426,
-1900,2568,15096,2166,-3103,-4532,3000,13000,222000,91438,
-2052,2552,15140,2060,-2993,-4489,3000,13000,222000,91440,
-2052,2616,15036,2060,-2855,-4491,3000,13000,222000,91443,
-2024,2772,15032,2107,-2217,-4536,4000,12000,221000,91455,
-2140,2896,15104,2091,-2124,-4557,4000,12000,221000,91458,
-2160,2904,14964,2144,-2037,-4585,4000,12000,221000,91460,
-2236,3116,15008,2074,-1663,-4657,4000,12000,221000,91473,
-2400,3040,15108,2138,-1632,-4622,4000,12000,220000,91475,
-2500,2976,15012,2070,-1565,-4616,4000,12000,220000,91478,
-2568,2840,14828,2132,-1337,-4636,4000,12000,220000,91490,
-2624,2912,14784,2063,-1315,-4608,4000,12000,220000,91493,
-2724,2912,14768,2032,-1242,-4632,4000,12000,220000,91495,
-2904,2892,14884,1935,-1253,-4528,4000,12000,219000,91508,
-2820,3080,14748,1936,-1258,-4509,4000,12000,219000,91510,
-3052,3088,14756,1911,-1316,-4476,4000,12000,219000,91512,
-3172,3116,14884,1864,-1459,-4512,4000,12000,219000,91525,
-3220,3192,14688,1824,-1519,-4494,4000,12000,219000,91528,
-3280,3276,14716,1797,-1525,-4509,4000,12000,218000,91530,
-3172,3568,14948,1712,-1676,-4550,5000,11000,218000,91542,
-3212,3460,14884,1678,-1662,-4608,5000,11000,218000,91545,
-3148,3616,14764,1676,-1671,-4562,5000,11000,218000,91547,
-2988,3768,14868,1617,-1526,-4705,5000,11000,217000,91560,
-3140,3632,14736,1564,-1530,-4684,5000,11000,217000,91562,
-3076,3616,14696,1535,-1488,-4632,5000,11000,217000,91565,
-3240,3548,14660,1438,-1393,-4518,5000,11000,217000,91577,
-3308,3448,14668,1348,-1373,-4533,5000,11000,217000,91580,
-3276,3548,14676,1423,-1369,-4526,5000,11000,217000,91582,
-3320,3500,14628,1286,-1290,-4455,5000,11000,216000,91595,
-3256,3588,14380,1284,-1284,-4453,5000,11000,216000,91597,
-3124,3536,14608,1196,-1274,-4422,5000,11000,216000,91600,
-3288,3828,14448,1064,-928,-4340,5000,11000,216000,91612,
-3296,3784,14420,995,-807,-4330,5000,11000,215000,91614,
-3252,3824,14508,993,-719,-4350,5000,11000,215000,91617,
-3628,3776,14464,838,-390,-4171,5000,11000,215000,91629,
-3632,3648,14392,906,-310,-4127,5000,11000,215000,91632,
-3644,3712,14424,841,-322,-4070,5000,11000,215000,91634,
-3992,3820,14520,804,-239,-3809,5000,11000,214000,91647,
-4060,3744,14580,742,-288,-3734,5000,11000,214000,91649,
-4044,3896,14576,653,-279,-3506,5000,11000,214000,91662,
-3920,3732,14484,618,-276,-3446,5000,11000,214000,91664,
-3888,3940,14604,634,-243,-3448,5000,11000,214000,91667,
-3908,3956,14496,499,-85,-3199,5000,11000,214000,91679,
-3752,3916,14592,481,-13,-3157,5000,11000,214000,91682,
-3796,4008,14392,483,28,-3104,5000,11000,214000,91684,
-3744,4004,14368,424,120,-3087,5000,11000,213000,91686,
-3780,4028,14464,346,532,-2861,5000,11000,213000,91699,
-3828,4084,14548,318,631,-2842,5000,11000,213000,91701,
-3960,4196,14672,293,780,-2807,5000,11000,213000,91704,
-4108,4128,14752,106,989,-2537,5000,11000,213000,91716,
-4276,4112,14912,105,1019,-2493,5000,11000,213000,91719,
-4284,4060,14784,50,995,-2425,5000,12000,213000,91721,
-4624,4076,15004,-35,873,-2202,5000,12000,213000,91734,
-4828,3992,15000,-109,768,-2139,5000,12000,213000,91736,
-4676,3948,14984,-132,752,-2113,5000,12000,213000,91739,
-4568,4012,15188,-231,450,-1934,5000,12000,212000,91751,
-4468,3960,15156,-194,446,-1912,5000,12000,212000,91754,
-4580,4064,15248,-215,392,-1852,5000,12000,212000,91756,
-4420,4384,15552,-324,441,-1627,5000,12000,212000,91769,
-4328,4312,15468,-329,414,-1561,5000,12000,212000,91771,
-4360,4304,15384,-427,450,-1488,5000,12000,212000,91773,
-4352,4268,15572,-428,464,-1300,5000,12000,212000,91786,
-4368,4072,15492,-452,465,-1302,5000,12000,212000,91788,
-4396,4176,15552,-444,434,-1255,5000,12000,212000,91791,
-4396,4124,15428,-552,241,-1192,5000,12000,212000,91803,
-4380,4084,15628,-559,181,-1146,5000,12000,212000,91806,
-4388,4060,15772,-592,114,-1134,5000,12000,212000,91808,
-4304,3960,15852,-667,-204,-1013,5000,12000,212000,91821,
-4172,4004,15640,-664,-254,-1011,5000,12000,212000,91823,
-4220,3892,15808,-662,-270,-1041,5000,12000,212000,91826,
-4032,3844,16000,-697,-370,-906,5000,12000,212000,91838,
-3948,3780,15936,-641,-392,-877,5000,12000,212000,91840,
-3888,3856,15868,-667,-376,-858,5000,12000,212000,91843,
-3880,3748,15960,-644,-288,-696,5000,12000,212000,91855,
-3980,3740,15952,-685,-311,-612,5000,12000,212000,91858,
-3936,3624,16096,-682,-277,-619,5000,12000,212000,91860,
-3940,3536,15892,-599,-249,-452,5000,12000,211000,91873,
-3868,3400,15776,-622,-236,-462,5000,12000,211000,91875,
-3752,3440,15872,-535,-234,-454,5000,12000,211000,91878,
-3668,3452,15884,-597,-255,-391,5000,12000,211000,91890,
-3480,3500,16096,-589,-317,-365,5000,12000,211000,91893,
-3460,3564,15916,-618,-294,-375,5000,12000,211000,91895,
-3228,3556,16100,-597,-221,-367,5000,12000,211000,91908,
-3040,3404,16108,-634,-182,-392,5000,12000,211000,91910,
-2996,3496,16048,-636,-134,-436,5000,12000,211000,91912,
-2908,3616,16044,-625,139,-388,5000,12000,211000,91925,
-2956,3616,16132,-608,251,-390,5000,12000,211000,91927,
-2860,3488,16192,-550,281,-365,5000,12000,211000,91930,
