Ax,Ay,Az,Gx,Gy,Gz,Roll,Pitch,Yaw,Timestamp,Target
4028,-804,15476,-860,880,292,-9000,-13000,68000,429590,
4016,-748,15772,-853,841,328,-9000,-13000,68000,429602,
3916,-816,15728,-869,882,309,-9000,-13000,68000,429605,
3924,-808,15512,-929,825,349,-9000,-13000,68000,429607,
3960,-744,15828,-912,772,373,-9000,-13000,68000,429620,
3976,-860,15836,-993,680,370,-9000,-13000,68000,429622,
4068,-756,15720,-932,748,409,-9000,-13000,68000,429624,
4048,-876,15708,-1061,694,406,-9000,-12000,68000,429637,
4140,-824,15580,-1017,743,382,-9000,-12000,68000,429639,
4032,-748,15624,-1072,710,404,-9000,-12000,68000,429641,
4052,-740,15608,-1131,697,396,-9000,-12000,68000,429654,
4036,-812,15716,-1102,706,413,-9000,-12000,68000,429656,
3960,-828,15900,-1110,689,406,-9000,-12000,68000,429658,
4068,-960,15476,-1099,638,473,-9000,-12000,68000,429671,
4184,-860,15668,-1088,675,471,-9000,-12000,68000,429673,
4060,-812,15836,-1120,586,488,-9000,-12000,68000,429676,
0,0,0,0,0,0,-9000,-12000,68000,429676,
1968,2804,15724,319,-1228,30,2000,-4000,48000,435990,
1908,2804,15840,246,-1268,16,2000,-4000,48000,435993,
1884,2692,15640,339,-1146,-39,2000,-4000,48000,436005,
0,0,0,0,0,0,2000,-4000,48000,436005,
3968,-968,15528,-814,739,368,-9000,-12000,68000,429722,
3856,-968,15576,-826,667,345,-9000,-12000,68000,429724,
3824,-940,15600,-764,741,356,-9000,-12000,68000,429727,
3852,-976,15764,-790,687,276,-9000,-12000,68000,429739,
3812,-1020,15740,-757,761,257,-9000,-12000,68000,429742,
3852,-1140,15756,-779,685,240,-9000,-12000,68000,429744,
3548,-1116,15716,-676,581,158,-9000,-12000,68000,429756,
3560,-1048,15784,-713,532,150,-9000,-12000,68000,429759,
3452,-1084,15800,-668,499,142,-9000,-12000,68000,429761,
3372,-1148,15604,-661,135,144,-10000,-12000,68000,429774,
3480,-1108,15744,-593,128,154,-10000,-12000,68000,429776,
3464,-1224,15684,-619,27,91,-10000,-12000,68000,429778,
3664,-1188,15712,-514,-226,85,-10000,-12000,68000,429791,
3688,-1340,15688,-522,-192,60,-10000,-12000,68000,429793,
3768,-1204,15660,-514,-285,63,-10000,-12000,68000,429795,
3808,-1176,15688,-463,-369,6,-10000,-12000,68000,429808,
3868,-1180,15564,-406,-345,-1,-10000,-12000,68000,429810,
3892,-1236,15440,-451,-386,4,-10000,-12000,68000,429812,
3936,-1112,15852,-338,-341,-22,-10000,-12000,68000,429824,
4076,-1108,15752,-399,-366,-21,-10000,-12000,68000,429827,
4176,-1096,15728,-340,-327,-33,-10000,-12000,68000,429829,
4308,-1116,15532,-384,-169,-129,-10000,-12000,68000,429841,
4224,-1128,15804,-319,-128,-119,-10000,-12000,68000,429844,
4264,-1124,15568,-364,-164,-126,-10000,-12000,68000,429846,
4176,-1144,15700,-286,-21,-190,-10000,-12000,68000,429859,
4120,-1084,15756,-294,-115,-148,-10000,-12000,68000,429861,
4136,-1112,15676,-270,-55,-178,-10000,-12000,68000,429863,
4164,-1204,15608,-246,-169,-187,-10000,-12000,68000,429876,
4080,-1196,15668,-191,-115,-197,-10000,-12000,68000,429878,
4156,-1144,15404,-218,-201,-206,-10000,-12000,68000,429880,
4292,-1172,15492,-85,-111,-233,-9000,-12000,68000,429893,
4292,-1184,15612,-106,-93,-257,-9000,-12000,68000,429895,
4248,-1076,15532,-55,-101,-250,-9000,-12000,68000,429897,
4400,-968,15424,19,238,-339,-9000,-12000,68000,429910,
4500,-976,15636,60,240,-353,-9000,-12000,68000,429912,
4436,-932,15500,78,407,-395,-9000,-12000,68000,429915,
3968,-732,15568,156,748,-531,-9000,-12000,68000,429927,
3856,-748,15544,158,776,-523,-9000,-12000,68000,429929,
3588,-712,15728,229,790,-504,-9000,-12000,68000,429932,
3196,-832,16036,205,204,-304,-9000,-12000,67000,429944,
3136,-804,16020,217,11,-275,-9000,-12000,67000,429947,
3376,-876,15904,191,-97,-252,-9000,-12000,67000,429949,
3664,-1032,15668,222,-635,-161,-9000,-12000,67000,429961,
3832,-1012,15820,165,-673,-141,-9000,-12000,67000,429964,
3960,-1016,15624,169,-722,-148,-9000,-12000,67000,429966,
4464,-880,15548,170,-520,-212,-9000,-12000,67000,429978,
4484,-948,15612,117,-462,-258,-9000,-12000,67000,429981,
4720,-868,15516,146,-344,-293,-9000,-12000,67000,429983,
4588,-908,15428,106,343,-482,-9000,-12000,67000,429995,
4480,-888,15700,62,380,-511,-9000,-12000,67000,429998,
4452,-824,15612,88,542,-535,-9000,-12000,67000,430000,
3792,-940,15704,82,682,-580,-9000,-12000,67000,430012,
3740,-976,15788,126,717,-589,-9000,-12000,67000,430015,
3636,-932,15864,91,604,-549,-9000,-12000,67000,430017,
3336,-968,15692,240,299,-529,-9000,-12000,67000,430029,
3172,-1040,15676,235,109,-534,-9000,-12000,67000,430032,
3096,-948,15564,297,107,-489,-9000,-12000,67000,430034,
3244,-888,15752,389,-720,-256,-9000,-12000,67000,430047,
3288,-940,15828,483,-821,-247,-9000,-12000,67000,430049,
3448,-824,15768,462,-972,-203,-9000,-12000,67000,430051,
4404,-744,15568,571,-1148,-170,-9000,-12000,67000,430064,
4532,-524,15608,522,-1100,-188,-9000,-12000,67000,430066,
4480,-548,15644,583,-1010,-195,-9000,-12000,67000,430068,
4924,-620,15704,471,-406,-365,-8000,-13000,67000,430081,
4896,-692,15644,515,-251,-371,-8000,-13000,67000,430083,
4928,-656,15428,468,-179,-432,-8000,-13000,67000,430085,
4528,-832,15528,445,541,-545,-8000,-12000,67000,430098,
4404,-800,15492,447,515,-560,-8000,-12000,67000,430100,
4340,-848,15660,461,677,-543,-8000,-12000,67000,430102,
3936,-732,15788,453,602,-505,-8000,-12000,67000,430115,
3992,-704,15744,490,659,-499,-8000,-12000,67000,430117,
4008,-768,15744,435,588,-486,-8000,-12000,67000,430120,
3900,-568,15676,512,763,-543,-8000,-12000,67000,430132,
3856,-604,15688,479,724,-574,-8000,-12000,67000,430134,
3672,-464,15680,485,708,-538,-8000,-12000,67000,430137,
3516,-416,15776,474,404,-386,-8000,-12000,67000,430149,
3448,-388,15844,456,231,-356,-8000,-12000,67000,430152,
3520,-384,15804,473,200,-345,-8000,-12000,67000,430154,
3804,-364,15892,379,-261,-224,-8000,-12000,67000,430166,
3820,-384,15812,368,-388,-201,-8000,-12000,67000,430169,
3968,-436,15896,345,-319,-212,-8000,-12000,67000,430171,
4200,-392,15824,189,-399,-231,-8000,-12000,67000,430184,
4084,-436,15764,257,-330,-244,-8000,-12000,67000,430186,
3924,-472,15652,170,-361,-267,-8000,-12000,67000,430188,
4108,-572,15560,187,-391,-168,-8000,-12000,67000,430201,
4004,-592,15508,147,-398,-161,-8000,-12000,67000,430203,
4080,-556,15596,184,-492,-146,-8000,-13000,67000,430205,
4352,-512,15656,181,-344,-109,-8000,-13000,67000,430218,
4428,-444,15692,203,-312,-92,-8000,-13000,67000,430220,
4504,-384,15720,170,-278,-121,-8000,-13000,67000,430222,
4412,-284,15564,182,183,-202,-7000,-13000,67000,430235,
4424,-516,15764,146,261,-259,-7000,-13000,67000,430237,
4344,-432,15472,193,305,-240,-7000,-13000,67000,430239,
4088,-280,15580,169,452,-190,-7000,-13000,67000,430252,
3828,-340,15624,262,502,-192,-7000,-13000,66000,430254,
3864,-236,15628,207,437,-193,-7000,-13000,66000,430257,
3836,-344,15820,259,217,-119,-7000,-13000,66000,430269,
3900,-420,15668,218,227,-123,-7000,-13000,66000,430271,
3904,-328,15728,235,144,-128,-7000,-13000,66000,430274,
3916,-212,15744,213,8,-95,-7000,-13000,66000,430286,
3944,-248,15740,195,-14,-93,-7000,-13000,66000,430288,
4096,-204,15712,207,50,-132,-7000,-13000,66000,430291,
4072,-212,15712,191,-44,-103,-7000,-13000,66000,430293,
3932,-288,15840,179,54,-167,-7000,-13000,66000,430306,
3996,-296,15820,123,-32,-200,-7000,-13000,66000,430308,
3948,-332,15836,154,35,-195,-7000,-13000,66000,430310,
3856,-296,15700,87,-80,-227,-7000,-13000,66000,430323,
3764,-392,15680,124,-86,-210,-7000,-13000,66000,430325,
3856,-312,15728,42,-197,-233,-7000,-13000,66000,430327,
3896,-380,15768,63,-256,-213,-7000,-13000,66000,430340,
3888,-380,15652,62,-316,-207,-7000,-13000,66000,430342,
3996,-292,15596,-2,-346,-204,-7000,-13000,66000,430345,
4056,-292,15816,-35,-356,-260,-7000,-13000,66000,430357,
4128,-320,15792,-71,-407,-286,-7000,-13000,66000,430359,
4184,-256,15708,-39,-345,-283,-7000,-13000,66000,430362,
4244,-232,15616,-174,-381,-357,-7000,-13000,66000,430374,
4164,-288,15700,-122,-309,-354,-7000,-13000,66000,430376,
4268,-216,15656,-177,-329,-381,-7000,-13000,66000,430379,
4176,-236,15608,-171,-207,-399,-7000,-13000,66000,430391,
4296,-192,15740,-183,-255,-405,-7000,-13000,66000,430394,
4280,-244,15672,-176,-152,-414,-7000,-13000,66000,430396,
4256,-208,15820,-225,-122,-469,-7000,-13000,66000,430408,
4248,-276,15560,-209,-26,-523,-7000,-13000,66000,430411,
4264,-172,15724,-220,-29,-532,-7000,-13000,66000,430413,
4112,-184,15600,-245,-53,-532,-7000,-13000,66000,430425,
4016,-164,15596,-199,-31,-502,-7000,-13000,66000,430428,
4032,-172,15704,-233,-121,-511,-7000,-13000,66000,430430,
4072,-164,15740,-185,-221,-508,-7000,-13000,66000,430443,
4168,-276,15652,-215,-318,-527,-7000,-13000,66000,430445,
4128,-252,15784,-190,-241,-531,-7000,-13000,66000,430447,
4308,-332,15608,-207,-293,-524,-7000,-13000,66000,430460,
4228,-184,15608,-135,-205,-519,-7000,-13000,66000,430462,
4172,-156,15456,-186,-198,-532,-7000,-13000,66000,430464,
4132,-88,15696,-56,-205,-468,-7000,-13000,66000,430477,
4140,-192,15520,-75,-280,-462,-7000,-13000,66000,430479,
4216,-140,15728,-89,-224,-462,-7000,-13000,66000,430481,
4196,-128,15652,-23,-236,-474,-7000,-13000,66000,430494,
4220,-232,15684,-80,-235,-449,-7000,-13000,66000,430496,
4240,-172,15556,-57,-251,-448,-6000,-13000,66000,430499,
4260,-104,15724,-61,-235,-458,-6000,-13000,66000,430511,
4300,-160,15572,-32,-274,-445,-6000,-13000,66000,430513,
4264,-172,15584,-43,-241,-440,-6000,-13000,66000,430516,
4268,-196,15568,14,-243,-410,-6000,-13000,66000,430528,
4272,-192,15524,-8,-156,-413,-6000,-13000,66000,430530,
4336,-272,15528,-37,-247,-407,-6000,-13000,66000,430533,
4388,-144,15712,17,-124,-375,-6000,-13000,66000,430545,
4300,-164,15788,0,-204,-380,-6000,-13000,66000,430548,
4380,-200,15676,44,-113,-396,-6000,-13000,66000,430550,
4428,-164,15684,3,-93,-396,-6000,-13000,65000,430562,
4408,-168,15712,59,1,-409,-6000,-13000,65000,430565,
4424,-28,15648,-15,-33,-406,-6000,-13000,65000,430567,
4424,-136,15784,63,41,-441,-6000,-13000,65000,430569,
4536,-140,15488,31,220,-489,-6000,-13000,65000,430582,
4448,-140,15472,82,368,-499,-6000,-13000,65000,430584,
4424,-108,15484,32,304,-538,-6000,-13000,65000,430586,
4212,-160,15780,99,429,-530,-6000,-13000,65000,430599,
4136,-76,15736,156,372,-565,-6000,-13000,65000,430601,
4228,-92,15652,142,437,-554,-6000,-13000,65000,430603,
4028,-116,15476,193,293,-586,-6000,-13000,65000,430616,
4020,-48,15640,168,250,-576,-6000,-13000,65000,430618,
4064,-88,15720,247,233,-575,-6000,-13000,65000,430620,
4008,96,15848,258,1,-549,-6000,-13000,65000,430633,
3940,-76,15664,319,2,-544,-6000,-13000,65000,430635,
3968,8,15704,278,-49,-532,-6000,-13000,65000,430638,
3980,52,15600,329,-84,-520,-6000,-13000,65000,430640,
4072,0,15516,375,-312,-549,-6000,-13000,65000,430653,
4164,68,15732,381,-270,-561,-6000,-13000,65000,430655,
4160,24,15536,371,-353,-563,-6000,-13000,65000,430657,
3896,156,15552,569,-373,-517,-6000,-13000,65000,430670,
3944,60,15604,525,-452,-522,-6000,-13000,65000,430672,
3876,220,15748,624,-475,-468,-6000,-13000,65000,430674,
4096,228,15628,670,-841,-441,-5000,-13000,65000,430687,
4140,140,15768,734,-819,-434,-5000,-13000,65000,430689,
4144,148,15556,701,-836,-444,-5000,-13000,65000,430691,
4464,272,15504,788,-933,-439,-5000,-14000,65000,430704,
4396,168,15696,728,-922,-449,-5000,-14000,65000,430706,
4416,188,15612,780,-942,-428,-5000,-14000,65000,430708,
4428,96,15332,784,-871,-448,-5000,-14000,65000,430721,
4456,116,15516,778,-787,-439,-5000,-14000,65000,430723,
4512,160,15560,826,-874,-446,-5000,-14000,65000,430726,
4844,220,15576,882,-767,-377,-5000,-14000,65000,430738,
4792,232,15560,864,-768,-396,-5000,-14000,65000,430740,
4860,276,15476,907,-645,-428,-5000,-14000,65000,430743,
4940,300,15564,828,-177,-546,-5000,-14000,65000,430755,
4904,228,15416,845,-5,-588,-5000,-14000,65000,430757,
4724,340,15452,832,11,-603,-5000,-14000,65000,430760,
4676,312,15416,858,146,-603,-5000,-14000,65000,430762,
4324,316,15544,900,248,-544,-5000,-14000,65000,430775,
4244,308,15548,908,135,-545,-5000,-14000,64000,430777,
4300,304,15504,909,134,-506,-5000,-14000,64000,430779,
4248,524,15336,976,7,-452,-4000,-14000,64000,430792,
4244,596,15640,1023,-113,-396,-4000,-14000,64000,430794,
4168,580,15488,980,-93,-449,-4000,-14000,64000,430796,
4456,620,15680,955,-244,-414,-4000,-14000,64000,430809,
4408,588,15632,924,-190,-413,-4000,-14000,64000,430811,
4516,620,15696,880,-254,-430,-4000,-14000,64000,430813,
4456,544,15836,793,-39,-568,-4000,-14000,64000,430826,
4540,636,15640,726,-121,-582,-4000,-14000,64000,430828,
4500,604,15532,766,-10,-606,-4000,-14000,64000,430831,
4296,552,15452,723,54,-648,-4000,-14000,64000,430843,
4404,516,15540,671,-28,-637,-4000,-14000,64000,430845,
4332,640,15524,733,28,-609,-4000,-14000,64000,430848,
4336,548,15528,705,-96,-632,-4000,-14000,64000,430850,
4316,632,15520,745,-129,-565,-4000,-14000,64000,430863,
4368,612,15644,704,-98,-575,-4000,-14000,64000,430865,
4372,700,15492,745,-140,-574,-4000,-14000,64000,430867,
4424,932,15548,747,-145,-580,-3000,-14000,64000,430880,
4300,896,15584,726,-210,-529,-3000,-14000,64000,430882,
4368,812,15556,741,-161,-582,-3000,-14000,64000,430884,
4432,784,15620,603,-224,-585,-3000,-14000,64000,430897,
4464,772,15720,619,-167,-604,-3000,-14000,64000,430899,
4556,836,15708,550,-213,-641,-3000,-14000,64000,430901,
4532,796,15776,414,-112,-723,-3000,-14000,64000,430914,
4612,808,15680,350,-123,-737,-3000,-14000,64000,430916,
4648,788,15776,328,-26,-737,-3000,-14000,64000,430918,
4736,720,15680,201,63,-854,-3000,-14000,64000,430931,
4724,708,15548,139,135,-889,-3000,-14000,64000,430933,
4704,704,15532,114,126,-895,-3000,-14000,64000,430935,
4812,684,15528,23,375,-1019,-3000,-14000,64000,430948,
4772,688,15484,18,445,-1030,-3000,-14000,63000,430950,
4820,628,15592,16,477,-1064,-3000,-14000,63000,430952,
4784,864,15508,20,668,-1229,-3000,-14000,63000,430965,
4768,848,15500,-56,638,-1269,-3000,-14000,63000,430967,
4832,724,15604,6,759,-1280,-3000,-14000,63000,430969,
4636,848,15636,-24,1009,-1506,-3000,-14000,63000,430982,
4716,880,15560,41,1057,-1517,-3000,-14000,63000,430984,
4620,872,15600,-10,1079,-1564,-3000,-14000,63000,430987,
4448,932,15320,72,1316,-1753,-3000,-14000,63000,430999,
4360,816,15476,79,1265,-1764,-3000,-14000,63000,431002,
4324,812,15588,94,1310,-1780,-3000,-14000,63000,431004,
4160,820,15576,135,1123,-1914,-2000,-14000,63000,431016,
4064,880,15644,141,1140,-1967,-2000,-14000,63000,431019,
4012,956,15680,136,1090,-1982,-2000,-14000,63000,431021,
3660,892,15680,207,838,-2019,-2000,-14000,62000,431034,
3664,932,15784,196,676,-2040,-2000,-14000,62000,431036,
3572,860,15648,264,652,-2049,-2000,-14000,62000,431038,
3496,992,15788,370,25,-2004,-2000,-14000,62000,431051,
3556,1100,15692,361,-117,-2023,-2000,-14000,62000,431053,
3496,1080,15752,446,-227,-1987,-2000,-14000,62000,431055,
3488,1188,15812,522,-1011,-1898,-2000,-14000,62000,431068,
3596,1288,15624,573,-1146,-1864,-2000,-14000,62000,431070,
3664,1320,15664,630,-1241,-1831,-2000,-14000,62000,431072,
4052,1332,15596,734,-1779,-1763,-2000,-14000,61000,431085,
4100,1244,15360,785,-1808,-1712,-2000,-14000,61000,431087,
4140,1248,15388,750,-1896,-1697,-2000,-14000,61000,431089,
4576,1276,15356,911,-2004,-1605,-2000,-14000,61000,431102,
4492,1240,15540,877,-2013,-1570,-2000,-14000,61000,431104,
4592,1300,15388,948,-1973,-1590,-1000,-14000,61000,431107,
4968,1296,15328,948,-1831,-1464,-1000,-14000,61000,431119,
4876,1324,15436,1003,-1694,-1433,-1000,-15000,61000,431121,
5080,1412,15388,952,-1666,-1447,-1000,-15000,61000,431124,
5116,1388,15340,1046,-1293,-1298,-1000,-15000,61000,431136,
5276,1436,15268,988,-1263,-1279,-1000,-15000,61000,431138,
5216,1420,15204,1042,-1146,-1225,-1000,-15000,61000,431141,
5328,1476,15184,1126,-728,-1075,-1000,-15000,61000,431153,
5468,1464,15068,1097,-596,-1045,-1000,-15000,61000,431155,
2092,2228,16548,-47,213,-273,2000,-5000,48000,436240,
2136,2300,16392,73,151,-273,2000,-5000,48000,436252,
2144,2416,16328,84,210,-235,2000,-5000,48000,436254,
2092,2332,16372,86,164,-258,2000,-5000,48000,436257,
2152,2292,16184,212,232,-202,2000,-5000,48000,436269,
2060,2176,16260,201,188,-191,2000,-5000,48000,436271,
2052,2224,16168,242,231,-148,3000,-5000,48000,436274,
2076,2200,16068,190,213,-177,3000,-5000,48000,436276,
1980,2280,15812,347,206,-81,3000,-5000,48000,436289,
2024,2260,15932,276,161,-45,3000,-5000,48000,436291,
2044,2308,15952,353,241,-29,3000,-5000,48000,436293,
2220,2352,15912,328,172,25,3000,-5000,48000,436306,
2240,2308,15884,407,267,-5,3000,-5000,48000,436308,
2280,2416,15824,362,265,10,3000,-5000,48000,436310,
2212,2392,15924,394,225,20,3000,-5000,48000,436312,
2260,2280,15712,361,254,-41,3000,-5000,48000,436325,
2260,2308,15728,380,247,-10,3000,-5000,48000,436327,
2172,2332,15664,347,199,-30,3000,-5000,48000,436329,
2140,2424,15736,328,170,-29,3000,-5000,48000,436342,
2052,2448,15708,318,124,-70,3000,-5000,48000,436344,
2112,2388,15820,371,186,-51,3000,-5000,48000,436346,
2072,2428,15864,338,127,-59,3000,-5000,48000,436348,
2132,2364,15608,362,10,-83,3000,-5000,48000,436361,
2196,2276,15492,346,-6,-83,3000,-5000,48000,436363,
2224,2428,15572,341,-53,-82,3000,-5000,48000,436365,
2276,2488,15408,273,0,-127,3000,-5000,48000,436378,
2360,2516,15400,256,-39,-144,3000,-5000,48000,436380,
2304,2476,15556,256,34,-140,3000,-5000,48000,436382,
2376,2664,15588,213,10,-186,3000,-5000,48000,436385,
2256,2652,15560,197,142,-279,3000,-5000,48000,436397,
2168,2524,15504,127,48,-307,3000,-5000,48000,436400,
2180,2576,15476,163,105,-301,3000,-5000,48000,436402,
2060,2608,15276,75,-6,-313,3000,-5000,48000,436414,
1996,2720,15308,162,26,-309,3000,-5000,48000,436417,
2012,2644,15172,88,8,-323,3000,-5000,48000,436419,
2008,2712,15228,107,7,-296,3000,-5000,48000,436421,
1960,2876,15328,-45,-1,-344,3000,-5000,47000,436434,
1988,2888,15392,-51,-13,-354,3000,-5000,47000,436436,
1920,2856,15336,-105,-19,-363,3000,-5000,47000,436438,
2036,2912,15280,-110,-30,-400,3000,-5000,47000,436451,
1992,2808,15328,-164,-11,-423,3000,-5000,47000,436453,
2028,2808,15368,-151,-64,-417,3000,-5000,47000,436455,
1996,2756,15160,-180,-42,-393,3000,-5000,47000,436458,
1920,2996,15212,-274,-65,-365,3000,-5000,47000,436470,
1932,2908,15364,-307,-35,-397,3000,-5000,47000,436472,
1984,2832,15260,-318,-62,-375,3000,-5000,47000,436475,
2008,2792,15360,-409,37,-445,3000,-5000,47000,436487,
2000,2756,15320,-402,-1,-446,3000,-5000,47000,436490,
1924,2808,15220,-396,43,-476,3000,-5000,47000,436492,
1868,2760,15256,-475,-77,-409,3000,-5000,47000,436504,
1880,2696,15340,-465,-22,-366,3000,-5000,47000,436507,
1832,2680,15360,-510,-125,-392,3000,-5000,47000,436509,
2020,2652,15488,-514,-56,-357,3000,-5000,47000,436521,
2056,2752,15544,-555,-146,-372,3000,-5000,47000,436524,
2032,2648,15472,-501,-93,-417,3000,-5000,47000,436526,
1936,2692,15660,-539,-114,-420,3000,-5000,47000,436539,
1864,2736,15724,-469,-72,-412,3000,-5000,47000,436541,
1808,2744,15736,-515,-119,-425,3000,-5000,47000,436543,
1652,2796,15696,-424,-182,-400,3000,-5000,47000,436556,
1600,2760,15700,-481,-256,-408,3000,-5000,47000,436558,
1608,2836,15616,-427,-243,-386,3000,-5000,47000,436560,
1560,2760,15660,-430,-426,-321,3000,-5000,47000,436573,
1620,2912,15440,-429,-400,-277,3000,-5000,47000,436575,
1636,2904,15640,-425,-433,-281,3000,-5000,47000,436577,
1728,3024,15768,-394,-370,-246,3000,-5000,47000,436590,
1628,3032,15580,-403,-342,-269,3000,-5000,47000,436592,
1776,2964,15516,-428,-382,-253,3000,-5000,47000,436595,
1768,3048,15764,-438,-260,-178,3000,-5000,47000,436607,
1740,3028,15888,-480,-326,-146,3000,-6000,47000,436609,
1724,3092,15968,-424,-250,-143,3000,-6000,47000,436612,
1728,2912,15960,-445,-227,-6,3000,-6000,47000,436624,
1756,2916,15764,-393,-175,11,3000,-6000,47000,436626,
1896,2924,15800,-444,-196,51,3000,-6000,47000,436629,
1864,2952,16064,-381,-140,47,3000,-6000,47000,436631,
1924,2984,15856,-420,-66,159,3000,-6000,47000,436644,
1836,3024,15840,-345,1,174,3000,-6000,47000,436646,
1788,2976,15888,-404,6,190,3000,-6000,47000,436648,
1940,2988,15992,-399,129,257,3000,-6000,47000,436661,
1960,2996,15720,-433,159,264,3000,-6000,47000,436663,
1888,2996,15820,-411,166,274,3000,-6000,47000,436665,
1928,3116,15788,-407,138,273,3000,-6000,47000,436667,
1916,2980,15944,-415,215,298,3000,-6000,47000,436680,
1980,2924,15904,-374,158,322,3000,-6000,47000,436682,
1812,2956,15884,-409,171,343,3000,-6000,47000,436685,
2056,2884,16072,-338,180,378,3000,-6000,47000,436697,
2096,2880,15848,-385,152,360,3000,-6000,47000,436700,
2148,2868,15836,-348,142,375,3000,-6000,47000,436702,
2164,2972,16024,-346,207,349,3000,-6000,47000,436704,
2292,2868,16044,-333,193,327,3000,-6000,47000,436717,
2228,2904,15892,-314,243,334,3000,-6000,47000,436719,
2332,2992,15848,-332,213,332,3000,-6000,47000,436721,
2448,2980,15848,-316,283,272,3000,-6000,47000,436734,
2436,2972,15752,-285,325,277,3000,-6000,47000,436736,
2316,3000,15788,-327,286,258,3000,-5000,47000,436738,
2360,2976,15784,-293,360,252,3000,-5000,47000,436741,
2364,3012,15676,-335,339,219,3000,-5000,47000,436753,
2436,3128,15592,-337,368,198,3000,-5000,47000,436756,
2488,3040,15720,-345,362,179,3000,-5000,47000,436758,
2524,3092,15668,-376,387,122,3000,-5000,47000,436770,
2472,2964,15616,-405,329,101,3000,-5000,47000,436773,
2504,3004,15616,-361,386,74,3000,-5000,47000,436775,
2392,3032,15700,-406,328,79,3000,-5000,47000,436777,
2496,3028,15632,-359,434,12,3000,-5000,47000,436790,
2496,3016,15716,-404,380,8,3000,-5000,47000,436792,
2472,3064,15676,-367,459,-18,3000,-5000,47000,436794,
2272,3044,15676,-406,427,-101,3000,-5000,47000,436807,
2260,3008,15748,-347,486,-93,3000,-5000,47000,436809,
2240,3064,15720,-406,440,-101,3000,-5000,47000,436812,
2244,3028,15824,-351,472,-102,3000,-5000,47000,436814,
2216,3060,15832,-418,483,-47,3000,-5000,47000,436826,
2248,3060,15708,-374,509,-55,3000,-5000,47000,436829,
2124,3096,15772,-433,514,-91,3000,-5000,47000,436831,
2060,3104,15684,-360,580,-122,3000,-5000,47000,436843,
1980,3176,15588,-401,515,-125,3000,-5000,47000,436846,
1948,3068,15660,-360,568,-142,3000,-5000,47000,436848,
1932,3208,15728,-440,536,-58,3000,-5000,47000,436861,
2004,3092,15548,-455,550,-37,3000,-5000,47000,436863,
2084,2996,15536,-443,537,-12,3000,-5000,47000,436865,
2072,2996,15640,-461,579,-36,3000,-5000,47000,436867,
2156,3008,15624,-472,715,-35,3000,-5000,47000,436880,
2260,3116,15644,-499,687,-57,3000,-5000,47000,436882,
2164,3020,15544,-491,709,-71,3000,-5000,47000,436884,
2268,3060,15344,-586,689,-63,3000,-5000,47000,436897,
2180,3100,15504,-580,737,-60,3000,-5000,47000,436899,
2300,3076,15400,-647,671,-57,3000,-5000,47000,436901,
2500,3100,15248,-737,665,-119,3000,-5000,47000,436914,
2536,3024,15188,-767,704,-186,3000,-5000,47000,436916,
2672,3156,15036,-738,691,-186,3000,-5000,47000,436918,
2880,3208,14796,-941,712,-307,3000,-5000,47000,436931,
3032,3288,14540,-996,695,-354,3000,-5000,47000,436933,
3064,3328,14704,-1040,762,-393,3000,-5000,47000,436935,
3392,3520,14356,-1327,896,-761,3000,-5000,47000,436948,
3480,3672,14172,-1420,988,-830,3000,-5000,47000,436950,
3392,3560,14248,-1514,966,-887,3000,-5000,47000,436952,
3744,3892,13912,-2217,1629,-1308,3000,-5000,47000,436965,
3832,3844,14044,-2391,1699,-1374,3000,-5000,47000,436967,
3788,3772,14100,-2504,1962,-1422,3000,-5000,47000,436969,
3728,3756,14808,-3207,2912,-2190,3000,-4000,47000,436982,
3676,3672,15088,-3364,3103,-2368,3000,-4000,47000,436984,
3376,3588,15140,-3472,3302,-2542,3000,-4000,46000,436987,
2144,3088,15988,-4016,3902,-3145,2000,-4000,46000,436999,
1792,3048,15820,-4079,3984,-3207,2000,-4000,46000,437001,
1608,2780,16172,-4167,4049,-3266,2000,-4000,46000,437004,
496,2316,16548,-4448,4345,-3345,2000,-3000,46000,437016,
164,2172,16732,-4536,4332,-3355,2000,-3000,46000,437019,
60,2156,17016,-4544,4394,-3365,2000,-3000,46000,437021,
-1364,1692,17244,-4706,4381,-3432,1000,-3000,45000,437033,
-1748,1508,17436,-4718,4345,-3442,1000,-3000,45000,437036,
-2080,1412,17340,-4775,4252,-3386,1000,-3000,45000,437038,
-3520,328,17960,-4860,3817,-2731,1000,-2000,45000,437051,
-3716,80,18020,-4886,3737,-2567,1000,-2000,45000,437053,
-3892,-68,18068,-4899,3700,-2350,1000,-2000,45000,437055,
-4804,-1204,18564,-4587,4039,-1082,0,-1000,45000,437068,
-4936,-1304,18592,-4513,4150,-814,0,-1000,45000,437070,
-4952,-1412,18616,-4430,4376,-547,0,-1000,45000,437072,
-6712,-1980,19128,-3965,5376,1023,0,-1000,45000,437085,
-7152,-1988,19264,-3838,5499,1294,0,-1000,45000,437087,
-7596,-2100,19260,-3786,5556,1588,0,0,45000,437090,
-7932,-2132,19160,-3631,5598,1883,0,0,45000,437092,
-9780,-2628,19156,-2971,4992,3893,0,0,45000,437104,
-9884,-2716,18716,-2790,4833,4333,0,0,45000,437107,
-9980,-2680,18660,-2745,4669,4790,0,0,45000,437109,
-10220,-2916,18216,-1890,3626,7175,0,0,46000,437122,
-10420,-2852,18308,-1845,3472,7655,0,0,46000,437124,
-10552,-2844,18280,-1709,3170,8115,0,0,46000,437126,
-10388,-2720,17980,-1727,3007,8563,0,0,47000,437129,
-9116,-2328,18204,-1400,3133,10515,-1000,1000,48000,437141,
-9140,-2444,18204,-1285,3096,10788,-1000,1000,48000,437143,
-8880,-2468,17908,-1111,3168,11108,-1000,1000,48000,437146,
-8600,-2360,17644,-1291,2889,12789,-1000,2000,49000,437158,
-6080,-3020,20580,-1060,4241,12622,-1000,2000,49000,437161,
-8860,-3064,18464,-353,5612,12925,-1000,2000,50000,437163,
-9568,-2440,18368,-677,913,15410,-1000,2000,51000,437176,
-7524,-1668,16580,-979,1283,15728,-1000,2000,51000,437178,
-7600,-1840,17024,-1246,1379,16010,-1000,2000,52000,437180,
-6448,-2088,17020,-667,1063,16981,-1000,2000,53000,437193,
-5452,-2224,17892,-646,1091,17268,-1000,2000,54000,437195,
-5356,-2128,17896,-483,1368,17433,-1000,2000,54000,437197,
-4620,-1680,17364,-760,1367,18695,-1000,3000,56000,437210,
-4504,-1732,17272,-707,1517,18875,-1000,3000,56000,437212,
-4468,-1676,17256,-781,1547,19136,-1000,3000,56000,437214,
-3444,-1580,17124,-994,2060,20181,-1000,3000,58000,437227,
-3320,-1524,17116,-1088,2138,20388,-1000,3000,59000,437229,
-3144,-1476,17136,-1058,2240,20564,-1000,3000,59000,437232,
-1840,-1824,17292,-1308,2472,21535,-1000,4000,61000,437244,
-1612,-1928,17160,-1393,2450,21700,-1000,4000,62000,437246,
-1388,-2032,17340,-1373,2418,21914,-1000,4000,62000,437249,
296,-2428,17448,-1235,2406,22495,-1000,4000,64000,437261,
440,-2380,17620,-1170,2380,22624,-1000,4000,64000,437264,
780,-2504,17632,-1140,2341,22607,-1000,4000,65000,437266,
2428,-2392,17744,-1214,2626,22862,-1000,4000,67000,437278,
2752,-2376,17932,-1155,2827,22717,-1000,4000,67000,437281,
2932,-2332,17652,-1201,2843,22738,-1000,4000,68000,437283,
3456,-2280,17272,-909,3241,22079,-1000,5000,70000,437296,
3348,-2268,17384,-902,3318,22042,-1000,5000,70000,437298,
3040,-2088,17180,-821,3339,21895,-1000,5000,71000,437300,
3148,-1864,16180,-615,3201,21640,-1000,5000,73000,437313,
3200,-1704,16040,-494,3196,21552,-1000,5000,73000,437315,
3072,-1728,15744,-480,3116,21487,-1000,5000,74000,437317,
3080,-1256,14976,-163,2571,21057,0,5000,76000,437330,
3132,-1124,14720,-223,2377,21024,0,5000,76000,437332,
3092,-1116,14728,-101,2130,20923,0,5000,76000,437334,
3152,-1004,14736,-40,1945,20776,0,5000,77000,437337,
3760,-544,14276,148,754,19870,0,5000,79000,437349,
3648,-372,14104,191,506,19787,0,5000,79000,437351,
3808,-372,14096,180,325,19518,0,5000,79000,437354,
4412,-192,14232,231,-1088,18653,0,5000,81000,437366,
4548,-264,14236,203,-1379,18429,0,5000,81000,437369,
4676,-348,14144,228,-1620,18255,0,5000,82000,437371,
4920,-380,14180,224,-1776,18014,0,5000,82000,437373,
5916,-528,14132,356,-2376,16988,0,4000,84000,437386,
6120,-424,14360,394,-2428,16869,0,4000,84000,437388,
6344,-392,14368,401,-2409,16667,0,4000,84000,437390,
7696,-68,14348,206,-2141,15824,0,4000,86000,437403,
8020,0,14428,133,-1932,15583,0,4000,86000,437405,
8064,-20,14492,78,-1823,15401,0,4000,86000,437408,
8236,96,14384,39,-1584,15100,0,4000,87000,437410,
9024,232,14644,20,-860,13723,0,3000,88000,437422,
8780,404,13820,-333,-491,13409,0,3000,88000,437425,
8684,296,13676,-434,-365,13166,0,3000,88000,437427,
8472,296,14220,-416,-240,12786,0,3000,89000,437429,
7748,760,13940,-506,-132,11466,0,3000,90000,437442,
7772,812,13652,-614,-182,11253,0,3000,90000,437444,
7608,908,13668,-578,-164,11044,0,3000,90000,437447,
7704,660,13648,-664,-240,10789,0,3000,90000,437449,
7856,872,13764,-646,-801,9487,0,3000,91000,437461,
7860,944,13684,-687,-970,9291,0,3000,91000,437464,
8036,940,13632,-611,-1041,9011,0,2000,92000,437466,
8044,1036,13800,-532,-1382,7367,0,2000,92000,437479,
8064,1064,14004,-481,-1437,7095,0,2000,92000,437481,
7960,1168,13968,-486,-1542,6833,0,2000,93000,437483,
7948,1264,13944,-420,-1533,6616,0,2000,93000,437485,
8184,1492,13964,-429,-1595,5542,0,2000,93000,437498,
8240,1568,13896,-397,-1557,5333,0,2000,93000,437500,
8356,1744,13976,-475,-1510,5174,0,1000,93000,437503,
8808,1880,14056,-494,-862,4077,0,1000,94000,437515,
8728,1780,14056,-449,-681,3902,0,1000,94000,437517,
8728,1968,14048,-511,-529,3661,0,1000,94000,437520,
8652,2028,14268,-496,-372,3483,0,1000,94000,437522,
8204,2164,14272,-610,500,2468,0,1000,94000,437534,
8180,2172,14320,-648,579,2282,0,1000,94000,437537,
8152,2132,14400,-635,739,2140,0,1000,94000,437539,
7996,2148,14484,-700,755,1975,0,1000,94000,437541,
7284,2100,14916,-552,1031,974,0,1000,94000,437554,
7084,2024,14680,-570,940,769,0,1000,94000,437556,
7020,2020,14748,-505,935,641,0,1000,94000,437558,
6552,2104,14748,-342,450,-158,0,1000,94000,437571,
6608,2080,14756,-292,369,-299,0,1000,94000,437573,
6596,2020,14808,-257,224,-437,0,1000,94000,437575,
6676,2100,14692,-182,195,-616,0,1000,94000,437578,
7168,1976,14576,-9,-274,-1514,0,0,94000,437590,
7188,2060,14404,66,-225,-1685,0,0,94000,437592,
7312,2016,14452,60,-322,-1930,0,0,94000,437595,
7320,2128,14428,138,-258,-2106,0,0,94000,437597,
7512,1936,14820,261,-409,-3140,0,0,94000,437610,
7612,2004,14644,335,-382,-3329,0,0,94000,437612,
7592,1780,14744,333,-469,-3488,0,0,94000,437614,
7660,1664,14848,402,-432,-3656,0,0,94000,437616,
8612,976,15044,525,-629,-4816,0,0,93000,437629,
8944,796,15148,623,-591,-5035,0,0,93000,437631,
9036,624,15192,633,-634,-5308,0,0,93000,437633,
9164,576,15268,840,-675,-5560,0,0,93000,437636,
9956,184,15352,1271,-1207,-7132,0,0,92000,437648,
10016,152,15216,1396,-1376,-7454,0,0,92000,437651,
10312,-44,15304,1523,-1469,-7781,0,0,92000,437653,
10408,-68,15132,1615,-1553,-8120,0,0,92000,437655,
11248,-344,15512,2293,-2207,-10170,1000,0,91000,437667,
11392,-504,15700,2409,-2203,-10506,1000,0,91000,437670,
11328,-472,15632,2516,-2355,-10961,1000,0,90000,437672,
10940,-196,15884,2936,-2660,-13188,1000,-1000,89000,437684,
10844,-56,16032,3046,-2785,-13640,1000,-1000,89000,437687,
10700,128,16012,3071,-2843,-13972,1000,-1000,89000,437689,
10272,696,16136,2862,-3498,-16041,1000,-1000,87000,437702,
10324,652,16224,2842,-3512,-16390,1000,-2000,87000,437704,
10196,612,16308,2792,-3714,-16804,1000,-2000,87000,437706,
10140,444,16020,2568,-4009,-18543,2000,-2000,85000,437719,
10096,364,15956,2521,-4107,-18884,2000,-2000,84000,437721,
10068,544,15796,2512,-3978,-19065,2000,-2000,84000,437724,
9684,584,15000,2441,-3673,-20522,2000,-3000,82000,437736,
9608,740,14932,2397,-3543,-20710,2000,-3000,82000,437738,
9488,824,14692,2369,-3474,-21030,2000,-3000,81000,437741,
8296,1520,14052,2167,-2914,-21979,3000,-3000,79000,437753,
8024,1592,13964,2143,-2892,-22235,3000,-3000,79000,437755,
7828,1664,13736,2097,-2790,-22286,3000,-3000,78000,437758,
6764,1836,13524,1717,-2378,-23256,3000,-4000,76000,437770,
6468,2016,13400,1690,-2136,-23252,3000,-4000,76000,437772,
6248,2040,13228,1575,-2072,-23487,3000,-4000,75000,437775,
4332,2508,12828,1242,-1541,-23839,4000,-4000,73000,437787,
4012,2596,12872,1082,-1473,-23916,4000,-4000,73000,437789,
3692,2652,12856,1015,-1383,-23916,4000,-4000,72000,437792,
1632,3004,13128,281,-1051,-23981,4000,-4000,70000,437804,
1128,2924,13316,189,-1057,-23987,4000,-4000,70000,437806,
756,2968,13320,65,-1030,-23867,4000,-4000,69000,437809,
-740,3292,13292,-505,-1498,-23369,4000,-4000,67000,437821,
-880,3264,12960,-669,-1658,-23274,4000,-4000,67000,437823,
-900,3328,12920,-747,-1772,-23182,4000,-4000,66000,437826,
-1964,4048,12712,-1613,-2888,-22700,4000,-4000,64000,437838,
-1752,3872,12744,-1731,-3068,-22568,4000,-4000,63000,437840,
-1788,3780,12864,-1879,-3273,-22501,4000,-4000,63000,437843,
-1080,3196,13076,-2632,-3539,-21929,4000,-4000,61000,437855,
-1084,2984,13104,-2825,-3543,-21897,4000,-4000,61000,437858,
-1056,3016,12864,-2923,-3354,-21710,4000,-4000,60000,437860,
-2168,2968,13584,-3635,-2414,-21165,4000,-4000,58000,437873,
-2456,2980,14004,-3672,-1935,-20971,4000,-4000,58000,437875,
-3160,2968,14628,-3853,-1678,-20887,4000,-4000,57000,437877,
-5008,2420,15888,-4389,-66,-19862,4000,-3000,55000,437890,
-5596,2168,16032,-4517,-92,-19719,4000,-3000,55000,437892,
-5984,2116,15956,-4504,-12,-19460,4000,-3000,55000,437894,
-6412,1796,16096,-4644,-1188,-18105,3000,-3000,53000,437907,
-6824,1376,18328,-4163,-180,-18183,3000,-3000,53000,437909,
-7592,1616,15812,-4205,-440,-17933,3000,-3000,52000,437911,
-6596,1088,16920,-4102,-3009,-15912,3000,-3000,51000,437924,
-6048,772,17572,-3880,-3211,-15844,3000,-3000,51000,437926,
-5852,1120,16356,-3853,-2794,-15446,3000,-3000,50000,437929,
-5340,912,17092,-3529,-3515,-14067,3000,-3000,49000,437941,
-5520,700,17140,-3508,-3458,-13728,3000,-3000,49000,437944,
-5424,824,17148,-3507,-3532,-13504,3000,-3000,48000,437946,
-5280,404,17840,-3425,-2869,-11866,2000,-3000,47000,437958,
-5196,456,17656,-3470,-2780,-11566,2000,-3000,47000,437961,
-5224,280,18016,-3428,-2512,-11213,2000,-3000,47000,437963,
-4512,-184,18260,-3367,-1113,-9393,2000,-3000,46000,437976,
-4496,-424,18276,-3214,-780,-9078,2000,-3000,46000,437978,
-4388,-320,18440,-3208,-497,-8792,2000,-3000,46000,437980,
-4220,-556,18628,-2955,1096,-7350,2000,-3000,45000,437993,
-4276,-600,18792,-2966,1374,-7118,2000,-3000,45000,437995,
-4200,-580,18820,-2899,1613,-6861,2000,-3000,45000,437997,
-4224,-984,18968,-2701,2626,-5581,1000,-3000,44000,438010,
-4416,-944,18980,-2591,2698,-5382,1000,-3000,44000,438012,
-4392,-1004,18828,-2496,2749,-5171,1000,-2000,44000,438014,
-4504,-1008,18908,-2032,2656,-4013,1000,-2000,44000,438027,
-4568,-996,18700,-1908,2659,-3815,1000,-2000,44000,438029,
-4600,-996,18600,-1870,2508,-3650,1000,-2000,43000,438032,
-4616,-780,18232,-1324,1740,-2672,1000,-2000,43000,438044,
-4564,-668,18296,-1329,1504,-2503,1000,-2000,43000,438046,
-4424,-688,18084,-1216,1401,-2352,1000,-2000,43000,438049,
-3588,-588,17976,-1070,413,-1624,1000,-1000,43000,438061,
-3424,-500,17844,-983,331,-1515,1000,-1000,43000,438064,
-3352,-508,17872,-983,224,-1437,1000,-1000,43000,438066,
-2524,-592,17952,-817,-106,-1017,0,-1000,43000,438078,
-2264,-564,17836,-802,-122,-914,0,-1000,43000,438081,
-2208,-448,17836,-813,-219,-859,0,-1000,43000,438083,
-2072,-496,17864,-732,-163,-791,0,-1000,43000,438085,
-1404,-664,17976,-663,-325,-425,0,-1000,43000,438098,
-1348,-628,17944,-589,-274,-341,0,-1000,43000,438100,
-1168,-648,17928,-614,-348,-295,0,-1000,43000,438102,
-248,-812,17596,-340,-246,-44,0,-1000,43000,438115,
-128,-788,17520,-318,-306,6,0,-1000,43000,438117,
-176,-696,17504,-226,-246,44,0,-1000,43000,438119,
24,-692,17432,-234,-240,32,0,-1000,43000,438121,
328,-384,17116,-9,-7,306,0,-1000,43000,438134,
372,-172,17024,-59,-22,312,0,-1000,43000,438136,
428,-256,17084,-16,38,326,0,-1000,43000,438139,
484,-136,16980,41,99,356,0,-1000,43000,438141,
628,-36,16780,-8,383,329,0,-1000,43000,438153,
624,76,16612,-15,395,313,0,-1000,43000,438156,
620,40,16720,-8,489,296,0,-1000,43000,438158,
744,60,16680,-20,451,268,0,-1000,43000,438160,
672,132,16772,-51,626,220,0,-1000,43000,438173,
612,176,16728,14,789,213,0,-1000,43000,438175,
572,260,16680,-50,752,170,0,-1000,43000,438177,
444,336,16700,5,816,189,0,-1000,43000,438180,
244,260,16748,-67,781,121,0,-1000,43000,438192,
88,276,16664,-96,718,120,0,-1000,43000,438195,
92,328,16692,-47,740,131,0,-1000,43000,438197,
24,344,16788,-87,678,107,0,-1000,43000,438199,
-144,452,16636,-34,595,51,0,-1000,43000,438212,
-296,548,16552,-66,560,28,0,-1000,43000,438214,
-476,596,16492,-68,446,19,0,-1000,43000,438216,
-396,728,16696,-81,476,3,0,-1000,43000,438219,
-264,720,16456,-153,175,88,0,-1000,43000,438231,
-272,720,16408,-198,105,116,0,-1000,43000,438234,
-216,712,16496,-145,137,121,0,-1000,43000,438236,
-184,744,16340,-178,74,145,0,-1000,43000,438238,
-344,1008,16160,-127,164,263,0,-1000,43000,438251,
-256,1196,16268,-181,138,313,0,-1000,43000,438253,
-304,1200,16156,-131,195,328,0,-1000,43000,438255,
-324,1192,16104,-199,240,410,0,-1000,43000,438257,
-140,1288,16048,-234,420,723,0,-1000,43000,438270,
-16,1312,16012,-254,427,751,0,-1000,43000,438272,
-88,1296,15804,-250,474,796,0,-1000,43000,438275,
-72,1328,15812,-275,523,817,0,-1000,43000,438277,
-68,1512,16060,-285,882,1056,0,-1000,43000,438289,
-52,1568,16032,-344,848,1125,0,-1000,43000,438292,
16,1508,15868,-302,973,1149,0,-1000,43000,438294,
-100,1612,15916,-387,989,1174,0,-1000,43000,438296,
92,1544,15840,-450,1162,1299,0,-1000,43000,438309,
-52,1644,15776,-404,1218,1331,0,-1000,43000,438311,
44,1588,15752,-456,1224,1325,0,0,43000,438313,
16,1500,15844,-411,1164,1366,0,0,43000,438316,
20,1564,15872,-455,1172,1446,0,0,44000,438328,
12,1524,15900,-380,1152,1464,0,0,44000,438331,
68,1608,16012,-401,1161,1461,0,0,44000,438333,
108,1592,16060,-372,1116,1490,0,0,44000,438335,
88,1628,16008,-251,966,1409,0,0,44000,438348,
48,1700,15852,-261,850,1434,0,0,44000,438350,
140,1572,15924,-195,855,1434,0,0,44000,438352,
136,1720,15616,-238,712,1454,0,0,44000,438355,
324,1692,15320,-128,519,1521,0,0,44000,438367,
320,1704,15404,-86,439,1551,0,0,44000,438370,
348,1844,15372,-100,479,1551,0,0,44000,438372,
524,1860,15468,-99,402,1558,0,0,44000,438374,
808,1760,15556,-76,429,1523,0,0,44000,438387,
800,1884,15388,-50,408,1484,0,0,44000,438389,
892,1856,15504,-6,442,1488,0,0,44000,438391,
844,1820,15368,-43,408,1437,0,0,44000,438393,
804,1840,15472,16,496,1451,0,0,44000,438396,
724,1988,15260,-51,328,1359,0,0,44000,438408,
644,1992,15244,4,380,1369,0,0,44000,438410,
652,2076,15148,-37,298,1361,0,0,44000,438413,
660,2036,15224,-43,305,1342,0,0,45000,438415,
792,2160,15772,-79,306,1242,0,0,45000,438427,
640,2040,15764,-90,249,1209,0,0,45000,438430,
700,2112,15732,-52,260,1173,0,0,45000,438432,
540,1932,15900,-70,221,1117,0,0,45000,438434,
460,1960,15724,-22,217,1083,0,0,45000,438437,
372,1940,15572,96,-15,1060,0,0,45000,438449,
188,2152,15668,58,-111,1089,0,0,45000,438451,
132,2040,15564,99,-85,1035,0,0,45000,438454,
264,2084,15472,75,-193,1079,0,0,45000,438456,
444,2308,15228,144,-367,1077,0,0,45000,438469,
476,2216,15336,152,-427,1096,0,0,45000,438471,
468,2272,15360,163,-396,1094,0,0,45000,438473,
572,2228,15176,147,-474,1095,1000,0,45000,438475,
536,2492,15212,148,-351,1082,1000,0,45000,438488,
568,2556,15128,86,-373,1098,1000,0,45000,438490,
708,2556,15288,119,-283,1053,1000,0,45000,438492,
576,2604,15140,46,-296,1052,1000,0,45000,438495,
616,2780,15424,-66,-97,976,1000,0,45000,438507,
604,2708,15416,-125,-172,957,1000,0,45000,438510,
500,2764,15304,-111,-41,957,1000,0,45000,438512,
732,2736,15252,-195,-134,946,1000,0,45000,438514,
632,2760,15328,-326,2,788,1000,0,45000,438527,
568,2836,15444,-415,-39,791,1000,0,45000,438529,
424,2768,15584,-423,33,766,1000,0,45000,438531,
500,2844,15444,-511,-11,725,1000,0,45000,438534,
496,2716,15648,-624,85,574,1000,0,45000,438546,
424,2664,15560,-640,-3,554,1000,0,46000,438548,
488,2708,15588,-651,56,528,1000,0,46000,438551,
356,2728,15424,-704,-21,524,1000,0,46000,438553,
388,2820,15588,-795,10,451,1000,0,46000,438565,
524,2880,15648,-813,-21,429,1000,0,46000,438568,
468,2816,15740,-860,13,409,1000,0,46000,438570,
512,2808,15668,-876,-49,393,1000,0,46000,438572,
644,2624,15812,-911,-86,309,1000,0,46000,438585,
624,2592,15740,-891,-16,284,1000,0,46000,438587,
548,2556,15912,-928,-80,290,1000,0,46000,438589,
544,2644,15680,-886,5,276,1000,0,46000,438592,
532,2656,15668,-913,-7,245,1000,0,46000,438604,
428,2756,15712,-903,48,232,1000,0,46000,438607,
504,2692,15880,-957,-25,233,1000,0,46000,438609,
496,2764,15712,-894,70,211,1000,0,46000,438611,
840,2536,15780,-966,110,259,1000,0,46000,438624,
848,2556,15816,-928,220,265,1000,0,46000,438626,
832,2524,15756,-967,189,216,0,0,46000,438628,
840,2548,15648,-884,246,235,0,0,46000,438631,
692,2512,15808,-910,353,142,0,0,46000,438643,
592,2592,15632,-867,363,129,0,0,46000,438645,
700,2564,15952,-910,413,134,0,0,46000,438648,
652,2492,15792,-924,347,126,0,0,46000,438650,
