Ax,Ay,Az,Gx,Gy,Gz,Roll,Pitch,Yaw,Timestamp,Target
2288,-5104,15520,-538,-116,-111,-25000,-7000,0,920557,
2400,-5140,15432,-462,-93,-127,-25000,-7000,0,920559,
2528,-5156,15548,-467,-45,-132,-25000,-7000,0,920572,
2416,-5200,15556,-455,-73,-122,-25000,-7000,0,920574,
2392,-5316,15596,-467,-61,-112,-25000,-7000,0,920576,
2244,-5236,15612,-410,-2,-119,-25000,-7000,0,920579,
2472,-5228,15752,-400,86,-51,-25000,-7000,0,920591,
2548,-5128,15668,-511,70,-108,-25000,-7000,0,920593,
2520,-5232,15640,-438,119,-50,-25000,-7000,0,920596,
2344,-5160,15624,-531,45,-124,-25000,-7000,0,920608,
2128,-5120,15792,-422,52,-75,-25000,-7000,0,920610,
2224,-5228,15628,-533,-35,-152,-25000,-7000,0,920612,
2316,-5132,15612,-412,67,-115,-25000,-7000,0,920615,
2348,-5144,15500,-561,-24,-180,-25000,-7000,0,920627,
2336,-5164,15460,-418,52,-151,-25000,-7000,0,920630,
2228,-5200,15676,-531,-36,-198,-25000,-7000,0,920632,
2264,-5184,15676,-435,22,-191,-25000,-7000,0,920644,
2388,-5188,15752,-545,-21,-142,-25000,-7000,0,920646,
2400,-5164,15464,-398,40,-187,-25000,-7000,0,920649,
2380,-5184,15644,-556,62,-98,-25000,-7000,359000,920656,
2316,-5164,15528,-457,132,-115,-25000,-7000,359000,920658,
2440,-5012,15704,-515,93,-146,-25000,-7000,359000,920671,
2460,-5060,15520,-491,76,-162,-25000,-7000,359000,920673,
2340,-5012,15484,-486,90,-118,-25000,-7000,359000,920675,
2416,-5228,15648,-492,39,-136,-25000,-7000,359000,920688,
2272,-5228,15532,-375,148,-93,-25000,-7000,359000,920690,
2232,-5280,15556,-466,58,-118,-25000,-7000,359000,920692,
2344,-5144,15488,-306,93,-113,-25000,-7000,359000,920705,
2396,-5284,15544,-446,67,-102,-25000,-7000,359000,920707,
2404,-5328,15424,-293,89,-79,-25000,-7000,359000,920710,
2176,-5356,15556,-381,91,-108,-25000,-7000,359000,920722,
2112,-5284,15500,-269,163,-90,-25000,-7000,359000,920724,
2168,-5224,15664,-374,113,-117,-25000,-7000,359000,920727,
2344,-5248,15524,-294,128,-155,-25000,-7000,359000,920739,
2348,-5232,15628,-371,145,-107,-25000,-7000,359000,920741,
2272,-5200,15616,-273,150,-162,-25000,-7000,359000,920743,
2024,-5260,15560,-315,145,-176,-25000,-7000,359000,920756,
2152,-5208,15656,-350,94,-239,-25000,-7000,359000,920758,
2252,-5216,15496,-352,120,-179,-25000,-7000,359000,920760,
2400,-5240,15580,-421,149,-265,-25000,-7000,359000,920773,
2364,-5288,15692,-328,176,-229,-25000,-7000,359000,920775,
2300,-5180,15672,-396,195,-268,-25000,-7000,359000,920777,
2160,-5084,15664,-326,211,-235,-25000,-7000,359000,920790,
2404,-5160,15660,-454,166,-270,-25000,-7000,359000,920792,
2388,-5144,15684,-296,248,-242,-25000,-7000,359000,920795,
2568,-5060,15672,-479,195,-254,-25000,-7000,359000,920807,
2424,-5080,15752,-415,196,-264,-25000,-7000,359000,920810,
2476,-5028,15672,-475,176,-232,-25000,-7000,359000,920812,
2416,-5124,15708,-522,160,-245,-25000,-7000,359000,920824,
2476,-5036,15720,-428,257,-193,-25000,-7000,359000,920827,
2424,-5164,15804,-518,210,-201,-25000,-7000,359000,920829,
2584,-5044,15708,-380,242,-164,-25000,-7000,359000,920841,
2500,-5096,15636,-526,186,-166,-25000,-7000,359000,920844,
2552,-5044,15868,-378,224,-126,-25000,-7000,359000,920846,
2392,-5172,15700,-516,204,-76,-25000,-7000,359000,920858,
2648,-4980,15692,-396,225,-122,-25000,-7000,359000,920861,
2348,-4988,15696,-533,170,-122,-25000,-7000,359000,920863,
2276,-5124,15644,-462,44,-207,-25000,-7000,359000,920875,
2244,-5088,15736,-521,23,-153,-25000,-7000,359000,920878,
2336,-5112,15684,-437,41,-187,-25000,-7000,359000,920880,
2552,-4932,15800,-464,34,-211,-25000,-7000,359000,920892,
2284,-4988,15716,-558,3,-206,-25000,-7000,359000,920895,
2352,-5104,15612,-455,49,-203,-25000,-7000,359000,920897,
2244,-5124,15584,-603,-3,-196,-25000,-7000,359000,920909,
2280,-5064,15616,-565,-36,-293,-25000,-7000,359000,920912,
2428,-5084,15636,-599,-5,-207,-25000,-7000,359000,920914,
2596,-5024,15548,-642,-80,-252,-25000,-7000,359000,920926,
2468,-5040,15708,-630,1,-220,-25000,-7000,359000,920929,
2516,-5088,15704,-650,-32,-280,-25000,-7000,359000,920931,
2344,-5088,15780,-597,26,-207,-25000,-7000,359000,920943,
2324,-5040,15632,-683,-40,-261,-25000,-7000,359000,920946,
2404,-5128,15760,-612,26,-207,-25000,-7000,359000,920948,
2520,-5016,15732,-709,-25,-240,-25000,-7000,359000,920960,
2608,-5096,15600,-601,31,-194,-25000,-7000,359000,920963,
2444,-5092,15780,-720,-21,-248,-25000,-7000,359000,920965,
2408,-5076,15700,-586,94,-191,-25000,-7000,359000,920977,
2452,-5132,15796,-551,-37,-228,-25000,-7000,358000,921216,
2592,-5060,15576,-422,25,-206,-25000,-7000,358000,921218,
2500,-5112,15648,-548,-48,-256,-25000,-7000,358000,921220,
2436,-5032,15508,-461,-7,-249,-25000,-7000,358000,921233,
2324,-5052,15664,-589,-57,-262,-25000,-7000,358000,921235,
2372,-5100,15540,-470,7,-261,-25000,-7000,358000,921237,
2664,-5156,15556,-566,-2,-225,-25000,-7000,358000,921250,
2696,-5116,15528,-500,38,-293,-25000,-7000,358000,921252,
2572,-5148,15616,-597,13,-259,-25000,-7000,358000,921254,
2496,-5240,15488,-542,54,-257,-25000,-7000,358000,921267,
2400,-5148,15444,-507,76,-223,-25000,-7000,358000,921269,
2472,-5192,15536,-514,54,-248,-25000,-7000,358000,921271,
2640,-5156,15560,-417,77,-183,-25000,-7000,358000,921284,
2412,-5268,15576,-470,68,-245,-25000,-7000,358000,921286,
2524,-5232,15584,-459,75,-148,-25000,-7000,358000,921288,
2488,-5260,15316,-436,43,-173,-25000,-7000,358000,921301,
2392,-5208,15516,-310,86,-150,-25000,-7000,358000,921303,
2508,-5176,15528,-441,39,-171,-25000,-7000,358000,921305,
2500,-5196,15552,-275,137,-115,-25000,-7000,358000,921318,
2500,-5144,15520,-412,79,-88,-25000,-7000,358000,921320,
2424,-5252,15496,-262,179,-65,-25000,-7000,358000,921322,
2424,-5240,15440,-392,146,-43,-25000,-7000,358000,921335,
2460,-5176,15620,-252,206,-62,-25000,-7000,358000,921337,
2468,-5120,15632,-351,147,-81,-25000,-7000,358000,921339,
2364,-5108,15616,-319,176,-104,-25000,-7000,358000,921352,
2408,-5096,15580,-347,164,-44,-25000,-7000,358000,921354,
2300,-5132,15632,-365,166,-93,-25000,-7000,358000,921357,
2376,-5088,15596,-349,218,-81,-25000,-7000,358000,921369,
2372,-5092,15664,-454,160,-98,-25000,-7000,358000,921371,
2420,-5048,15660,-373,161,-104,-25000,-7000,358000,921374,
2292,-5048,15692,-486,63,-138,-25000,-7000,358000,921386,
2280,-5096,15484,-338,99,-136,-25000,-7000,358000,921388,
2392,-5128,15668,-483,34,-146,-25000,-7000,358000,921391,
2484,-5088,15796,-425,103,-159,-25000,-7000,358000,921403,
2280,-5016,15584,-461,98,-149,-25000,-7000,358000,921406,
2304,-4960,15516,-383,103,-182,-25000,-7000,358000,921408,
2228,-5044,15580,-419,124,-118,-25000,-7000,358000,921420,
2212,-4984,15760,-462,51,-162,-25000,-7000,358000,921423,
2340,-5056,15720,-422,79,-115,-25000,-7000,358000,921425,
2404,-5060,15608,-483,66,-162,-25000,-7000,358000,921437,
2232,-5180,15516,-343,131,-114,-25000,-7000,358000,921440,
2328,-5148,15612,-473,76,-194,-25000,-7000,358000,921442,
2360,-5128,15520,-286,299,-166,-25000,-7000,358000,921454,
2544,-5036,15712,-397,256,-168,-25000,-7000,358000,921457,
2388,-5140,15688,-263,357,-144,-25000,-7000,358000,921459,
2524,-5136,15804,-334,477,-95,-25000,-7000,358000,921471,
2348,-5072,15756,-281,527,-123,-25000,-7000,358000,921474,
2396,-5028,15824,-318,515,-104,-25000,-7000,358000,921476,
2088,-4992,15768,-301,441,-132,-25000,-7000,358000,921488,
2164,-4996,15748,-258,448,-101,-25000,-7000,358000,921491,
2156,-5096,15864,-297,402,-138,-25000,-7000,358000,921493,
2272,-4848,15792,-227,367,-131,-25000,-7000,358000,921506,
2196,-4836,16028,-378,298,-184,-25000,-7000,358000,921508,
2400,-4752,15812,-288,348,-166,-25000,-7000,358000,921510,
2284,-5008,15880,-429,234,-225,-25000,-7000,358000,921523,
2156,-4892,15792,-302,321,-241,-25000,-7000,358000,921525,
2164,-4860,15808,-457,260,-271,-25000,-7000,358000,921527,
2408,-4864,15708,-408,359,-312,-25000,-7000,358000,921540,
2432,-4976,15576,-490,332,-266,-25000,-7000,358000,921542,
2400,-4956,15652,-416,371,-285,-25000,-7000,358000,921544,
2272,-4888,15704,-437,338,-266,-25000,-7000,358000,921557,
2344,-4964,15664,-485,329,-316,-25000,-7000,358000,921559,
2272,-5008,15812,-462,360,-274,-25000,-7000,358000,921561,
2372,-4860,15644,-513,284,-291,-25000,-7000,358000,921574,
2444,-4928,15632,-470,365,-277,-25000,-7000,358000,921576,
2392,-4964,15644,-515,286,-310,-25000,-7000,357000,921578,
2316,-4936,15692,-381,357,-278,-25000,-7000,357000,921591,
2396,-4808,15476,-507,290,-290,-25000,-7000,357000,921593,
2376,-4976,15452,-394,339,-232,-25000,-7000,357000,921595,
2664,-4876,15552,-512,367,-214,-25000,-7000,357000,921608,
2624,-4940,15684,-350,464,-219,-25000,-7000,357000,921610,
2460,-5008,15548,-513,377,-197,-25000,-7000,357000,921612,
2280,-4960,15516,-416,311,-207,-25000,-7000,357000,921625,
2316,-4976,15624,-525,233,-191,-25000,-7000,357000,921627,
2296,-4904,15584,-382,269,-173,-25000,-7000,357000,921629,
2500,-4888,15448,-521,190,-153,-25000,-7000,357000,921642,
2448,-5024,15376,-516,145,-203,-25000,-7000,357000,921644,
2412,-5004,15368,-525,152,-150,-25000,-7000,357000,921646,
2492,-5124,15340,-539,173,-160,-25000,-7000,357000,921659,
2572,-5008,15596,-504,246,-132,-25000,-7000,357000,921661,
2596,-4984,15424,-513,176,-169,-25000,-7000,357000,921663,
2584,-5104,15440,-417,288,-158,-25000,-7000,357000,921676,
2464,-4980,15464,-549,209,-184,-25000,-7000,357000,921678,
2424,-5164,15388,-393,265,-147,-25000,-7000,357000,921680,
2540,-5040,15336,-510,201,-176,-25000,-7000,357000,921693,
2592,-5036,15424,-357,262,-126,-25000,-7000,357000,921695,
2332,-5084,15452,-500,183,-121,-25000,-7000,357000,921698,
2360,-5176,15344,-387,91,-98,-25000,-7000,357000,921710,
2252,-5076,15364,-431,91,-18,-25000,-7000,357000,921712,
2440,-5048,15304,-346,58,-91,-25000,-7000,357000,921715,
2584,-4996,15336,-321,99,59,-25000,-7000,357000,921727,
2564,-4960,15308,-345,35,19,-25000,-7000,357000,921729,
2548,-5100,15224,-332,96,83,-25000,-7000,357000,921732,
2540,-5064,15372,-336,112,107,-25000,-7000,357000,921744,
2668,-5056,15412,-217,212,149,-25000,-7000,357000,921747,
2572,-5032,15468,-302,142,113,-25000,-7000,357000,921749,
2636,-5072,15652,-146,236,127,-25000,-7000,357000,921761,
2308,-5016,15448,-260,226,98,-25000,-7000,357000,921764,
2360,-5156,15436,-105,292,140,-25000,-7000,357000,921766,
2040,-5044,15676,-233,307,85,-25000,-7000,357000,921779,
2116,-4984,15740,-150,305,60,-25000,-7000,357000,921781,
1960,-4960,15792,-213,245,96,-25000,-7000,357000,921783,
1900,-4812,15872,-206,198,-50,-25000,-7000,357000,921796,
1700,-4824,16000,-121,206,-25,-25000,-7000,357000,921798,
1736,-4760,16048,-212,185,-88,-25000,-7000,357000,921800,
1344,-4848,16412,-61,314,-137,-25000,-7000,357000,921813,
1280,-4816,16496,-163,313,-196,-25000,-7000,357000,921815,
1132,-4896,16544,-93,437,-208,-25000,-7000,357000,921817,
1316,-4716,16624,-11,829,-186,-25000,-7000,357000,921830,
1420,-4720,16608,150,1061,-78,-25000,-7000,357000,921832,
1412,-4632,16748,52,1134,-101,-25000,-7000,357000,921834,
980,-4360,17072,321,2166,-49,-24000,-7000,357000,921847,
836,-4220,17156,201,2249,-51,-24000,-6000,357000,921849,
692,-4320,17092,350,2441,-78,-24000,-6000,357000,921851,
120,-3832,17432,298,3072,-227,-24000,-6000,357000,921864,
-136,-3672,17408,395,3191,-296,-24000,-6000,357000,921866,
-280,-3496,17344,274,3248,-296,-24000,-6000,357000,921868,
-1212,-3284,17488,291,3371,-811,-24000,-6000,356000,921880,
-1672,-3064,17420,254,3366,-888,-24000,-6000,356000,921883,
-1744,-3088,17268,228,3434,-1034,-24000,-6000,356000,921885,
-2244,-2788,17052,223,2824,-1482,-24000,-5000,356000,921898,
-2320,-2868,17416,86,2746,-1676,-24000,-5000,356000,921900,
-2336,-2816,17476,150,2974,-1791,-24000,-5000,356000,921902,
-2804,-2904,17332,-110,2479,-2619,-24000,-5000,356000,921915,
-2816,-2888,17404,4,2562,-2786,-24000,-5000,356000,921917,
-2592,-2884,17464,-154,2539,-2915,-24000,-5000,355000,921920,
-2216,-2844,17320,-227,2855,-3718,-24000,-5000,355000,921932,
-2240,-2840,17324,-232,2955,-3772,-24000,-5000,355000,921934,
-2208,-2820,17392,-232,3011,-3972,-24000,-5000,355000,921937,
-2352,-2704,17292,-255,3453,-4791,-23000,-4000,354000,921949,
-2144,-2572,17284,-384,3482,-4958,-23000,-4000,354000,921952,
-2236,-2640,17168,-274,3640,-5129,-23000,-4000,354000,921954,
-1940,-2384,17296,-550,4068,-5891,-23000,-4000,353000,921966,
-2012,-2328,17320,-419,4171,-6063,-23000,-4000,353000,921969,
-1964,-2212,17264,-594,4195,-6185,-23000,-4000,353000,921971,
-1864,-1976,17212,-629,4477,-6907,-23000,-4000,352000,921984,
-1852,-1932,17208,-711,4467,-6961,-23000,-4000,352000,921986,
-1324,-1852,17172,-849,4541,-7650,-23000,-4000,351000,921998,
-1428,-1724,17196,-839,4562,-7634,-23000,-4000,351000,922001,
-1404,-1676,17032,-833,4569,-7810,-23000,-4000,351000,922003,
-1080,-1568,17024,-949,4551,-8188,-23000,-4000,350000,922016,
-1252,-1532,17076,-1087,4463,-8318,-23000,-4000,350000,922018,
-1376,-1552,17084,-992,4512,-8335,-23000,-4000,350000,922020,
-988,-1468,17180,-1282,4241,-8730,-23000,-3000,349000,922033,
-928,-1552,17052,-1198,4237,-8840,-23000,-3000,349000,922035,
-1128,-1564,17224,-1378,4143,-8878,-23000,-3000,348000,922038,
-872,-1656,16808,-1455,3774,-9271,-23000,-3000,348000,922050,
-824,-1772,16748,-1557,3666,-9266,-23000,-3000,347000,922052,
-676,-1668,16780,-1488,3635,-9402,-23000,-3000,347000,922055,
-652,-1608,16768,-1630,3348,-9653,-23000,-3000,346000,922067,
-372,-1628,16592,-1722,3287,-9774,-23000,-3000,346000,922069,
-224,-1752,16404,-1785,3274,-10073,-23000,-3000,345000,922082,
-192,-1832,16428,-1968,3214,-10141,-23000,-3000,345000,922084,
100,-1908,16356,-1857,3300,-10148,-23000,-4000,345000,922087,
156,-2140,16260,-2087,3427,-10438,-23000,-4000,344000,922099,
248,-2132,16296,-1996,3474,-10557,-23000,-4000,343000,922101,
-16,-2192,16188,-2143,3422,-10525,-23000,-4000,343000,922104,
44,-2192,16092,-2182,3411,-10913,-23000,-4000,342000,922116,
36,-2108,16212,-2234,3396,-10903,-23000,-4000,342000,922118,
200,-2180,16080,-2249,3362,-11017,-23000,-4000,342000,922121,
348,-2180,15920,-2356,3135,-11276,-23000,-4000,341000,922133,
284,-2340,16012,-2489,3076,-11313,-23000,-4000,340000,922136,
564,-2492,15820,-2474,2903,-11608,-23000,-4000,339000,922148,
588,-2512,15704,-2617,2840,-11438,-23000,-4000,339000,922150,
908,-2600,15712,-2526,2880,-11688,-23000,-4000,339000,922153,
1032,-2744,15776,-2736,2773,-11701,-23000,-4000,338000,922165,
1072,-2768,15716,-2593,2858,-11606,-23000,-4000,337000,922167,
972,-2932,15684,-2750,2757,-11828,-23000,-4000,337000,922170,
1180,-3136,15548,-2699,2653,-11896,-23000,-5000,336000,922182,
1476,-2968,15556,-2768,2642,-11827,-23000,-5000,336000,922185,
1428,-3112,15516,-2709,2640,-11909,-23000,-5000,336000,922187,
1800,-3240,15388,-2704,2628,-11815,-23000,-5000,334000,922199,
1692,-3252,15212,-2689,2574,-11893,-23000,-5000,334000,922202,
1884,-3384,15232,-2416,2010,-11805,-23000,-5000,333000,922214,
2152,-3344,14928,-2542,2096,-11874,-23000,-5000,333000,922216,
2788,-3404,14768,-2514,2608,-11895,-23000,-5000,333000,922219,
2792,-3624,15140,-2524,2640,-11815,-23000,-6000,332000,922231,
2660,-3684,15056,-2391,2915,-11845,-23000,-6000,331000,922234,
2624,-3644,14960,-2545,2900,-11821,-23000,-6000,331000,922236,
2540,-3728,15044,-2402,2812,-11778,-23000,-6000,330000,922248,
2780,-3756,15056,-2496,2736,-11646,-23000,-6000,330000,922251,
2836,-4008,15056,-2400,2418,-11433,-24000,-6000,329000,922263,
2728,-4116,14996,-2492,2314,-11615,-24000,-6000,328000,922266,
2868,-4060,15132,-2379,2258,-11428,-24000,-6000,328000,922268,
3172,-4596,15032,-2389,2022,-11350,-24000,-7000,327000,922280,
3376,-4656,14832,-2419,1935,-11317,-24000,-7000,327000,922283,
3416,-4768,14876,-2341,1943,-11280,-24000,-7000,327000,922285,
3648,-4876,14844,-2349,2000,-11138,-24000,-7000,326000,922297,
3696,-5000,14976,-2208,2065,-11069,-24000,-7000,326000,922300,
3976,-5092,15172,-2287,2021,-10812,-24000,-7000,324000,922312,
4164,-5068,15184,-2203,2095,-10792,-24000,-7000,324000,922315,
4084,-5064,15348,-2296,2096,-10722,-24000,-7000,324000,922317,
4104,-5008,15340,-2366,1877,-10596,-24000,-8000,323000,922329,
3960,-5068,15240,-2428,1815,-10487,-24000,-8000,323000,922332,
4096,-5136,15184,-2384,1730,-10513,-24000,-8000,323000,922334,
4368,-5252,15172,-2469,1394,-10288,-24000,-8000,322000,922346,
4288,-5180,15116,-2567,1290,-10258,-24000,-8000,322000,922349,
4944,-5400,14920,-2485,1243,-9960,-24000,-9000,321000,922361,
4876,-5544,14892,-2636,1190,-9919,-24000,-9000,320000,922364,
5016,-5600,14780,-2484,1286,-9810,-24000,-9000,320000,922366,
5204,-5904,14700,-2508,1305,-9386,-24000,-9000,319000,922378,
5276,-5972,14820,-2354,1350,-9339,-24000,-9000,319000,922381,
5204,-6048,14716,-2468,1351,-9232,-24000,-9000,319000,922383,
5392,-6320,14660,-2261,1573,-8707,-24000,-9000,318000,922395,
5452,-6320,14760,-2274,1613,-8513,-24000,-9000,318000,922398,
5544,-6300,14944,-2194,1573,-8510,-24000,-10000,318000,922400,
5160,-6540,14900,-2099,1347,-8055,-24000,-10000,317000,922413,
4984,-6592,14588,-2165,1204,-8070,-24000,-10000,317000,922415,
5384,-6712,14592,-1964,857,-7672,-24000,-10000,316000,922427,
5320,-6808,14596,-2020,729,-7631,-24000,-10000,316000,922430,
5520,-6796,14492,-1930,759,-7476,-24000,-10000,316000,922432,
5732,-7180,14372,-1909,770,-7151,-24000,-10000,315000,922444,
5832,-7272,14460,-1763,876,-7009,-24000,-11000,315000,922447,
5776,-7276,14536,-1856,821,-6987,-24000,-11000,315000,922449,
6068,-7488,14396,-1535,1005,-6554,-24000,-11000,315000,922461,
6044,-7616,14376,-1626,1027,-6463,-24000,-11000,314000,922464,
6276,-7404,14420,-1448,1119,-6394,-24000,-11000,314000,922466,
6408,-7604,14244,-1317,1359,-5823,-25000,-11000,314000,922478,
6484,-7680,14292,-1251,1402,-5811,-25000,-11000,314000,922481,
6564,-7564,14568,-1017,1597,-5106,-25000,-11000,313000,922493,
6532,-7672,14524,-1088,1610,-5021,-25000,-11000,313000,922496,
6596,-7684,14372,-936,1695,-4878,-25000,-11000,313000,922498,
6420,-7676,14600,-934,1473,-4297,-25000,-11000,313000,922510,
6216,-7676,14680,-765,1508,-4229,-25000,-11000,312000,922513,
6144,-7596,14696,-911,1404,-4132,-25000,-11000,312000,922515,
6312,-7664,14680,-728,998,-3598,-25000,-12000,312000,922527,
6388,-7624,14432,-815,854,-3472,-25000,-12000,312000,922530,
6388,-7568,14432,-668,837,-3413,-25000,-12000,312000,922532,
6400,-7708,14484,-648,567,-2759,-25000,-12000,312000,922544,
6328,-7696,14492,-642,530,-2671,-25000,-12000,312000,922547,
6700,-7776,14616,-528,410,-1965,-25000,-12000,311000,922559,
6648,-7776,14520,-632,329,-1921,-25000,-12000,311000,922561,
6604,-7804,14620,-555,386,-1760,-25000,-12000,311000,922564,
6640,-7764,14680,-605,294,-1201,-25000,-12000,311000,922576,
6528,-7672,14576,-439,354,-1096,-25000,-12000,311000,922578,
6392,-7768,14608,-605,303,-999,-25000,-12000,311000,922581,
6324,-7688,14576,-491,195,-490,-25000,-12000,311000,922593,
6516,-7572,14608,-665,76,-451,-25000,-12000,311000,922595,
6464,-7564,14692,-540,144,-315,-25000,-12000,311000,922598,
6052,-7556,14680,-762,-264,120,-25000,-12000,311000,922610,
5836,-7560,14792,-664,-320,191,-25000,-12000,311000,922612,
5924,-7576,14680,-755,-459,265,-25000,-12000,311000,922615,
5836,-6836,14460,-277,-3209,7361,-28000,-12000,323000,922799,
5880,-6788,14628,-153,-3227,7529,-28000,-12000,323000,922801,
5716,-6788,14484,-255,-3377,7564,-28000,-12000,323000,922804,
5204,-6604,14628,-151,-3872,7902,-28000,-12000,324000,922816,
5360,-6548,14712,-318,-4066,7915,-28000,-12000,324000,922818,
5296,-6484,14720,-182,-4112,8006,-28000,-12000,324000,922821,
5540,-6492,14908,-334,-4488,8251,-28000,-12000,325000,922833,
5696,-6400,14872,-202,-4489,8344,-28000,-12000,325000,922836,
5824,-6336,14940,-328,-4528,8356,-28000,-12000,325000,922838,
5988,-6268,15004,-226,-4322,8732,-29000,-12000,326000,922850,
5936,-6396,15060,-294,-4246,8795,-29000,-12000,327000,922853,
5828,-6344,15100,-217,-4059,9193,-29000,-12000,328000,922865,
5724,-6320,15160,-196,-4008,9266,-29000,-12000,328000,922867,
5736,-6176,15236,-194,-4050,9295,-29000,-12000,328000,922870,
5032,-6148,15464,-49,-4024,9713,-29000,-12000,329000,922882,
5184,-6068,15408,-189,-4114,9792,-29000,-12000,329000,922884,
5020,-6044,15492,-40,-4092,9887,-29000,-12000,329000,922887,
5016,-5820,15628,-148,-4365,10227,-29000,-12000,330000,922899,
5004,-5796,15636,16,-4350,10276,-29000,-12000,331000,922902,
5000,-5704,15556,-152,-4458,10333,-29000,-12000,331000,922904,
5044,-5716,15652,-70,-4348,10708,-30000,-12000,332000,922916,
4892,-5640,15648,-110,-4325,10780,-30000,-12000,332000,922919,
4880,-5712,15660,-37,-4269,10842,-30000,-12000,332000,922921,
5032,-5528,15568,3,-3903,11182,-30000,-12000,333000,922934,
4952,-5608,15644,-40,-3904,11201,-30000,-12000,334000,922936,
4652,-5504,15588,134,-3581,11549,-30000,-11000,335000,922948,
4576,-5468,15632,2,-3589,11543,-30000,-11000,335000,922951,
4476,-5412,15644,197,-3488,11647,-30000,-11000,335000,922953,
4268,-5216,15932,142,-3351,11898,-30000,-11000,336000,922965,
4172,-5176,15872,180,-3362,11963,-30000,-11000,337000,922968,
4176,-5136,15852,161,-3319,11974,-30000,-11000,337000,922970,
3448,-4968,15956,155,-3460,12148,-30000,-10000,338000,922982,
3440,-4984,16136,178,-3408,12212,-30000,-10000,338000,922985,
3492,-4988,15928,138,-3485,12201,-30000,-10000,338000,922987,
3392,-4748,15976,170,-3663,12237,-31000,-10000,340000,923000,
3324,-4672,16020,33,-3719,12212,-31000,-10000,340000,923002,
3256,-4728,16044,124,-3700,12220,-31000,-10000,340000,923004,
2900,-4636,15808,-16,-3959,12202,-31000,-10000,341000,923017,
2852,-4612,15872,108,-3991,12196,-31000,-10000,341000,923019,
3068,-4572,15808,3,-3927,12179,-31000,-9000,343000,923032,
3092,-4492,15708,66,-3901,12228,-31000,-9000,343000,923034,
3072,-4500,15812,2,-3899,12220,-31000,-9000,343000,923036,
2604,-4680,15716,60,-3757,12177,-31000,-9000,344000,923049,
2592,-4680,15836,130,-3641,12164,-31000,-9000,344000,923051,
2724,-4572,15796,95,-3668,12203,-31000,-9000,345000,923053,
2884,-4544,15648,262,-3451,12231,-31000,-8000,346000,923065,
2808,-4520,15648,154,-3480,12224,-31000,-8000,346000,923068,
2760,-4424,15636,297,-3381,12234,-31000,-8000,346000,923070,
2552,-4536,15496,311,-3153,12298,-31000,-8000,347000,923083,
2480,-4428,15440,538,-3025,12367,-31000,-8000,348000,923085,
2612,-4484,15540,379,-3028,12346,-31000,-8000,348000,923087,
2332,-4292,15532,613,-2806,12370,-31000,-7000,349000,923100,
2296,-4240,15544,496,-2805,12353,-31000,-7000,349000,923102,
2268,-4156,15620,638,-2733,12334,-31000,-7000,349000,923104,
1572,-4120,15812,535,-2828,12327,-31000,-7000,351000,923117,
1652,-4092,15708,628,-2851,12342,-31000,-7000,351000,923119,
1588,-4060,15944,561,-2925,12277,-31000,-7000,351000,923121,
1560,-4108,15564,624,-3354,12154,-31000,-6000,352000,923134,
1596,-4072,15636,642,-3399,12107,-31000,-6000,352000,923136,
1652,-4024,15652,659,-3487,12170,-31000,-6000,353000,923139,
1568,-3988,15616,789,-3477,12090,-31000,-6000,354000,923151,
1516,-4048,15532,682,-3557,12015,-31000,-6000,354000,923153,
1580,-3952,15560,922,-3427,12052,-31000,-6000,355000,923166,
1452,-4024,15544,799,-3454,11954,-31000,-6000,355000,923168,
1540,-3908,15552,960,-3405,12024,-31000,-6000,355000,923170,
1160,-3808,15772,909,-3220,11859,-31000,-5000,357000,923183,
1264,-3816,15940,901,-3232,11867,-31000,-5000,357000,923185,
1124,-3884,15832,863,-3206,11800,-31000,-5000,357000,923187,
848,-3744,16188,701,-3119,11625,-31000,-5000,358000,923200,
708,-3624,16140,717,-3026,11572,-31000,-5000,358000,923202,
604,-3684,16252,665,-3109,11516,-31000,-5000,358000,923204,
404,-3660,16312,550,-3272,11166,-31000,-4000,0,923217,
180,-3728,16356,447,-3324,11068,-31000,-4000,0,923219,
56,-3808,16400,507,-3247,11040,-31000,-4000,0,923222,
-52,-3764,16412,134,-3076,10597,-31000,-4000,1000,923234,
48,-3736,16368,235,-2963,10492,-31000,-4000,1000,923236,
-92,-3764,16256,35,-3024,10407,-31000,-4000,1000,923239,
-296,-4124,16304,-3,-2974,9830,-31000,-3000,2000,923251,
-616,-4356,16132,-57,-2923,9720,-31000,-3000,2000,923253,
-572,-4264,16244,-4,-2911,9632,-31000,-3000,3000,923256,
-1020,-4400,15980,-181,-2584,9144,-31000,-3000,3000,923268,
-1008,-4424,16100,-260,-2598,8992,-31000,-3000,4000,923270,
-1096,-4468,16100,-261,-2477,8919,-31000,-3000,4000,923273,
-1388,-4824,16200,-366,-2955,8286,-31000,-3000,5000,923285,
-1364,-4928,15936,-311,-2590,8164,-31000,-3000,5000,923288,
-1348,-4988,16096,-476,-2476,8042,-31000,-3000,5000,923290,
-1096,-5192,16128,-356,-2397,7406,-31000,-2000,6000,923303,
-1208,-5236,16084,-473,-2391,7278,-31000,-2000,6000,923305,
-1056,-5276,16152,-336,-2290,7184,-31000,-2000,6000,923307,
-1144,-5196,15984,-455,-1935,6538,-31000,-2000,7000,923320,
-992,-5208,16092,-434,-1855,6433,-31000,-2000,7000,923322,
-1032,-5180,16124,-464,-1724,6299,-31000,-2000,7000,923324,
-1000,-5232,16168,-552,-1218,5617,-31000,-2000,7000,923337,
-1112,-5328,15976,-505,-1079,5526,-31000,-2000,7000,923339,
-1132,-5372,15928,-539,-1050,5377,-31000,-2000,7000,923341,
-1444,-5400,15816,-423,-781,4752,-31000,-2000,8000,923354,
-1480,-5512,15824,-574,-829,4623,-31000,-2000,8000,923356,
-1580,-5468,15840,-412,-752,4487,-31000,-2000,8000,923359,
-1500,-5600,15664,-533,-803,3868,-31000,-1000,8000,923371,
-1364,-5596,15692,-360,-782,3726,-30000,-1000,8000,923373,
-1352,-5608,15628,-525,-844,3659,-30000,-1000,9000,923376,
-1400,-5624,15472,-328,-920,3082,-30000,-1000,9000,923388,
-1392,-5692,15524,-399,-935,3028,-30000,-1000,9000,923391,
-1328,-5656,15392,-282,-935,2900,-30000,-1000,9000,923393,
-796,-5640,15344,-232,-881,2504,-30000,-1000,9000,923406,
-760,-5788,15304,-230,-891,2372,-30000,-1000,9000,923408,
-752,-5816,15352,-182,-805,2324,-30000,-1000,9000,923410,
-504,-5952,15156,-80,-612,1933,-30000,-1000,9000,923423,
-568,-5912,15088,57,-504,1921,-30000,-1000,9000,923425,
-400,-5892,15132,-10,-530,1801,-30000,-1000,9000,923427,
-44,-5980,15044,310,-94,1506,-30000,-1000,10000,923440,
-64,-6016,14940,208,-123,1491,-30000,-1000,10000,923442,
-8,-6120,15032,371,4,1435,-30000,-1000,10000,923444,
-56,-6020,15080,493,269,1227,-30000,-1000,10000,923457,
36,-6048,14904,566,304,1156,-30000,-1000,10000,923459,
124,-6060,14948,542,385,1153,-30000,-1000,10000,923461,
176,-5992,15096,753,665,948,-30000,-1000,10000,923473,
332,-6012,15144,840,782,980,-30000,-1000,10000,923476,
276,-5928,15100,827,773,917,-30000,-1000,10000,923478,
244,-5872,15168,1049,837,769,-30000,0,10000,923491,
320,-5848,14920,942,781,720,-30000,0,10000,923493,
204,-5904,15068,1107,847,724,-30000,0,10000,923495,
312,-5940,15188,986,799,649,-30000,0,10000,923497,
464,-5808,15172,1245,890,613,-29000,0,10000,923510,
636,-5780,15120,1138,823,589,-29000,0,10000,923512,
544,-5744,15224,1266,920,601,-29000,0,10000,923514,
472,-5832,15020,1134,829,575,-29000,0,10000,923517,
396,-5780,15128,1253,764,473,-29000,0,10000,923529,
488,-5920,15260,1222,756,479,-29000,0,10000,923532,
612,-5876,15492,1333,723,419,-29000,0,10000,923534,
724,-5956,15112,1332,671,383,-29000,0,10000,923546,
660,-5960,15272,1303,614,331,-29000,0,10000,923549,
568,-6012,15352,1325,683,357,-29000,0,10000,923551,
804,-5992,15340,1340,655,293,-29000,0,10000,923553,
908,-5944,15308,1435,713,278,-29000,0,10000,923566,
996,-6040,15336,1316,661,201,-29000,0,10000,923568,
1064,-6020,15380,1380,758,231,-29000,0,10000,923570,
1184,-6076,15412,1304,783,138,-28000,0,10000,923583,
1000,-6056,15312,1434,913,165,-28000,0,10000,923585,
1308,-6044,15280,1300,873,127,-28000,0,10000,923587,
1216,-5928,15356,1411,962,132,-28000,0,10000,923589,
1216,-5844,15524,1200,1062,109,-28000,0,10000,923602,
1120,-5912,15436,1300,1121,81,-28000,0,10000,923604,
1064,-5916,15424,1191,1046,60,-28000,0,10000,923607,
1040,-5940,15588,1142,942,8,-28000,0,10000,923619,
960,-5924,15588,1126,899,-7,-28000,0,10000,923621,
816,-6012,15548,1179,909,-20,-28000,0,10000,923624,
852,-5948,15444,1057,820,-9,-28000,0,10000,923626,
944,-5964,15664,995,621,-17,-28000,0,10000,923638,
1108,-5868,15748,1040,634,-9,-28000,0,10000,923641,
1144,-5944,15568,944,564,-39,-28000,0,10000,923643,
1140,-5956,15504,934,582,25,-28000,0,10000,923645,
956,-5888,15744,758,437,15,-28000,0,10000,923658,
1264,-5840,15712,913,490,33,-28000,0,10000,923660,
1056,-5916,15628,729,365,-25,-28000,0,10000,923662,
1336,-5848,15532,778,377,-28,-27000,0,10000,923675,
1208,-5892,15732,621,346,-22,-27000,0,10000,923677,
1288,-5752,15760,715,390,7,-27000,0,10000,923679,
1248,-5824,15760,578,343,-30,-27000,0,10000,923682,
1108,-5876,15804,576,331,-54,-27000,0,10000,923694,
1032,-5916,15700,413,276,-57,-27000,0,10000,923696,
972,-5920,15820,528,276,-68,-27000,0,10000,923698,
1148,-5864,15784,227,274,-115,-27000,0,10000,923711,
1232,-5796,15876,274,266,-145,-27000,0,10000,923713,
1292,-5812,15808,190,262,-123,-27000,0,10000,923715,
1108,-5884,15720,226,297,-161,-27000,0,10000,923718,
1092,-5820,15628,85,239,-230,-27000,0,10000,923730,
1108,-5904,15484,67,235,-323,-27000,0,9000,923732,
1120,-5804,15640,36,215,-285,-27000,0,9000,923735,
1284,-5788,15780,-91,136,-388,-27000,0,9000,923747,
1248,-5792,15724,-101,176,-334,-27000,0,9000,923749,
1148,-5772,15576,-87,132,-419,-27000,0,9000,923752,
1172,-5844,15592,-138,124,-350,-27000,0,9000,923754,
1244,-5672,15584,-257,-51,-450,-27000,0,9000,923766,
1224,-5652,15700,-395,-276,-432,-27000,0,9000,923787,
1224,-5688,15676,-401,-345,-462,-27000,0,9000,923790,
1236,-5740,15628,-443,-368,-423,-27000,0,9000,923792,
1136,-5728,15704,-446,-379,-466,-27000,0,9000,923794,
1452,-5852,15616,-498,-471,-433,-27000,0,9000,923807,
1264,-5932,15632,-570,-504,-475,-27000,0,9000,923809,
1648,-5908,15668,-558,-498,-438,-27000,0,9000,923811,
1536,-5868,15360,-628,-410,-431,-27000,0,9000,923824,
1652,-5888,15372,-553,-346,-400,-27000,0,9000,923826,
1520,-5928,15476,-587,-361,-414,-27000,0,9000,923828,
1644,-6032,15484,-497,-138,-323,-27000,0,9000,923841,
1644,-5940,15524,-623,-176,-343,-27000,0,9000,923843,
1636,-5948,15544,-484,-38,-294,-27000,0,9000,923845,
1776,-6016,15404,-608,-77,-334,-27000,0,9000,923847,
1728,-5904,15608,-448,85,-207,-27000,0,9000,923860,
1736,-5824,15580,-591,8,-229,-27000,0,9000,923862,
1556,-5864,15556,-435,132,-161,-27000,0,9000,923864,
1428,-5828,15592,-567,73,-108,-27000,0,9000,923877,
1484,-5824,15492,-437,106,-107,-27000,0,9000,923879,
1468,-5812,15356,-570,65,-104,-27000,0,9000,923881,
1512,-5852,15476,-418,103,-74,-27000,0,9000,923883,
1332,-5616,15536,-557,-34,62,-27000,-1000,9000,924078,
1420,-5528,15336,-504,-28,86,-27000,-1000,9000,924081,
