Ax,Ay,Az,Gx,Gy,Gz,Roll,Pitch,Yaw,Timestamp,Target
-968,5428,15328,508,-1767,-3331,11000,0,4000,507262,
-1392,5460,15304,510,-2825,-3253,11000,0,3000,507274,
-1336,5508,15512,570,-3043,-3272,11000,0,3000,507276,
-1388,5504,15376,549,-3300,-3233,11000,0,3000,507279,
-1196,5292,15456,610,-4487,-3098,11000,0,3000,507291,
-1144,5320,15308,643,-4658,-3034,11000,0,3000,507293,
-984,5212,15340,670,-4865,-2992,11000,0,3000,507295,
880,5252,14844,341,-2698,-2135,12000,-1000,2000,507347,
840,5192,14888,297,-2447,-2107,12000,-1000,2000,507349,
812,5160,14992,355,-2292,-2033,12000,-1000,2000,507351,
732,5228,14996,230,-1273,-1794,12000,-1000,1000,507364,
772,5204,14948,265,-1120,-1733,12000,-1000,1000,507366,
600,5292,14956,234,-1014,-1672,12000,-2000,1000,507368,
128,5116,14948,193,-299,-1386,12000,-1000,1000,507380,
72,5096,15168,182,-259,-1283,12000,-1000,1000,507383,
52,5160,15020,175,-220,-1212,12000,-1000,1000,507385,
-128,5288,15044,182,-127,-949,12000,-1000,1000,507397,
-200,5144,15084,187,-117,-923,12000,-1000,1000,507399,
-200,5300,15040,211,-107,-911,12000,-1000,1000,507402,
-192,5256,14796,69,-55,-670,12000,-1000,1000,507414,
-160,5340,14788,128,-62,-613,12000,-1000,1000,507416,
-168,5404,14740,88,-86,-576,12000,-1000,1000,507418,
-144,5476,14680,55,-96,-553,12000,-1000,1000,507421,
-20,5836,14788,-45,-197,-602,12000,-1000,1000,507433,
-32,5884,14852,-102,-196,-592,12000,-1000,1000,507435,
-96,5888,14932,-130,-160,-657,12000,-1000,1000,507438,
84,5896,14896,-248,-157,-559,12000,-1000,1000,507450,
-400,5772,15340,-423,96,-183,12000,-1000,1000,507483,
-396,5812,15180,-440,82,-149,12000,-1000,1000,507485,
-296,5892,15244,-488,79,-155,12000,-1000,1000,507487,
-368,5952,15192,-464,3,-171,12000,-1000,1000,507490,
-316,5996,15264,-574,-268,-156,12000,-1000,1000,507502,
-116,6028,15192,-542,-383,-137,12000,-1000,1000,507504,
-140,6020,15340,-570,-413,-166,12000,-1000,1000,507506,
196,6192,15204,-588,-559,-328,12000,-1000,1000,507519,
356,6108,15044,-640,-520,-313,12000,-1000,1000,507521,
296,6072,15104,-671,-491,-317,12000,-1000,1000,507523,
628,6132,15388,-624,-385,-424,12000,-1000,1000,507536,
700,6088,15392,-656,-307,-456,12000,-1000,1000,507538,
684,6060,15480,-615,-232,-525,12000,-1000,1000,507540,
412,6148,15740,-606,25,-561,12000,-1000,0,507552,
428,6116,15696,-547,71,-616,12000,-1000,0,507555,
584,6068,15808,-521,2,-578,12000,-1000,0,507557,
592,6040,15776,-535,-3,-615,12000,-1000,0,507559,
532,6120,15876,-462,90,-727,12000,-1000,0,507571,
312,5968,15740,-492,138,-703,12000,-1000,0,507574,
364,5936,15864,-450,209,-731,12000,-1000,0,507576,
224,5620,15764,-269,49,-440,12000,-1000,0,507613,
288,5700,15728,-280,-17,-412,12000,-1000,0,507615,
240,5716,15704,-327,-84,-415,12000,-1000,0,507618,
332,5860,15912,-314,-32,-422,12000,-1000,0,507620,
444,5908,15720,-414,4,-397,12000,-1000,0,507632,
320,5848,15620,-438,33,-411,12000,-1000,0,507634,
472,5856,15588,-389,7,-399,12000,-1000,0,507637,
376,5852,15712,-426,-37,-380,12000,-1000,0,507639,
496,5736,15384,-484,-51,-406,12000,-1000,0,507651,
496,5628,15484,-519,-46,-343,12000,-1000,0,507653,
552,5672,15636,-563,-20,-352,12000,-1000,0,507656,
656,5552,15436,-606,102,-316,12000,-1000,0,507668,
672,5540,15492,-620,139,-317,12000,-1000,0,507670,
608,5420,15392,-570,145,-321,12000,-1000,0,507672,
556,5448,15552,-605,115,-303,12000,-1000,0,507675,
244,5196,15652,-567,164,-160,12000,-1000,0,507687,
164,5124,15484,-595,114,-87,12000,-1000,0,507689,
72,5112,15492,-612,122,-71,12000,-1000,0,507691,
152,5244,15444,-586,102,-71,12000,-1000,0,507694,
196,5244,15600,-586,-118,-40,12000,-1000,0,507706,
1084,5544,15616,-507,783,93,12000,-1000,0,507750,
1132,5592,15620,-470,898,44,12000,-1000,0,507753,
1112,5672,15616,-457,948,-5,12000,-1000,0,507755,
1072,5672,15584,-483,985,-24,12000,-1000,0,507757,
780,5604,15684,-441,1261,-101,12000,-1000,0,507770,
648,5684,15740,-497,1289,-92,12000,-1000,0,507772,
592,5696,15776,-487,1376,-84,12000,-1000,0,507774,
516,5688,15748,-450,1323,-36,12000,-1000,0,507776,
-4,5540,15704,-419,1139,58,12000,-1000,0,507789,
-28,5604,15744,-394,1031,61,12000,-1000,0,507791,
-12,5600,15644,-436,920,91,12000,-1000,0,507793,
-52,5676,15556,-434,845,72,12000,-1000,0,507795,
120,5432,15424,-474,308,185,12000,-1000,0,507808,
220,5452,15408,-502,285,174,12000,-1000,0,507810,
216,5348,15352,-464,220,186,12000,-1000,0,507812,
616,5492,15524,-565,198,195,12000,-1000,0,507825,
592,5488,15516,-516,205,205,12000,-1000,0,507827,
700,5616,15508,-580,200,210,12000,-1000,0,507829,
584,5608,15560,-600,260,188,12000,-1000,0,507831,
880,5872,15700,-635,417,170,12000,-1000,0,507844,
848,5844,15772,-676,499,141,12000,-1000,0,507846,
776,5808,15680,-624,521,102,12000,-1000,0,507848,
112,5404,15972,-657,811,28,12000,0,0,507879,
-32,5360,15964,-647,776,25,12000,0,0,507882,
-24,5356,16052,-617,711,30,12000,0,0,507884,
16,5428,15996,-606,561,51,12000,0,0,507886,
-132,5388,15932,-635,481,72,12000,0,0,507888,
-64,5372,16020,-552,-157,3,12000,0,0,507901,
-96,5320,15776,-594,-256,3,12000,0,0,507903,
-4,5464,15960,-564,-344,-49,12000,0,0,507905,
24,5356,15876,-544,-486,32,12000,0,0,507907,
336,5212,15788,-508,-638,93,12000,0,0,507920,
448,5260,15876,-463,-682,96,12000,0,0,507922,
576,5212,15844,-546,-662,119,12000,0,0,507924,
676,5240,15828,-513,-611,103,12000,0,0,507926,
868,5388,15508,-552,-225,167,12000,0,0,507939,
884,5304,15592,-561,-126,150,12000,0,0,507941,
836,5280,15688,-523,-34,162,12000,0,0,507943,
876,5416,15556,-560,35,207,12000,0,0,507945,
960,5440,15636,-514,532,147,12000,0,0,507958,
844,5400,15716,-542,601,175,12000,0,0,507960,
896,5528,15612,-570,687,137,12000,0,0,507962,
384,5408,15888,-395,150,-22,12000,0,0,508017,
284,5544,15868,-427,108,-20,12000,0,0,508019,
260,5520,16040,-433,103,-36,12000,0,0,508021,
336,5436,15940,-403,7,-2,12000,0,0,508023,
420,5392,15700,-440,-6,-2,12000,0,0,508026,
516,5276,15540,-425,-170,26,12000,0,0,508038,
632,5276,15452,-457,-201,16,12000,0,0,508040,
588,5260,15460,-475,-184,51,12000,0,0,508042,
676,5268,15664,-459,-168,13,12000,0,0,508045,
784,5436,15576,-510,84,32,12000,0,0,508057,
768,5400,15616,-461,110,1,12000,0,0,508059,
812,5356,15628,-476,176,18,12000,0,0,508061,
888,5464,15580,-520,256,-14,12000,0,0,508064,
908,5352,15664,-465,321,-57,12000,0,0,508066,
692,5424,15580,-514,642,15,12000,0,0,508078,
568,5320,15576,-500,707,-8,12000,0,0,508080,
540,5312,15692,-543,697,50,12000,0,0,508083,
516,5204,15492,-547,714,73,12000,0,0,508085,
164,5452,15768,-549,635,142,12000,0,0,508097,
140,5528,15704,-562,625,145,12000,0,0,508099,
132,5488,15716,-549,592,128,12000,0,0,508102,
824,5372,15560,-677,-77,87,12000,0,0,508149,
680,5304,15576,-680,36,51,12000,0,0,508151,
772,5472,15760,-640,6,52,12000,0,0,508154,
748,5304,15784,-682,8,58,12000,0,0,508156,
736,5500,15592,-692,49,22,12000,0,0,508158,
496,5356,15708,-615,128,-20,12000,0,0,508170,
460,5332,15644,-615,130,-26,12000,0,0,508173,
496,5336,15820,-591,166,-14,12000,0,0,508175,
540,5256,15744,-581,135,8,12000,0,0,508177,
484,5364,15836,-526,148,45,12000,0,0,508189,
492,5312,15688,-525,124,64,12000,0,0,508191,
296,5284,15804,-556,113,92,12000,0,1000,508194,
332,5236,15776,-547,142,66,12000,0,1000,508196,
236,5068,15672,-545,118,222,12000,0,1000,508208,
164,5084,15708,-548,164,209,12000,0,1000,508210,
164,5164,15656,-492,80,272,12000,0,1000,508213,
244,5064,15644,-564,106,280,12000,0,1000,508215,
320,5144,15788,-552,46,392,12000,0,1000,508227,
284,5156,15624,-628,11,431,12000,0,1000,508229,
300,5212,15572,-617,58,457,12000,0,1000,508232,
872,5720,15976,-700,413,415,12000,0,1000,508277,
768,5696,16016,-715,462,378,12000,0,1000,508279,
808,5640,16072,-756,530,386,12000,0,1000,508281,
824,5740,16124,-698,549,321,12000,0,1000,508283,
576,5548,16372,-687,654,253,12000,0,1000,508296,
492,5568,16276,-620,624,228,12000,0,1000,508298,
432,5452,16192,-611,602,230,12000,0,1000,508300,
372,5488,16320,-609,577,199,12000,0,1000,508302,
212,5528,16436,-523,217,199,12000,0,1000,508315,
192,5500,16264,-518,135,196,12000,0,1000,508317,
112,5532,16352,-495,60,169,12000,0,1000,508319,
4,5500,16380,-477,-51,199,12000,0,1000,508321,
16,5572,16488,-463,-413,182,12000,0,1000,508333,
136,5560,16488,-430,-503,209,12000,0,1000,508336,
52,5448,16480,-481,-531,203,12000,0,1000,508338,
104,5340,16472,-510,-547,180,12000,0,1000,508340,
224,5348,16444,-452,-744,302,12000,0,1000,508352,
336,5396,16764,-440,-709,297,12000,0,1000,508354,
468,5524,16672,-401,-732,299,12000,0,1000,508357,
536,5452,16600,-414,-694,316,12000,0,1000,508359,
644,5616,16788,-309,-386,278,12000,0,1000,508371,
420,5364,16488,-62,513,188,12000,0,1000,508402,
280,5264,16660,-40,558,209,12000,0,1000,508404,
300,5180,16548,-33,610,209,12000,0,1000,508406,
176,5136,16608,40,555,203,12000,0,1000,508409,
24,5148,16396,193,285,197,12000,0,1000,508421,
-76,5132,16256,225,171,205,12000,0,1000,508423,
-120,5092,16240,210,57,177,12000,0,1000,508425,
36,4956,16284,224,3,181,12000,0,1000,508428,
152,5116,16252,301,-471,213,12000,0,1000,508440,
128,5144,16048,269,-498,207,12000,0,1000,508442,
192,5080,15968,355,-590,227,12000,0,1000,508444,
180,5020,16180,322,-645,264,12000,0,1000,508447,
260,5136,16096,344,-597,439,12000,0,1000,508459,
304,5116,15980,302,-588,521,12000,0,1000,508461,
480,5076,15964,267,-550,525,12000,0,1000,508463,
408,5108,16020,314,-505,539,12000,0,1000,508466,
664,5464,16240,257,-199,621,12000,0,1000,508478,
748,5484,16224,285,-142,621,12000,0,1000,508480,
732,5560,16256,292,-119,613,12000,0,1000,508482,
644,5428,16344,274,-23,637,12000,0,1000,508485,
608,5960,16956,800,-247,1156,13000,-1000,2000,508551,
528,6072,16896,857,-192,1172,13000,-1000,2000,508553,
548,6172,16864,882,-150,1247,13000,-1000,2000,508555,
644,6240,16816,866,-70,1269,13000,-1000,2000,508557,
1232,6736,16672,1103,285,1387,13000,-1000,2000,508570,
1528,6924,16620,1102,341,1367,13000,-1000,2000,508572,
1684,6996,16564,1138,430,1283,13000,-1000,2000,508574,
2432,8028,16148,1236,982,681,13000,-1000,2000,508587,
2516,8192,16056,1217,1209,607,13000,-1000,2000,508589,
1636,7772,16480,1305,1150,682,13000,-1000,2000,508591,
2628,8404,15676,1119,2239,309,13000,-1000,2000,508604,
2700,8520,15500,1146,2358,321,13000,-1000,2000,508606,
2884,8540,15332,1096,2550,213,14000,-1000,2000,508608,
2460,8768,14652,894,3080,-170,14000,0,2000,508620,
2344,8616,14484,806,3102,-224,14000,0,2000,508623,
2268,8768,14236,727,3104,-308,14000,0,2000,508625,
2280,8816,14248,730,3066,-401,14000,0,2000,508627,
1904,8512,13544,414,2520,-878,14000,0,2000,508639,
1752,8576,13584,446,2412,-1058,14000,0,2000,508642,
1616,8480,13412,376,2238,-1138,14000,0,2000,508644,
684,7288,13088,340,1205,-1791,14000,0,2000,508656,
-164,6484,12772,366,111,-1937,14000,0,2000,508666,
-352,6148,12600,411,-160,-1973,14000,0,2000,508668,
-300,5988,12388,447,-426,-1957,14000,0,2000,508670,
-416,5836,12340,463,-772,-1929,14000,0,2000,508672,
-188,4920,11432,629,-2345,-1891,14000,0,2000,508685,
-12,4748,11044,624,-2602,-1828,14000,0,2000,508687,
-28,4644,10928,653,-2779,-1777,14000,0,2000,508689,
924,3712,9960,722,-3155,-1403,15000,0,1000,508702,
1068,3548,9712,711,-3142,-1326,15000,0,1000,508704,
1372,3516,9536,696,-3052,-1284,15000,0,1000,508706,
1636,3328,9476,699,-3026,-1168,15000,0,1000,508708,
2640,2628,8744,730,-1923,-660,15000,-1000,1000,508721,
2716,2528,8588,722,-1685,-466,15000,-1000,1000,508723,
2828,2472,8384,706,-1428,-309,15000,-1000,1000,508725,
3764,2284,7644,517,723,456,15000,-1000,1000,508737,
3752,2200,7420,370,1143,570,15000,-1000,1000,508740,
4076,2420,7336,331,1677,672,15000,-1000,1000,508742,
4132,2448,7252,322,2115,773,15000,-1000,1000,508744,
4412,2656,6772,-136,4840,1344,15000,-1000,1000,508757,
4464,2648,6948,-190,5316,1436,15000,0,1000,508759,
3740,2680,6564,-1408,13991,3412,14000,2000,4000,508798,
3564,2644,6488,-1459,14526,3522,14000,2000,4000,508800,
3512,2668,6356,-1494,14866,3639,14000,2000,4000,508803,
2528,2620,6192,-1865,16634,4085,14000,3000,5000,508815,
2404,2584,6264,-1896,16752,4125,14000,4000,5000,508817,
2412,2620,6192,-2012,16848,4171,14000,4000,5000,508819,
1436,2620,6200,-2518,17012,4253,14000,5000,6000,508832,
1336,2464,6304,-2611,16933,4267,14000,6000,6000,508834,
1176,2460,6336,-2761,16887,4270,14000,6000,6000,508836,
432,1984,6540,-3434,15981,4322,14000,7000,7000,508849,
328,1868,6484,-3617,15811,4316,14000,7000,7000,508851,
208,1764,6572,-3741,15543,4303,14000,8000,7000,508853,
-52,1264,7156,-4670,14080,4057,14000,9000,8000,508866,
-108,1076,7396,-4757,13759,4002,13000,9000,8000,508868,
-180,1112,7500,-4899,13429,3967,13000,9000,8000,508870,
-80,1272,8680,-5410,12107,3593,13000,10000,9000,508882,
-4,1284,8956,-5507,11918,3561,13000,10000,9000,508885,
40,1380,8972,-5557,11844,3458,13000,10000,9000,508887,
372,2236,9524,-5724,11430,3146,12000,11000,9000,508899,
452,2408,9544,-5773,11498,3069,12000,12000,9000,508901,
196,2744,9616,-6389,12534,1935,11000,13000,10000,508923,
-304,2688,9900,-6437,12740,1799,11000,14000,10000,508925,
-516,2580,9828,-6498,12869,1661,11000,14000,10000,508927,
-2568,1756,10980,-6906,13606,500,11000,15000,11000,508940,
-2980,1576,11404,-6864,13468,332,11000,15000,11000,508942,
-3352,1452,11820,-6838,13321,86,10000,15000,11000,508944,
-5856,928,13172,-6992,11572,-1427,10000,17000,11000,508957,
-6356,836,13428,-7062,11140,-1620,10000,17000,11000,508959,
-6476,944,13604,-7133,10772,-1863,10000,17000,11000,508961,
-7664,1400,15644,-7396,9177,-2763,9000,18000,11000,508973,
-7572,1484,15932,-7404,9084,-2929,9000,18000,11000,508976,
-7548,1776,16112,-7380,8944,-3070,8000,18000,11000,508978,
-6428,2984,16252,-7705,9269,-4222,8000,19000,10000,508990,
-6308,3292,16264,-7745,9392,-4387,8000,19000,10000,508992,
-6104,3552,16236,-7836,9577,-4599,7000,20000,10000,508995,
-6520,4220,16016,-8076,10682,-5781,6000,21000,10000,509007,
-6768,4148,15956,-8220,10899,-5985,6000,21000,10000,509009,
-7228,4192,16216,-8319,11131,-6202,6000,21000,10000,509012,
-9420,4328,17484,-8499,10810,-7199,5000,22000,9000,509024,
-10044,4352,17364,-8571,10556,-7252,5000,22000,9000,509026,
-12664,4092,21224,-8855,4998,-8472,2000,24000,7000,509054,
-12580,4064,21604,-8759,4545,-8559,2000,24000,7000,509057,
-12444,4024,21576,-8648,4095,-8601,2000,24000,7000,509059,
-11552,3728,21480,-8287,3125,-8746,1000,24000,6000,509071,
-11388,3664,21628,-8209,3147,-8682,1000,24000,6000,509073,
-11272,3496,21540,-8130,3271,-8682,0,24000,6000,509076,
-11380,2756,21468,-7799,4389,-8470,0,25000,5000,509088,
-11568,2608,21344,-7724,4671,-8392,0,25000,5000,509090,
-11740,2596,21188,-7676,4890,-8364,0,25000,4000,509092,
-12696,2912,21116,-7592,5094,-8029,-1000,25000,4000,509105,
-12712,3044,20944,-7574,4963,-7976,-1000,25000,3000,509107,
-12556,3196,20848,-7492,4636,-7882,-1000,26000,3000,509109,
-12592,3808,20640,-7551,2204,-7611,-2000,26000,3000,509122,
-12644,3712,20528,-7525,1661,-7473,-3000,26000,2000,509124,
-12688,3656,20552,-7552,1201,-7372,-3000,26000,2000,509126,
-12868,2892,20500,-7536,-1251,-6879,-4000,26000,2000,509138,
-12952,2932,20480,-7666,-1674,-6762,-4000,26000,1000,509141,
-13020,2592,20600,-7643,-2034,-6697,-4000,26000,1000,509143,
-12080,2204,20176,-7634,-3902,-5966,-5000,25000,1000,509155,
-11752,2072,20108,-7634,-4161,-5917,-5000,25000,1000,509158,
-10224,-1576,23464,-7507,-5314,-4452,-7000,24000,0,509189,
-8436,-776,23204,-6628,-5916,-4566,-7000,24000,0,509192,
-8028,1124,19652,-6361,-6962,-4905,-8000,23000,0,509194,
-14560,-476,23936,-5719,-7555,-3708,-8000,23000,359000,509206,
-14900,-836,23500,-5704,-6836,-3383,-8000,23000,359000,509208,
-15192,-1100,24140,-5420,-6167,-3136,-8000,23000,359000,509211,
-15456,-1188,26088,-4471,-4047,-247,-9000,22000,359000,509223,
-14956,-1488,26496,-4097,-3701,12,-9000,22000,359000,509225,
-14508,-1584,26468,-3864,-3364,168,-9000,22000,359000,509228,
-11912,-1352,26204,-2717,-2135,729,-9000,22000,359000,509240,
-11340,-1236,25976,-2527,-2092,875,-9000,22000,359000,509242,
-9528,-592,25100,-1560,-1443,1680,-9000,22000,0,509255,
-9356,-520,24956,-1409,-1313,1918,-9000,22000,0,509257,
-9228,-428,24564,-1295,-1088,2084,-9000,22000,0,509259,
-9432,-240,23256,-856,66,3241,-9000,22000,0,509272,
-9636,-236,22928,-848,183,3464,-9000,22000,0,509274,
-9648,-324,22884,-836,272,3618,-9000,22000,0,509276,
-9848,-348,22684,-832,258,3844,-9000,22000,0,509278,
-10084,-836,21736,-1067,-291,4855,-9000,22000,1000,509291,
-10056,-868,21776,-1072,-512,5014,-9000,22000,1000,509293,
-7608,-916,19480,-1858,-902,6727,-8000,22000,3000,509325,
-7376,-880,19308,-1871,-623,6728,-8000,22000,3000,509328,
-7104,-664,18988,-1974,-366,6673,-8000,22000,3000,509330,
-7144,-992,18308,-2486,1522,6656,-8000,22000,4000,509342,
-7316,-960,18368,-2675,1849,6733,-8000,22000,4000,509344,
-7608,-852,18492,-2789,2231,6893,-8000,22000,4000,509347,
-9072,-1784,19488,-2225,4193,8082,-8000,23000,5000,509359,
-9284,-1608,19136,-2269,4448,8314,-8000,23000,5000,509361,
-9480,-1428,18792,-2413,4698,8545,-8000,23000,5000,509363,
-9860,-820,19832,-1952,4984,9438,-8000,24000,6000,509376,
-10084,-952,19764,-1766,4953,9520,-8000,24000,6000,509378,
-10248,-860,19832,-1513,4799,9645,-8000,24000,6000,509380,
-11492,-152,19144,-1030,3406,10447,-8000,24000,7000,509393,
-11500,-164,19236,-898,3092,10558,-7000,24000,7000,509395,
-11504,24,19260,-823,2788,10678,-7000,25000,8000,509397,
-11164,688,18232,-451,1295,10961,-7000,25000,9000,509410,
-10984,792,18220,-457,974,10966,-7000,25000,9000,509412,
-10728,1004,17972,-410,772,11029,-7000,25000,9000,509414,
-10532,1524,16716,-437,45,11350,-6000,25000,10000,509427,
-10392,1516,16572,-501,46,11446,-6000,25000,11000,509429,
-9072,3320,15444,-2398,-2127,12050,-5000,25000,15000,509472,
-9228,3336,15524,-2423,-2283,12003,-5000,25000,16000,509474,
-9260,3220,15512,-2538,-2475,11998,-4000,25000,16000,509476,
-9276,3248,15904,-2699,-3850,11958,-4000,25000,17000,509489,
-9252,3284,16088,-2777,-4057,11878,-4000,25000,17000,509491,
-9156,3236,15984,-2824,-4313,11826,-4000,25000,18000,509493,
-9080,3104,15804,-2764,-5547,11562,-4000,24000,19000,509506,
-8892,3140,15716,-2772,-5750,11557,-3000,24000,19000,509508,
-8776,3252,15548,-2780,-5897,11540,-3000,24000,19000,509510,
-7896,3596,14976,-3256,-6321,11393,-3000,24000,21000,509523,
-7768,3660,14736,-3286,-6362,11390,-3000,23000,21000,509525,
-7428,3920,14364,-3421,-6400,11348,-3000,23000,21000,509527,
-6908,4208,14476,-3506,-7412,11429,-3000,23000,22000,509539,
-6884,4368,14288,-3609,-7658,11436,-3000,23000,23000,509542,
-7032,4616,14520,-4051,-8389,10912,-3000,22000,24000,509554,
-7068,4672,14500,-4096,-8520,10765,-2000,22000,24000,509556,
-7196,4608,14616,-4159,-8610,10681,-2000,22000,24000,509559,
-7448,4848,15580,-4306,-9453,10280,-2000,21000,25000,509571,
-7540,4920,15668,-4306,-9691,10260,-2000,21000,26000,509573,
-7584,4944,15756,-4265,-9910,10236,-2000,20000,26000,509575,
-8412,5900,17048,-3067,-12815,9678,-2000,16000,30000,509619,
-8456,5888,16972,-2961,-13194,9692,-2000,16000,30000,509622,
-8584,5848,16736,-2887,-13280,9793,-2000,16000,30000,509624,
-8648,5716,16932,-2062,-14502,10257,-1000,15000,31000,509636,
-8596,5764,16928,-1922,-14701,10278,-1000,14000,31000,509639,
-8672,5956,16804,-1774,-14887,10294,-1000,14000,31000,509641,
-8628,6368,17412,-313,-16117,10310,-1000,13000,32000,509653,
-8544,6436,17416,8,-16314,10286,-1000,13000,33000,509655,
-8416,6492,17548,336,-16472,10277,-1000,12000,33000,509658,
-7104,7264,17232,2252,-16998,10010,0,11000,34000,509670,
-6952,7464,16908,2610,-16971,9881,0,10000,34000,509672,
-6636,7628,16772,2907,-16929,9719,0,10000,34000,509674,
-4956,7924,15248,4507,-16366,8982,0,9000,35000,509687,
-4728,7668,15108,4752,-16189,8900,0,8000,35000,509689,
-4472,7516,15196,5064,-16011,8750,0,8000,35000,509691,
-2888,6296,13984,6232,-14951,7791,1000,7000,36000,509704,
-2588,6112,14108,6458,-14835,7576,1000,7000,36000,509706,
-2392,5868,14220,6685,-14659,7382,1000,6000,36000,509708,
-1392,5120,15232,7985,-13303,6636,2000,5000,37000,509721,
-768,4876,15260,8294,-13330,6516,2000,5000,37000,509723,
4132,1800,13196,11802,-4461,3865,6000,3000,38000,509759,
4132,1628,12856,11869,-3979,3721,6000,3000,38000,509761,
4240,1308,12672,11981,-3586,3569,6000,3000,38000,509764,
3640,-876,11356,12049,-3532,2852,7000,2000,38000,509776,
3508,-1112,11384,12110,-3723,2623,7000,2000,39000,509778,
3512,-1612,11368,12116,-3946,2428,7000,2000,39000,509781,
4324,-2792,10540,12168,-5148,160,9000,2000,38000,509793,
4336,-2832,10236,12091,-5392,-242,9000,1000,38000,509795,
4208,-2924,10000,12021,-5558,-615,9000,1000,38000,509797,
4316,-3496,9256,11377,-6577,-1555,10000,1000,38000,509810,
4644,-3704,9180,11201,-6843,-1583,10000,0,38000,509812,
5364,-3836,9168,10961,-6970,-1824,10000,0,38000,509814,
5588,-4884,9440,9659,-6924,-2297,11000,0,38000,509827,
5744,-4836,9400,9430,-6724,-2278,11000,0,38000,509829,
5908,-4852,9540,9153,-6495,-2282,11000,0,38000,509831,
7120,-5008,9420,7338,-4681,-2247,12000,0,37000,509844,
7216,-5220,9384,7048,-4213,-2147,12000,0,37000,509846,
7380,-5328,9488,6686,-3689,-2037,12000,-1000,37000,509848,
8460,-5396,10296,5121,-682,-1415,12000,-1000,37000,509860,
8688,-5188,10444,4839,-158,-1284,12000,-1000,37000,509863,
6356,-2456,12044,1413,-896,50,12000,-2000,37000,509907,
6644,-2156,12160,1236,-1200,-13,12000,-2000,37000,509909,
6908,-1736,12160,1141,-1486,-70,12000,-2000,37000,509911,
7328,244,12468,210,-2087,219,12000,-2000,37000,509924,
7528,476,12648,134,-1979,318,12000,-2000,37000,509926,
7696,704,12692,-29,-1869,336,12000,-2000,37000,509928,
7208,1984,13352,-789,-1575,169,12000,-3000,37000,509941,
7192,2136,13584,-894,-1682,153,12000,-3000,37000,509943,
7216,2396,13768,-1010,-1742,113,12000,-3000,37000,509945,
7424,3328,14492,-1480,-2220,-413,12000,-3000,37000,509957,
7268,3628,14628,-1586,-2174,-528,12000,-3000,37000,509960,
7232,3636,14796,-1673,-2175,-676,12000,-3000,37000,509962,
6116,3292,15736,-1800,-2221,-891,12000,-3000,37000,509974,
6092,3440,15696,-1796,-2230,-924,12000,-3000,37000,509977,
5784,3372,15724,-1778,-2369,-955,12000,-4000,37000,509979,
4528,3432,15564,-1760,-3292,-1071,11000,-4000,37000,509991,
4352,3324,15316,-1678,-3493,-1117,11000,-4000,36000,509993,
4144,3360,15044,-1723,-3698,-1091,11000,-4000,36000,509996,
4028,3052,14976,-1696,-4719,-1060,11000,-5000,36000,510008,
4164,3156,14880,-1703,-4776,-995,11000,-5000,36000,510010,
4328,3780,14836,-1948,55,737,11000,-5000,36000,510053,
4296,3892,14628,-1951,229,743,10000,-5000,36000,510055,
4316,4104,14700,-1988,397,720,10000,-5000,36000,510057,
4804,4972,15032,-1918,1017,461,10000,-5000,37000,510070,
4816,5056,15104,-1891,1099,359,10000,-5000,37000,510072,
4688,5200,15000,-1825,1129,232,10000,-5000,37000,510074,
4780,5188,15228,-1663,1130,-103,10000,-5000,37000,510087,
4848,5272,15032,-1552,1153,-144,10000,-5000,37000,510089,
4764,5060,15092,-1498,1111,-162,10000,-5000,37000,510091,
