Ax,Ay,Az,Gx,Gy,Gz,Roll,Pitch,Yaw,Timestamp,Target
8892,5340,16408,12404,-896,-388,7000,-18000,196000,476434,
8800,5432,16220,12256,-441,-440,7000,-18000,196000,476437,
7800,5836,15472,11787,1157,-836,9000,-18000,196000,476449,
7792,5780,15392,11653,1369,-926,9000,-18000,196000,476451,
7660,5804,15284,11611,1542,-1017,9000,-18000,196000,476453,
6988,6336,14108,10756,1828,-1427,10000,-18000,196000,476466,
6876,6316,14040,10660,1888,-1499,10000,-18000,196000,476468,
5780,6640,11636,7991,668,-2011,13000,-18000,196000,476501,
5744,6668,11628,7820,589,-2003,13000,-18000,195000,476503,
5748,6704,11384,7710,409,-2071,13000,-18000,195000,476505,
5732,6448,10740,6850,-457,-2095,14000,-18000,195000,476518,
5700,6520,10616,6799,-611,-2118,14000,-18000,195000,476520,
5672,6440,10688,6639,-824,-2114,14000,-18000,195000,476522,
5756,6480,9972,6057,-1685,-2167,15000,-18000,195000,476535,
5888,6564,9916,5884,-1841,-2175,15000,-18000,195000,476537,
5868,6584,9856,5771,-1926,-2245,15000,-18000,195000,476539,
5884,6504,9668,5080,-2535,-2818,16000,-18000,194000,476552,
5944,6420,9544,4950,-2638,-2955,16000,-18000,194000,476554,
5936,6516,9480,4849,-2735,-3174,16000,-18000,194000,476556,
6052,6376,9256,4030,-3421,-4055,17000,-18000,194000,476569,
6084,6236,9236,3955,-3497,-4217,17000,-18000,194000,476571,
6020,6164,9252,3827,-3608,-4345,17000,-19000,193000,476573,
6220,5872,8992,3167,-3793,-5047,18000,-19000,193000,476585,
6180,5864,9028,3145,-3936,-5119,18000,-19000,193000,476588,
6352,5788,8896,3001,-4019,-5214,18000,-19000,193000,476590,
6844,5692,9000,2582,-4520,-5626,19000,-19000,192000,476602,
6804,5524,9008,2406,-4546,-5687,19000,-19000,192000,476604,
6896,5020,8828,92,-2842,-6697,20000,-20000,190000,476641,
6924,5068,8980,-31,-2772,-6807,20000,-20000,189000,476643,
6920,5012,8968,-118,-2726,-6884,20000,-20000,189000,476645,
6700,4720,9144,-859,-2350,-7127,20000,-20000,189000,476658,
6744,4724,9108,-981,-2267,-7228,20000,-20000,188000,476660,
6708,4644,9092,-1088,-2177,-7191,20000,-20000,188000,476662,
6456,4452,9396,-1806,-1746,-7461,20000,-20000,187000,476675,
6320,4436,9568,-1942,-1763,-7423,20000,-20000,187000,476677,
6264,4420,9664,-2073,-1692,-7453,20000,-20000,187000,476679,
5920,3828,9704,-2785,-1608,-7432,20000,-20000,186000,476692,
5884,3804,9628,-2923,-1606,-7406,20000,-20000,186000,476694,
5860,3856,9532,-3013,-1564,-7418,20000,-20000,186000,476696,
6052,3568,9544,-3219,-1966,-7247,20000,-20000,185000,476708,
6060,3636,9432,-3279,-2052,-7266,20000,-20000,185000,476711,
6088,3644,9604,-3266,-2193,-7207,20000,-20000,185000,476713,
6268,3824,9540,-3518,-2597,-7118,20000,-20000,184000,476725,
6308,3840,9528,-3533,-2616,-7020,20000,-20000,184000,476728,
6084,3784,9964,-3953,-2439,-6881,20000,-20000,183000,476740,
6188,3808,10008,-3987,-2391,-6787,20000,-20000,183000,476742,
6180,3772,10132,-4065,-2376,-6713,20000,-20000,183000,476745,
5920,4260,11252,-3257,-5121,-4353,19000,-22000,180000,476807,
6040,4428,11380,-3214,-5223,-4207,19000,-22000,180000,476809,
5988,4324,11324,-3179,-5358,-4104,19000,-22000,180000,476812,
6264,4496,11672,-2999,-5849,-3522,19000,-22000,179000,476824,
6468,4716,11824,-2936,-5917,-3449,19000,-22000,179000,476826,
6624,4640,11992,-2911,-6003,-3309,19000,-22000,179000,476829,
6972,4816,11928,-2565,-6213,-2897,19000,-23000,179000,476841,
7140,4736,11740,-2580,-6217,-2872,19000,-23000,179000,476843,
7328,4900,12012,-2547,-6191,-2801,19000,-23000,179000,476845,
7564,4960,11632,-2253,-5893,-2426,19000,-23000,178000,476858,
7656,5004,11768,-2205,-5830,-2385,19000,-24000,178000,476860,
8108,5344,11636,-1954,-5182,-1961,19000,-24000,178000,476872,
8104,5360,11796,-1970,-5010,-1889,19000,-24000,178000,476875,
8176,5432,11808,-1934,-4808,-1835,19000,-24000,178000,476877,
8428,5856,12144,-1947,-3863,-1533,19000,-25000,177000,476889,
8384,5980,12132,-1917,-3620,-1505,19000,-25000,177000,476892,
8260,5868,12308,-1917,-3492,-1492,19000,-25000,177000,476894,
7964,6156,12568,-1935,-2445,-1461,19000,-25000,177000,476906,
7924,6112,12796,-1949,-2329,-1436,19000,-25000,177000,476908,
7496,6152,13028,-1961,-1665,-1338,19000,-25000,177000,476921,
7452,5996,12924,-1918,-1611,-1268,19000,-25000,177000,476923,
7448,5960,12916,-1953,-1525,-1255,19000,-25000,177000,476925,
7364,6152,12828,-1325,-483,-38,19000,-25000,176000,476971,
7196,6260,12940,-1274,-484,7,19000,-25000,176000,476973,
7204,6152,12856,-1320,-438,28,19000,-25000,176000,476975,
7012,6412,13004,-1306,-346,78,19000,-25000,176000,476988,
6992,6492,13048,-1357,-371,92,19000,-25000,176000,476990,
6972,6452,13152,-1393,-397,114,19000,-25000,176000,476992,
6832,6384,13252,-1425,-589,281,18000,-25000,176000,477004,
6744,6216,13180,-1431,-571,289,18000,-25000,176000,477007,
6732,6228,13280,-1397,-630,309,18000,-25000,176000,477009,
6748,6032,13348,-1402,-812,481,18000,-25000,176000,477021,
6720,6176,13264,-1345,-887,496,18000,-25000,176000,477023,
6664,6076,13508,-1336,-930,525,18000,-25000,176000,477025,
6572,6028,13600,-1157,-1291,740,18000,-26000,176000,477038,
6548,6076,13480,-1188,-1398,801,18000,-26000,176000,477040,
6536,6008,13556,-1162,-1454,868,18000,-26000,176000,477042,
6488,6388,13568,-1146,-1947,1154,18000,-26000,176000,477055,
6588,6292,13428,-1186,-2006,1172,18000,-26000,176000,477057,
6584,6436,13408,-1142,-2099,1207,18000,-26000,176000,477059,
7112,6476,13584,-1192,-2671,1390,18000,-26000,176000,477071,
7260,6752,13628,-1180,-2798,1392,18000,-26000,176000,477074,
8344,6108,13972,-1343,-2444,1159,18000,-27000,177000,477120,
8400,6124,14148,-1347,-2379,1151,17000,-27000,177000,477122,
8476,6240,14168,-1284,-2334,1182,17000,-27000,177000,477124,
8580,6404,14312,-1248,-2107,1251,17000,-28000,177000,477137,
8572,6396,14316,-1246,-2070,1213,17000,-28000,177000,477139,
8616,6396,14412,-1270,-2042,1218,17000,-28000,177000,477141,
8888,6492,14568,-1308,-1844,986,17000,-28000,177000,477153,
8712,6336,14448,-1346,-1769,964,17000,-28000,177000,477156,
8756,6228,14584,-1342,-1756,898,17000,-28000,177000,477158,
8972,6180,14472,-1322,-1600,716,17000,-28000,177000,477170,
8932,6072,14536,-1287,-1538,681,17000,-28000,177000,477173,
8980,5992,14568,-1218,-1524,654,17000,-28000,177000,477175,
8932,5884,14848,-1046,-1269,644,17000,-28000,177000,477187,
8904,5892,14596,-985,-1226,605,17000,-28000,177000,477189,
8908,5800,14716,-964,-1227,643,17000,-28000,177000,477192,
8984,6024,14812,-724,-1054,575,17000,-28000,177000,477204,
9024,6028,14860,-681,-1096,619,17000,-28000,177000,477206,
9100,6112,14904,-683,-1062,633,17000,-28000,177000,477208,
9036,6240,14696,-521,-882,564,17000,-29000,177000,477221,
9272,6296,14744,-593,-789,533,17000,-29000,177000,477223,
9140,6168,14648,-569,-692,512,17000,-29000,177000,477225,
9260,6108,14824,-588,-370,263,17000,-29000,177000,477238,
9188,5768,14572,-414,-46,125,17000,-29000,177000,477248,
9296,5820,14388,-432,29,82,17000,-29000,177000,477251,
9152,5828,14604,-409,111,48,17000,-29000,177000,477253,
9000,5864,14520,-210,420,115,17000,-29000,177000,477265,
9048,5792,14444,-189,500,153,17000,-29000,177000,477268,
8856,5872,14616,-112,536,182,17000,-29000,177000,477270,
8860,6092,14496,-113,799,275,17000,-29000,177000,477282,
8704,6140,14504,-95,789,218,17000,-29000,177000,477284,
8764,6040,14360,-142,830,247,17000,-29000,177000,477287,
8596,6024,14508,-170,892,77,17000,-28000,177000,477299,
8440,5980,14460,-222,886,54,17000,-28000,177000,477301,
8452,5912,14340,-238,927,-15,17000,-28000,177000,477303,
8124,5708,14412,-133,752,-103,17000,-28000,177000,477316,
7968,5540,14284,-167,719,-106,17000,-28000,177000,477318,
8036,5676,14324,-52,645,-80,17000,-28000,177000,477320,
8088,5716,14524,135,337,136,17000,-28000,177000,477333,
8120,5840,14448,211,219,206,17000,-28000,177000,477335,
8184,5720,14332,189,197,283,17000,-28000,177000,477337,
8420,6096,14336,261,112,418,17000,-28000,177000,477350,
8460,6240,14288,205,91,436,17000,-28000,177000,477352,
8372,6068,13976,255,352,118,17000,-28000,177000,477398,
8404,6036,13960,285,311,187,17000,-28000,177000,477401,
8356,6180,13896,258,322,224,17000,-28000,177000,477403,
8440,6296,13956,349,156,301,17000,-28000,177000,477415,
8476,6336,13908,318,129,317,17000,-28000,177000,477418,
8504,6376,13888,312,123,298,17000,-28000,177000,477420,
8696,6424,13552,229,210,210,17000,-28000,177000,477432,
8804,6404,13552,182,267,158,17000,-28000,177000,477434,
9000,6428,13372,219,277,139,17000,-28000,177000,477437,
8972,6284,13156,80,640,-109,17000,-28000,177000,477449,
9040,6272,13020,124,706,-135,17000,-28000,177000,477451,
8948,6160,13120,58,758,-146,17000,-28000,177000,477453,
8820,5984,13124,53,1216,-217,17000,-28000,177000,477466,
8760,6036,13036,4,1273,-214,17000,-28000,177000,477468,
8692,6000,13036,9,1370,-232,17000,-28000,177000,477470,
8416,6284,13052,-6,1466,-58,17000,-28000,177000,477483,
8412,6212,13148,-11,1460,-58,17000,-28000,177000,477485,
8344,6280,13348,37,1447,-47,17000,-28000,177000,477487,
8272,6464,13196,-148,1409,-60,17000,-28000,177000,477500,
8224,6408,13160,-137,1340,-75,17000,-28000,177000,477502,
8064,6548,13156,-15,288,186,18000,-28000,177000,477552,
8068,6576,13272,-76,240,210,18000,-28000,177000,477554,
8164,6512,13220,-110,205,214,18000,-28000,177000,477557,
8016,6580,13228,-194,-3,45,18000,-28000,177000,477569,
8068,6564,13096,-256,-32,23,18000,-28000,177000,477571,
8088,6556,13232,-203,-54,-71,18000,-28000,177000,477573,
8044,6344,13244,-230,-231,-179,18000,-28000,177000,477586,
7988,6340,13116,-235,-241,-170,18000,-28000,177000,477588,
8028,6352,13120,-205,-289,-120,18000,-28000,177000,477590,
8140,6264,13236,-143,-304,144,18000,-28000,177000,477603,
8112,6296,13264,-105,-321,227,18000,-28000,177000,477605,
8136,6364,13124,-108,-319,269,18000,-28000,177000,477607,
8316,6544,13328,-64,-334,388,18000,-28000,177000,477620,
8352,6728,13364,-89,-300,376,18000,-28000,177000,477622,
8348,6708,13392,-92,-294,369,18000,-28000,177000,477624,
8516,6784,13212,-197,-236,241,18000,-28000,177000,477636,
8580,6776,13232,-192,-180,201,18000,-28000,177000,477639,
8492,6792,13116,-193,-169,186,18000,-28000,177000,477641,
8616,6736,13032,-226,71,4,18000,-28000,177000,477653,
8476,6540,13036,-201,57,-1,18000,-28000,177000,477655,
8528,6476,13012,-214,120,24,18000,-28000,177000,477658,
8436,6880,12556,-682,1007,-27,18000,-28000,177000,477697,
8512,6596,12544,-753,975,-68,18000,-28000,177000,477699,
8432,6656,12572,-871,1039,-142,18000,-28000,177000,477702,
8572,6260,12620,-1167,1187,-604,18000,-27000,177000,477714,
8528,6172,12536,-1215,1250,-666,18000,-27000,177000,477716,
8544,5892,12628,-1272,1285,-784,18000,-27000,177000,477718,
8204,5756,12728,-1323,1377,-823,18000,-27000,177000,477731,
8212,5808,13028,-1351,1421,-878,18000,-27000,177000,477733,
8128,5724,13052,-1370,1391,-821,18000,-27000,177000,477735,
7964,5988,13216,-1390,1214,-699,17000,-27000,177000,477748,
7992,6040,13416,-1338,1108,-697,17000,-27000,177000,477750,
7936,5992,13524,-1373,1053,-642,17000,-27000,177000,477752,
7788,6488,13768,-1465,620,-654,17000,-27000,177000,477765,
7904,6492,13924,-1526,530,-656,17000,-27000,176000,477767,
7856,6436,13920,-1580,456,-716,17000,-27000,176000,477769,
7624,6400,13952,-1712,-147,-852,17000,-27000,176000,477781,
7732,6448,14036,-1750,-231,-893,17000,-27000,176000,477784,
7680,6408,14164,-1685,-366,-876,17000,-27000,176000,477786,
7668,5952,14172,-1599,-967,-881,17000,-27000,176000,477798,
7692,5968,14188,-1483,-1067,-871,17000,-27000,176000,477801,
8560,5812,14168,-672,-1475,-171,17000,-27000,176000,477832,
8564,5972,14112,-615,-1401,-153,17000,-27000,176000,477834,
8660,6144,14004,-551,-1370,-110,17000,-27000,176000,477836,
8856,6328,14072,-333,-877,-125,17000,-28000,176000,477849,
8864,6408,13980,-316,-833,-107,17000,-28000,176000,477851,
8800,6380,14168,-311,-700,-136,17000,-28000,176000,477853,
8648,6376,14048,-199,-166,-108,17000,-28000,176000,477866,
8652,6188,14232,-187,-41,-141,17000,-28000,176000,477868,
8628,6288,14160,-115,33,-131,17000,-28000,176000,477870,
8388,5840,14036,13,485,114,17000,-28000,176000,477883,
8356,5896,14012,61,532,149,17000,-28000,176000,477885,
8344,5828,14060,102,570,239,17000,-28000,176000,477887,
8340,5868,14144,360,914,620,17000,-27000,176000,477899,
8280,5928,14000,345,999,670,17000,-27000,176000,477902,
8440,5880,13884,368,1057,704,17000,-27000,176000,477904,
8488,6100,13536,525,1342,839,17000,-27000,176000,477916,
8596,6080,13700,560,1380,823,17000,-27000,176000,477919,
8500,6012,13484,609,1417,832,17000,-27000,176000,477921,
8604,6176,13428,562,1774,764,17000,-27000,176000,477933,
8496,6156,13328,565,1841,750,17000,-27000,176000,477935,
8600,6200,13376,540,1888,749,17000,-27000,176000,477938,
7784,6324,13420,319,1813,461,17000,-27000,177000,477976,
7852,6316,13492,344,1756,418,17000,-27000,177000,477978,
7768,6324,13492,272,1631,426,17000,-27000,177000,477980,
7716,6280,13284,230,1240,388,17000,-27000,177000,477993,
7628,6296,13264,213,1155,372,18000,-27000,177000,477995,
7808,6332,13308,162,1097,406,18000,-27000,177000,477997,
7784,6400,13160,139,713,458,18000,-26000,177000,478009,
7812,6368,13272,124,710,506,18000,-26000,177000,478012,
7912,6396,13180,83,692,504,18000,-26000,177000,478014,
7928,6528,13272,-18,532,588,18000,-26000,177000,478026,
8012,6656,13224,4,531,602,18000,-26000,177000,478028,
7936,6568,13196,-35,468,603,18000,-26000,177000,478031,
7916,6508,13356,-85,364,459,18000,-26000,177000,478043,
8036,6560,13500,-129,336,469,18000,-26000,177000,478045,
7928,6592,13360,-166,334,450,18000,-26000,177000,478048,
7852,6404,13244,-243,217,437,18000,-26000,177000,478060,
7900,6396,13464,-270,224,424,18000,-26000,177000,478062,
7892,6456,13524,-229,194,437,18000,-26000,177000,478064,
7788,6412,13476,-288,126,578,18000,-26000,177000,478077,
7776,6320,13540,-250,74,599,18000,-26000,177000,478079,
7896,6280,13480,-260,31,626,18000,-26000,177000,478081,
8028,6404,13572,-302,-1025,696,18000,-27000,177000,478136,
8036,6364,13616,-267,-1068,699,18000,-27000,177000,478138,
8108,6424,13584,-321,-1047,736,18000,-27000,177000,478140,
8248,6536,13720,-311,-986,729,18000,-27000,177000,478153,
8236,6632,13780,-326,-988,753,18000,-27000,177000,478155,
8308,6596,13872,-342,-933,717,18000,-27000,177000,478157,
8264,6492,13896,-388,-918,669,18000,-27000,177000,478170,
8232,6624,13968,-407,-895,639,18000,-27000,177000,478172,
8232,6592,13776,-381,-893,617,18000,-27000,177000,478174,
8192,6512,13916,-400,-939,567,18000,-27000,177000,478186,
8396,6472,13932,-336,-932,565,18000,-27000,177000,478189,
8364,6444,14032,-376,-965,590,18000,-27000,177000,478191,
8604,6392,13748,-287,-807,566,18000,-28000,177000,478203,
8508,6388,13772,-304,-825,593,18000,-28000,177000,478205,
8612,6388,13916,-315,-765,568,18000,-28000,177000,478208,
8628,6524,13712,-201,-574,523,18000,-28000,177000,478220,
8628,6472,13860,-250,-551,535,18000,-28000,177000,478222,
8780,6456,13860,-223,-496,509,18000,-28000,177000,478225,
9060,6424,13652,-227,-412,389,18000,-28000,177000,478237,
9028,6428,13672,-205,-380,320,18000,-28000,177000,478239,
8732,6740,13096,-353,447,-535,18000,-28000,177000,478286,
8752,6676,13152,-387,414,-582,18000,-28000,177000,478288,
8592,6608,13252,-382,368,-603,18000,-28000,177000,478290,
8496,6544,13108,-544,-149,-676,18000,-28000,177000,478303,
8484,6344,13148,-507,-210,-720,18000,-28000,177000,478305,
8472,6388,13220,-530,-354,-722,18000,-28000,177000,478307,
8680,6112,12880,-491,-641,-695,18000,-28000,177000,478320,
8756,6064,12940,-519,-679,-667,18000,-28000,177000,478322,
8836,6012,12872,-501,-655,-671,18000,-28000,177000,478324,
9052,6088,12504,-382,-532,-517,18000,-28000,176000,478336,
9156,6012,12676,-420,-460,-498,18000,-28000,176000,478338,
9088,6176,12600,-370,-340,-477,18000,-28000,176000,478341,
9112,6384,12548,-480,242,-294,18000,-28000,176000,478353,
9204,6444,12520,-457,353,-316,18000,-28000,176000,478355,
9044,6620,12508,-529,405,-254,18000,-28000,176000,478358,
8888,6736,12428,-744,982,-315,18000,-28000,176000,478370,
8792,6744,12608,-829,1015,-302,18000,-28000,176000,478372,
8652,6764,12648,-895,1111,-310,18000,-28000,176000,478374,
8400,6528,12720,-1173,1175,-410,18000,-28000,176000,478387,
8304,6620,12728,-1214,1170,-404,18000,-28000,176000,478389,
7696,6376,13292,-1426,-350,-199,18000,-28000,176000,478428,
7592,6420,13348,-1474,-495,-208,18000,-28000,176000,478431,
7672,6332,13396,-1509,-596,-236,18000,-28000,176000,478433,
7632,6380,13672,-1508,-1305,-293,17000,-28000,176000,478445,
7604,6280,13740,-1535,-1374,-303,17000,-28000,176000,478447,
7728,6336,13776,-1458,-1490,-306,17000,-28000,176000,478450,
8068,6140,13868,-1466,-1881,-231,17000,-28000,176000,478462,
8080,6216,13868,-1381,-1967,-185,17000,-28000,176000,478464,
8172,6072,13760,-1398,-1959,-155,17000,-28000,176000,478467,
8644,6116,13944,-1228,-1791,-136,17000,-28000,176000,478479,
8684,6120,13944,-1181,-1732,-132,17000,-28000,176000,478481,
8828,6068,13944,-1165,-1641,-149,17000,-28000,176000,478483,
8740,6128,14072,-971,-1048,-226,17000,-28000,176000,478496,
8720,6096,13980,-953,-948,-271,17000,-28000,176000,478498,
8828,6112,14076,-891,-825,-300,17000,-28000,176000,478500,
8548,6156,13880,-799,-355,-283,17000,-28000,176000,478513,
8528,6156,14004,-770,-262,-298,17000,-28000,176000,478515,
8588,6064,13948,-764,-207,-274,17000,-28000,176000,478517,
8556,5916,13884,-638,365,-259,17000,-28000,175000,478530,
8612,5808,13844,-641,385,-214,17000,-28000,175000,478532,
8660,5888,13788,-628,513,-193,17000,-28000,175000,478534,
8104,5840,13980,-138,1771,146,17000,-28000,176000,478565,
8272,5848,14036,-64,1788,188,17000,-28000,176000,478567,
8136,5980,13860,-77,1814,240,17000,-28000,176000,478569,
8080,6220,13788,41,1923,515,17000,-28000,176000,478581,
7908,6276,13988,-17,1910,538,17000,-28000,176000,478584,
7936,6312,13944,-9,1939,559,17000,-28000,176000,478586,
7820,6396,13940,-41,1692,572,17000,-28000,176000,478598,
7968,6448,13816,-68,1708,568,17000,-28000,176000,478600,
7936,6348,13864,3,1617,583,17000,-27000,176000,478603,
7816,6188,13752,5,1356,641,17000,-27000,176000,478615,
7852,6192,13720,75,1224,661,17000,-27000,176000,478617,
7800,6212,13680,29,1198,748,17000,-27000,176000,478620,
7668,6204,13600,155,834,943,17000,-27000,176000,478632,
7788,6156,13680,145,792,993,17000,-27000,176000,478634,
7700,6304,13600,139,722,1020,17000,-27000,176000,478636,
7760,6348,13660,154,177,1080,17000,-27000,176000,478649,
7844,6524,13676,129,139,1049,17000,-27000,176000,478651,
7892,6400,13884,179,12,1078,17000,-27000,176000,478653,
7932,6416,13724,54,-384,966,17000,-27000,176000,478666,
7896,6336,13712,97,-486,978,17000,-27000,176000,478668,
8448,6168,13596,165,-934,1218,17000,-28000,177000,478708,
8516,6200,13592,200,-905,1202,17000,-28000,177000,478711,
8500,6320,13516,207,-953,1217,17000,-28000,177000,478713,
8768,6368,13556,214,-787,1223,17000,-28000,177000,478725,
8740,6420,13536,186,-770,1244,17000,-28000,177000,478727,
8936,6460,13660,157,-693,1234,17000,-28000,177000,478730,
8992,6412,13596,96,-317,1158,17000,-28000,177000,478742,
8968,6408,13488,92,-254,1158,17000,-28000,177000,478744,
8940,6328,13516,77,-172,1128,17000,-28000,177000,478747,
8960,6352,13604,-20,81,990,17000,-28000,177000,478759,
8896,6348,13448,33,136,959,17000,-28000,177000,478761,
8828,6188,13476,4,89,978,17000,-28000,177000,478763,
8688,6184,13656,77,86,923,17000,-28000,177000,478776,
8584,6296,13720,78,66,951,17000,-28000,177000,478778,
8660,6208,13392,81,73,955,17000,-28000,177000,478780,
8676,6240,13528,58,62,943,17000,-28000,177000,478782,
8644,6340,13340,94,-128,1012,17000,-28000,177000,478795,
8812,6376,13352,92,-109,1012,17000,-28000,177000,478797,
8792,6296,13528,121,-177,1017,17000,-28000,177000,478799,
8844,6384,13544,75,-150,894,17000,-28000,177000,478812,
8952,6284,13516,-3,-51,720,17000,-28000,177000,478852,
8936,6360,13596,-1,-70,719,17000,-28000,177000,478854,
8960,6392,13560,26,-63,681,17000,-28000,177000,478857,
8932,6516,13428,-17,-24,625,17000,-29000,178000,478869,
8800,6468,13516,24,-84,623,17000,-29000,178000,478871,
9036,6504,13388,-29,-74,579,17000,-29000,178000,478873,
8904,6488,13360,35,-67,463,17000,-29000,178000,478886,
8844,6352,13400,15,-111,439,17000,-29000,178000,478888,
8852,6496,13368,-34,-96,459,17000,-29000,178000,478890,
8760,6404,13240,0,-239,468,17000,-29000,178000,478903,
8816,6448,13396,-17,-247,450,17000,-29000,178000,478905,
8796,6428,13296,17,-287,447,17000,-29000,178000,478907,
8884,6372,13268,-60,-326,502,17000,-29000,178000,478919,
8940,6460,13300,-21,-351,503,17000,-29000,178000,478922,
8848,6488,13356,-59,-354,516,17000,-29000,178000,478924,
9096,6480,13176,-4,-401,426,17000,-29000,178000,478936,
9024,6464,13140,-48,-369,412,17000,-29000,178000,478938,
9148,6448,13108,-107,-303,362,17000,-29000,178000,478941,
9140,6528,13108,-185,-126,253,17000,-29000,178000,478953,
9136,6452,13216,-193,-12,225,17000,-29000,178000,478955,
8964,6352,13140,-183,212,287,18000,-29000,178000,478999,
8820,6340,13152,-172,160,315,18000,-29000,178000,479002,
8860,6328,13092,-253,194,312,18000,-29000,178000,479004,
8912,6484,13112,-219,162,242,18000,-29000,178000,479016,
8772,6372,13188,-258,181,245,18000,-29000,178000,479019,
8920,6500,13104,-225,225,209,18000,-29000,178000,479021,
8864,6280,12928,-302,158,169,18000,-29000,178000,479033,
8756,6296,13072,-269,200,162,18000,-29000,178000,479036,
8772,6268,13020,-233,144,163,18000,-29000,178000,479038,
8952,6224,13208,-181,69,209,18000,-29000,178000,479050,
8916,6168,13148,-167,40,255,18000,-29000,178000,479052,
8884,6280,13076,-190,27,268,18000,-29000,178000,479055,
9108,6356,13172,-119,-9,316,18000,-29000,178000,479067,
9128,6336,13032,-136,-21,303,18000,-29000,178000,479069,
9144,6432,13056,-134,60,298,18000,-29000,178000,479071,
9136,6352,12988,-173,150,183,18000,-29000,178000,479084,
9284,6416,13088,-179,205,122,18000,-29000,178000,479086,
9116,6324,13012,-163,214,106,18000,-29000,178000,479088,
9148,6352,12888,-233,378,-4,18000,-29000,178000,479101,
9152,6232,12908,-188,353,33,18000,-29000,178000,479103,
8968,6400,12744,-144,644,265,18000,-29000,178000,479140,
8988,6436,12728,-150,695,270,18000,-29000,178000,479142,
9084,6352,12684,-168,720,235,18000,-29000,178000,479144,
8876,6388,12700,-274,795,160,18000,-29000,178000,479156,
8940,6236,12640,-228,791,140,18000,-29000,178000,479159,
8852,6300,12556,-256,776,138,18000,-29000,178000,479161,
8720,6276,12504,-278,893,143,18000,-29000,178000,479173,
8780,6216,12460,-324,900,183,18000,-29000,178000,479176,
8860,6188,12404,-345,950,161,18000,-29000,178000,479178,
8908,6056,12324,-342,1116,240,18000,-29000,178000,479190,
8912,6152,12188,-358,1152,232,18000,-29000,178000,479192,
8796,6136,12244,-308,1214,260,18000,-29000,178000,479195,
8924,6044,12128,-413,1443,266,18000,-28000,178000,479207,
8844,6140,12060,-373,1421,289,18000,-28000,178000,479209,
8888,6132,12000,-407,1472,325,18000,-28000,178000,479211,
8936,6244,11836,-569,1771,352,18000,-28000,178000,479224,
9000,6216,11672,-584,1785,364,18000,-28000,178000,479226,
8956,6248,11600,-614,1828,344,18000,-28000,178000,479228,
9164,6320,11420,-829,2140,326,18000,-28000,178000,479241,
9120,6424,11272,-911,2262,319,17000,-28000,178000,479243,
9232,6408,11236,-935,2350,256,17000,-28000,178000,479245,
9252,5848,10312,-1736,3626,-231,17000,-27000,178000,479273,
9172,5812,10096,-1806,3761,-202,17000,-27000,178000,479276,
9344,5824,10000,-1947,3938,-219,17000,-27000,178000,479278,
9068,5372,9044,-2421,4769,-170,17000,-27000,178000,479290,
8924,5156,8932,-2498,4999,-142,17000,-27000,178000,479292,
8888,5104,8712,-2594,5154,-121,17000,-27000,178000,479295,
8344,4452,8308,-3200,5926,42,16000,-26000,179000,479307,
8212,4392,8056,-3333,6076,66,16000,-26000,179000,479309,
8160,4308,8020,-3422,6176,144,16000,-26000,179000,479312,
7712,3584,7220,-4140,6999,448,16000,-26000,179000,479324,
7572,3516,7160,-4256,7084,545,16000,-26000,179000,479326,
7420,3388,6996,-4368,7234,629,16000,-26000,179000,479328,
7124,2608,6236,-4866,7895,1186,15000,-25000,179000,479341,
6976,2688,6136,-4999,7998,1273,15000,-25000,179000,479343,
6904,2504,6020,-5107,8109,1385,15000,-25000,179000,479345,
6756,2232,5684,-5512,8256,2233,14000,-24000,180000,479358,
6652,2048,5792,-5589,8301,2381,14000,-24000,180000,479360,
6736,2084,5720,-5645,8247,2540,14000,-24000,180000,479362,
6404,1820,5832,-6199,8373,3426,13000,-23000,181000,479374,
6404,1816,5880,-6307,8344,3604,13000,-23000,181000,479377,
4372,-300,5752,-8743,7222,5685,9000,-22000,183000,479420,
4196,-348,6004,-8771,6945,5810,9000,-22000,183000,479422,
4096,-376,6092,-8820,6651,5937,8000,-22000,184000,479424,
3872,-512,6820,-8700,4709,6583,7000,-21000,184000,479437,
3916,-376,6924,-8717,4405,6695,7000,-21000,185000,479439,
4008,-340,7116,-8652,3971,6771,7000,-21000,185000,479441,
4280,148,7496,-8785,1860,7184,6000,-21000,185000,479453,
4312,232,7812,-8814,1426,7191,5000,-21000,186000,479455,
4580,444,7604,-8878,1070,7232,5000,-21000,186000,479458,
5124,784,7692,-9434,-288,7294,4000,-21000,186000,479470,
5228,700,7736,-9631,-347,7307,4000,-21000,187000,479472,
5296,656,7708,-9827,-345,7280,4000,-21000,187000,479475,
5872,580,8432,-10927,118,7151,2000,-21000,187000,479487,
5888,484,8612,-11165,300,7113,2000,-21000,188000,479489,
5940,436,9048,-11308,436,7082,2000,-21000,188000,479491,
5932,280,10944,-12019,1513,6891,0,-21000,188000,479504,
5824,240,11036,-12075,1682,6876,0,-21000,189000,479506,
5808,140,11188,-12127,1894,6824,0,-21000,189000,479508,
5352,240,12372,-12519,2809,6758,0,-21000,189000,479521,
5468,248,12512,-12615,2881,6780,-1000,-21000,189000,479523,
5396,196,12700,-12699,2962,6791,-1000,-21000,190000,479525,
8900,-428,19040,-12886,4063,7142,-6000,-20000,192000,479565,
9160,-372,19524,-12738,4400,7086,-6000,-20000,192000,479567,
9384,-416,20044,-12632,4871,7063,-6000,-19000,192000,479569,
9676,48,22288,-11776,8312,6468,-7000,-19000,193000,479582,
9748,92,22308,-11722,9091,6341,-8000,-18000,193000,479584,
9664,192,22284,-11627,9773,6163,-8000,-18000,193000,479586,
8360,948,23012,-11406,13021,5244,-9000,-17000,193000,479598,
7888,948,23448,-11292,13334,5052,-9000,-17000,193000,479601,
7496,892,23876,-11193,13670,4930,-9000,-17000,193000,479603,
5580,500,25940,-10452,14653,3815,-10000,-15000,193000,479615,
5328,288,26384,-10320,14564,3602,-10000,-15000,193000,479617,
4924,140,26860,-10116,14466,3351,-11000,-15000,193000,479620,
3632,-612,28516,-8837,12679,2177,-11000,-13000,193000,479632,
3544,-764,28784,-8589,12364,2015,-12000,-13000,193000,479634,
3116,-460,28760,-7267,10359,1326,-12000,-12000,193000,479647,
3128,-504,28816,-7095,10064,1211,-12000,-12000,193000,479649,
2952,-336,28724,-6882,9677,1184,-12000,-12000,193000,479651,
3244,380,28840,-6141,7540,1052,-13000,-11000,193000,479664,
3352,404,28884,-6012,6976,1041,-13000,-11000,193000,479666,
3248,696,29028,-5929,6521,1068,-13000,-11000,193000,479668,
3296,652,29132,-5376,3795,1129,-13000,-10000,193000,479681,
4336,624,29560,-3543,419,407,-14000,-10000,193000,479708,
4412,516,29736,-3380,203,433,-14000,-10000,193000,479711,
4544,440,30000,-3337,-20,472,-14000,-10000,193000,479713,
5616,-48,30568,-2756,-872,191,-14000,-10000,193000,479725,
5868,-184,30564,-2638,-934,78,-14000,-10000,193000,479727,
6068,-140,30532,-2528,-958,-34,-14000,-10000,193000,479730,
7144,-548,30280,-1803,-1050,-482,-14000,-10000,193000,479742,
7296,-548,29988,-1774,-881,-577,-14000,-10000,193000,479744,
7428,-596,29880,-1617,-733,-604,-14000,-10000,193000,479747,
8304,-1048,30020,-793,237,-689,-14000,-10000,193000,479759,
8528,-1160,29956,-642,354,-723,-14000,-10000,193000,479761,
9076,-1224,29764,-617,548,-801,-14000,-10000,193000,479764,
9188,-1888,29352,149,639,-1329,-14000,-10000,193000,479776,
9048,-2028,29256,348,529,-1352,-14000,-10000,193000,479778,
8872,-2248,28972,605,424,-1421,-14000,-10000,193000,479780,
8576,-2996,28360,2438,-424,-1810,-14000,-11000,192000,479793,
8544,-3024,28304,2762,-568,-1999,-14000,-11000,192000,479795,
8596,-3000,28300,3137,-749,-2127,-14000,-11000,192000,479797,
9384,-3288,28080,4751,-1529,-3156,-13000,-11000,192000,479810,
9344,-3304,27940,5021,-1619,-3312,-13000,-11000,192000,479812,
11716,-2472,26232,7721,208,-5867,-10000,-12000,190000,479852,
11628,-2340,25996,7867,448,-6129,-10000,-12000,190000,479854,
11732,-2428,25740,7981,701,-6300,-10000,-12000,190000,479857,
11064,-2512,24516,8544,2076,-7637,-9000,-12000,189000,479869,
10660,-2472,24408,8613,2024,-7827,-9000,-12000,189000,479871,
10468,-2500,24500,8681,1985,-8036,-9000,-12000,189000,479874,
8756,-2868,24116,9406,1272,-9098,-7000,-12000,188000,479886,
8736,-2816,23868,9564,1054,-9261,-7000,-12000,188000,479888,
8340,-2908,23692,9740,898,-9464,-7000,-12000,188000,479890,
7724,-3064,22584,10424,-357,-10295,-6000,-12000,187000,479903,
7804,-3000,22476,10551,-557,-10559,-6000,-12000,186000,479905,
7900,-2932,21576,11160,-1470,-11724,-4000,-12000,185000,479917,
7980,-2864,21360,11260,-1508,-12107,-4000,-12000,185000,479920,
7860,-2868,21132,11339,-1553,-12118,-4000,-12000,185000,479922,
7720,-2548,20084,11495,-1574,-13160,-3000,-13000,184000,479934,
7588,-2592,19992,11504,-1586,-13302,-2000,-13000,183000,479937,
7260,-2452,18820,11532,-1370,-14085,-1000,-13000,182000,479949,
7048,-2496,18960,11462,-1357,-14087,-1000,-13000,182000,479951,
6964,-2468,18620,11411,-1324,-14198,0,-13000,182000,479953,
6324,-2444,17664,11313,-1175,-14756,0,-13000,180000,479966,
6304,-2484,17820,11284,-1136,-14848,0,-13000,180000,479968,
6048,-2420,17620,11309,-1099,-15032,0,-13000,180000,479970,
4264,-1920,15012,10926,-1273,-15968,4000,-13000,176000,480000,
4180,-1840,14892,10919,-1309,-15937,4000,-13000,176000,480002,
4120,-1780,14864,10828,-1305,-15899,4000,-13000,175000,480004,
3292,-1432,14436,10593,-1567,-15984,5000,-13000,174000,480017,
3252,-1280,14560,10466,-1621,-15928,6000,-13000,174000,480019,
3072,-1252,14632,10406,-1680,-15989,6000,-13000,173000,480021,
2456,-896,14492,10060,-2179,-15768,7000,-13000,172000,480033,
2424,-708,14408,10048,-2260,-15806,7000,-13000,171000,480036,
1940,-608,13964,9715,-2755,-15680,9000,-13000,170000,480048,
1892,-556,13776,9697,-2830,-15721,9000,-13000,170000,480050,
1856,-516,13860,9659,-2921,-15728,9000,-13000,169000,480052,
1564,-244,13700,9490,-3438,-15672,10000,-13000,168000,480065,
1436,-292,13572,9539,-3541,-15643,11000,-13000,168000,480067,
1408,-200,13496,9479,-3628,-15596,11000,-13000,167000,480069,
1088,132,13388,9469,-4164,-15539,12000,-13000,166000,480082,
1120,184,13272,9433,-4287,-15474,12000,-13000,165000,480084,
1036,328,12964,9447,-4340,-15438,12000,-13000,165000,480086,
740,832,12316,9416,-4771,-15204,14000,-13000,164000,480099,
908,1060,12220,9396,-4800,-15153,14000,-13000,163000,480101,
832,1856,11608,9392,-5110,-14887,15000,-13000,162000,480113,
864,1964,11580,9405,-5123,-14851,15000,-13000,162000,480115,
712,3212,10736,8667,-4965,-14619,18000,-13000,158000,480147,
624,3360,10428,8591,-4992,-14516,18000,-13000,157000,480149,
528,3364,10520,8563,-4975,-14518,19000,-13000,157000,480152,
356,3936,9676,8471,-4851,-14210,20000,-13000,156000,480164,
200,4016,9628,8412,-4735,-14174,20000,-13000,155000,480166,
252,4128,9380,8411,-4663,-14052,20000,-13000,155000,480169,
48,4752,8644,7769,-3942,-13488,21000,-13000,154000,480181,
244,4752,8512,7719,-3845,-13430,22000,-13000,154000,480183,
148,4812,8472,7551,-3723,-13271,22000,-13000,153000,480186,
124,5172,7884,7123,-2910,-12806,23000,-13000,152000,480198,
68,5184,7616,6999,-2793,-12842,23000,-13000,152000,480200,
112,5268,7532,6920,-2606,-12577,23000,-12000,152000,480202,
-164,5644,6888,6377,-1694,-12304,24000,-12000,150000,480215,
-332,5724,6684,6250,-1439,-12298,24000,-12000,150000,480217,
-264,5856,6468,6173,-1214,-12210,24000,-12000,150000,480219,
-584,6464,5936,5427,165,-11316,25000,-11000,149000,480232,
-812,6560,6040,5292,433,-11198,26000,-11000,149000,480234,
-784,6652,5696,5128,633,-11007,26000,-11000,149000,480236,
-1400,7060,5724,4333,1699,-10092,26000,-10000,148000,480249,
-1596,7280,5944,4176,1784,-9851,26000,-10000,148000,480251,
