Ax,Ay,Az,Gx,Gy,Gz,Roll,Pitch,Yaw,Timestamp,Target
-5668,-3604,15104,-395,152,44,-20000,23000,252000,94032,
-5596,-3540,14972,-379,160,2,-20000,23000,252000,94034,
-5588,-3488,14968,-358,148,31,-20000,23000,252000,94036,
-5600,-3628,15112,-379,183,-14,-20000,23000,253000,94049,
-5584,-3632,14868,-376,142,25,-20000,23000,253000,94051,
-5572,-3528,14952,-426,120,16,-20000,23000,253000,94053,
-5468,-3504,14984,-383,112,21,-20000,22000,253000,94065,
-5576,-3484,14988,-457,124,21,-20000,22000,253000,94068,
-5500,-3452,14868,-448,166,12,-20000,22000,253000,94070,
-5548,-3548,14860,-478,138,5,-20000,22000,253000,94082,
-5464,-3600,15072,-464,169,2,-20000,22000,253000,94085,
-5508,-3592,14788,-451,145,-9,-20000,22000,253000,94087,
-5440,-3740,14820,-498,185,-16,-20000,22000,253000,94099,
-5476,-3592,15096,-435,199,-23,-20000,22000,253000,94101,
-5492,-3588,14920,-475,171,-21,-20000,22000,253000,94104,
-5504,-3572,14988,-425,185,-36,-20000,22000,253000,94116,
-5460,-3624,15052,-463,184,1,-20000,22000,253000,94118,
-5592,-3584,15024,-464,209,-16,-20000,22000,253000,94121,
-5592,-3612,15024,-440,162,-3,-20000,22000,253000,94171,
-5540,-3524,15028,-444,210,-60,-20000,22000,253000,94173,
-5492,-3620,15016,-419,166,-9,-20000,22000,253000,94175,
-5468,-3564,15032,-401,196,-13,-20000,22000,253000,94188,
-5472,-3596,14924,-414,184,6,-20000,22000,253000,94190,
-5516,-3588,15024,-458,193,-7,-20000,22000,253000,94192,
-5528,-3620,15004,-431,206,-23,-20000,22000,253000,94205,
-5512,-3468,15064,-461,205,16,-20000,22000,253000,94207,
-5532,-3488,14736,-485,213,-30,-20000,22000,253000,94209,
-5560,-3676,14976,-481,223,-39,-20000,22000,253000,94222,
-5468,-3676,14956,-488,260,-35,-20000,22000,253000,94224,
-5560,-3676,14944,-469,293,-45,-20000,22000,253000,94226,
-5536,-3676,14888,-492,190,11,-20000,22000,253000,94239,
-5600,-3624,14868,-467,214,-15,-20000,22000,253000,94241,
-5704,-3604,14912,-426,174,-9,-20000,22000,253000,94243,
-5556,-3600,14880,-372,178,19,-20000,22000,253000,94255,
-5604,-3604,14868,-404,145,32,-20000,22000,253000,94258,
-5676,-3696,14800,-388,164,47,-20000,22000,253000,94260,
-5576,-3588,14852,-354,139,19,-20000,22000,253000,94272,
-5500,-3492,14796,-396,142,28,-20000,22000,253000,94275,
-5512,-3536,15096,-398,150,9,-20000,22000,253000,94277,
-5424,-3524,15016,-382,607,89,-20000,23000,253000,94323,
-5232,-3688,14896,-512,431,78,-20000,23000,253000,94326,
-5348,-3740,15072,-564,239,-5,-20000,23000,253000,94328,
-5680,-3576,15004,-441,157,-27,-20000,23000,253000,94341,
-5656,-3640,15076,-394,229,-34,-20000,23000,253000,94343,
-5688,-3664,15012,-367,183,-42,-20000,23000,253000,94345,
-5700,-3684,14968,-377,131,3,-20000,23000,253000,94357,
-5704,-3676,15052,-345,112,11,-20000,23000,253000,94360,
-5656,-3632,14976,-368,105,42,-20000,23000,253000,94362,
-5444,-3624,14852,-306,80,-9,-20000,23000,253000,94374,
-5584,-3560,14996,-355,73,45,-20000,23000,253000,94376,
-5548,-3540,15000,-357,80,30,-20000,23000,253000,94379,
-5488,-3508,15040,-395,65,11,-20000,23000,253000,94391,
-5400,-3536,15012,-422,51,-15,-20000,23000,253000,94393,
-5408,-3548,14920,-415,122,-34,-20000,23000,253000,94396,
-5564,-3528,14924,-450,91,9,-20000,23000,253000,94408,
-5540,-3620,14960,-439,115,-31,-20000,23000,253000,94410,
-5516,-3484,14928,-429,98,-2,-20000,23000,253000,94412,
-5464,-3532,14992,-419,141,-1,-20000,23000,253000,94425,
-5508,-3572,14892,-432,140,15,-20000,23000,253000,94427,
-5660,-3596,15064,-353,72,89,-20000,22000,253000,94477,
-5564,-3572,15104,-385,55,95,-20000,22000,253000,94480,
-5612,-3472,15072,-378,95,79,-20000,22000,253000,94482,
-5364,-3576,14900,-486,165,70,-20000,22000,253000,94494,
-5376,-3444,14908,-519,190,60,-20000,22000,253000,94497,
-5376,-3460,14888,-508,139,28,-20000,22000,253000,94499,
-5356,-3580,14960,-651,203,-16,-20000,22000,253000,94511,
-5376,-3512,14924,-598,190,-3,-20000,22000,253000,94513,
-5360,-3616,14900,-644,199,8,-20000,22000,253000,94516,
-5500,-3644,14984,-556,235,61,-20000,22000,253000,94528,
-5416,-3824,15172,-578,246,99,-20000,22000,253000,94530,
-5496,-3776,15056,-561,281,98,-20000,22000,253000,94532,
-5572,-3616,15080,-406,217,168,-20000,22000,253000,94545,
-5644,-3720,15224,-345,222,171,-20000,22000,253000,94547,
-5588,-3624,15004,-299,243,162,-20000,22000,253000,94549,
-5568,-3468,15088,-316,221,160,-20000,22000,253000,94562,
-5624,-3468,15172,-291,214,119,-20000,22000,253000,94564,
-5452,-3412,14928,-331,210,162,-20000,22000,253000,94566,
-5336,-3348,14988,-472,267,64,-20000,22000,253000,94579,
-5340,-3432,14816,-543,263,60,-20000,22000,253000,94581,
-5312,-3448,14668,-612,272,23,-20000,22000,253000,94583,
-5772,-3724,15128,-343,184,122,-20000,23000,253000,94621,
-5884,-3724,15008,-258,169,161,-20000,23000,253000,94623,
-5824,-3676,15084,-275,142,189,-20000,23000,253000,94626,
-5680,-3408,15104,-158,60,160,-20000,22000,253000,94638,
-5628,-3424,15012,-187,47,165,-20000,22000,253000,94640,
-5572,-3428,14984,-240,65,116,-20000,22000,253000,94643,
-5356,-3312,14924,-451,24,12,-20000,22000,253000,94655,
-5320,-3344,15108,-512,35,-34,-20000,22000,253000,94657,
-5304,-3380,14984,-511,48,-48,-20000,22000,253000,94659,
-5252,-3532,14896,-663,85,-19,-20000,22000,253000,94672,
-5384,-3680,14956,-643,109,-53,-20000,22000,253000,94674,
-5384,-3648,15036,-676,92,-30,-20000,22000,253000,94676,
-5408,-3808,15052,-605,278,-25,-20000,22000,253000,94689,
-5480,-3804,15068,-609,268,-30,-20000,22000,253000,94691,
-5608,-3732,14888,-601,285,12,-20000,22000,253000,94693,
-5692,-3888,14956,-456,266,-8,-20000,22000,253000,94706,
-5712,-3832,15076,-444,267,45,-20000,22000,253000,94708,
-5660,-3788,15064,-407,264,15,-20000,22000,253000,94710,
-5836,-3544,15084,-256,67,144,-20000,22000,253000,94722,
-5920,-3648,15176,-229,61,97,-20000,22000,253000,94725,
-5812,-3656,15348,-188,-2,179,-20000,22000,253000,94727,
-5660,-3336,14968,-205,-13,153,-20000,22000,253000,94739,
-5092,-3444,14920,-663,93,-61,-20000,22000,253000,94765,
-5128,-3492,14900,-694,135,-49,-20000,22000,253000,94767,
-5140,-3536,14824,-674,165,-95,-20000,22000,253000,94769,
-5452,-3712,15196,-715,216,-90,-20000,22000,253000,94782,
-5484,-3720,15168,-612,261,-74,-20000,22000,253000,94784,
-5532,-3804,15136,-627,213,-49,-20000,22000,253000,94786,
-5652,-3644,15000,-445,254,16,-20000,22000,253000,94799,
-5788,-3812,15052,-426,197,53,-20000,22000,253000,94801,
-5780,-3712,15156,-432,197,59,-20000,22000,253000,94803,
-5660,-3476,14944,-310,480,116,-20000,22000,253000,94815,
-5588,-3532,14980,-302,532,165,-20000,22000,253000,94818,
-5500,-3632,15016,-300,478,141,-20000,22000,253000,94820,
-5364,-3388,15032,-404,3,60,-20000,22000,253000,94832,
-5468,-3404,15032,-414,118,37,-20000,22000,253000,94834,
-5444,-3496,14836,-360,132,82,-20000,22000,253000,94837,
-5460,-3512,15148,-522,180,80,-20000,22000,253000,94849,
-5428,-3484,14860,-471,180,76,-20000,22000,253000,94851,
-5352,-3540,14968,-540,214,77,-20000,22000,253000,94854,
-5368,-3640,14912,-525,276,4,-20000,22000,253000,94866,
-5336,-3692,15004,-583,302,0,-20000,22000,253000,94868,
-5760,-3568,14920,-384,101,140,-20000,22000,254000,94905,
-5740,-3632,15128,-358,118,137,-20000,22000,254000,94907,
-5632,-3604,14960,-327,98,132,-20000,22000,254000,94909,
-5480,-3284,15000,-365,138,100,-20000,22000,254000,94922,
-5520,-3520,14988,-366,125,130,-20000,22000,254000,94924,
-5360,-3556,14948,-439,137,102,-20000,22000,254000,94926,
-5360,-3396,14968,-486,186,57,-20000,22000,254000,94939,
-5300,-3432,14896,-520,220,27,-20000,22000,254000,94941,
-5312,-3460,14948,-510,249,8,-20000,22000,254000,94943,
-5436,-3504,14968,-579,228,19,-20000,22000,254000,94956,
-5540,-3632,14952,-603,258,2,-20000,22000,254000,94958,
-5540,-3576,15060,-528,229,-4,-20000,22000,254000,94960,
-5636,-3556,14952,-529,218,15,-20000,22000,254000,94973,
-5680,-3668,14992,-443,155,24,-20000,22000,254000,94975,
-5668,-3600,14976,-489,150,31,-20000,22000,254000,94977,
-5528,-3588,15044,-381,85,59,-20000,22000,254000,94990,
-5576,-3620,14848,-411,66,51,-20000,22000,254000,94992,
-5516,-3476,14912,-400,79,32,-20000,22000,254000,94994,
-5468,-3460,14964,-436,42,35,-20000,22000,254000,95006,
-5472,-3512,14900,-492,55,37,-20000,22000,254000,95009,
-5332,-3388,14924,-457,73,22,-20000,22000,254000,95011,
-5496,-3688,15032,-519,62,-5,-20000,22000,254000,95051,
-5512,-3720,14844,-492,56,-38,-20000,22000,254000,95053,
-5504,-3744,14864,-429,8,-82,-20000,22000,254000,95056,
-5604,-3764,15112,-376,29,-48,-20000,22000,254000,95068,
-5612,-3552,15088,-344,-13,-55,-20000,22000,254000,95070,
-5552,-3536,14992,-375,-30,-17,-20000,22000,254000,95072,
-5460,-3396,15024,-324,-62,-41,-20000,22000,254000,95085,
-5568,-3480,15048,-345,-119,-10,-20000,22000,254000,95087,
-5396,-3564,14980,-399,-101,-66,-20000,22000,254000,95089,
-5468,-3484,15140,-441,-28,-156,-20000,22000,254000,95102,
-5384,-3460,15068,-413,2,-181,-20000,22000,254000,95104,
-5296,-3516,14944,-385,9,-246,-20000,22000,254000,95106,
-5384,-3532,14932,-484,25,-191,-20000,22000,254000,95119,
-5392,-3592,14872,-444,-25,-167,-20000,22000,254000,95121,
-5424,-3568,15020,-519,4,-152,-20000,22000,254000,95123,
-5548,-3672,15068,-459,-55,-106,-20000,22000,254000,95135,
-5556,-3584,14904,-483,-57,-100,-20000,22000,254000,95138,
-5520,-3640,15052,-499,-64,-123,-20000,22000,254000,95140,
-5692,-3384,15052,-323,387,-98,-20000,22000,254000,95152,
-5512,-3548,15032,-254,634,-19,-20000,22000,254000,95155,
-5484,-3632,14984,-198,616,4,-20000,22000,254000,95157,
-5336,-3560,15060,-432,-72,-130,-20000,22000,254000,95169,
-5296,-3536,15052,-451,121,-82,-20000,22000,254000,95198,
-5168,-3584,15056,-407,151,-86,-20000,22000,254000,95201,
-5324,-3716,15096,-398,140,-43,-20000,22000,254000,95203,
-5204,-3656,15128,-466,85,-120,-20000,22000,254000,95215,
-5264,-3676,15084,-479,87,-84,-20000,22000,254000,95217,
-5172,-3676,15080,-464,111,-78,-20000,22000,254000,95220,
-5380,-3648,14924,-436,171,-45,-20000,22000,254000,95232,
-5296,-3780,15148,-462,200,-57,-20000,22000,254000,95234,
-5468,-3572,15020,-428,212,-61,-20000,22000,254000,95237,
-5532,-3656,15108,-398,193,34,-20000,22000,254000,95249,
-5512,-3612,14932,-366,206,27,-20000,22000,254000,95251,
-5356,-3592,14972,-355,213,78,-20000,22000,254000,95254,
-5396,-3484,15204,-403,181,10,-20000,22000,254000,95266,
-5424,-3644,15008,-403,168,46,-20000,22000,254000,95268,
-5408,-3592,15152,-411,187,21,-20000,22000,254000,95271,
-5364,-3520,14856,-428,158,11,-20000,22000,254000,95283,
-5264,-3556,15000,-481,147,16,-20000,22000,254000,95285,
-5436,-3672,14972,-448,188,-34,-20000,22000,254000,95287,
-5408,-3696,14900,-531,204,-1,-20000,22000,254000,95300,
-5496,-3584,14980,-494,204,17,-20000,22000,254000,95302,
-5388,-3572,15208,-302,178,77,-20000,22000,254000,95340,
-5300,-3596,15048,-318,164,88,-20000,22000,254000,95342,
-5272,-3560,15060,-330,178,86,-20000,22000,254000,95344,
-5396,-3504,15072,-351,168,91,-20000,22000,254000,95357,
-5332,-3436,15052,-382,192,74,-20000,22000,254000,95359,
-5428,-3432,15072,-388,230,40,-20000,22000,254000,95361,
-5356,-3616,15000,-476,163,46,-20000,22000,254000,95374,
-5380,-3528,14952,-459,192,7,-20000,22000,254000,95376,
-5372,-3592,15104,-453,180,-2,-20000,22000,254000,95378,
-5376,-3568,15088,-472,204,-5,-20000,22000,254000,95391,
-5384,-3616,15016,-466,158,14,-20000,22000,254000,95393,
-5360,-3560,14932,-494,182,2,-20000,22000,254000,95395,
-5316,-3688,15124,-471,188,-2,-20000,22000,254000,95407,
-5412,-3664,15064,-492,197,11,-20000,22000,254000,95410,
-5408,-3588,15004,-444,252,5,-20000,22000,254000,95412,
-5296,-3508,15080,-426,182,81,-20000,22000,254000,95424,
-5372,-3488,14988,-444,248,21,-20000,22000,254000,95426,
-5356,-3660,15008,-395,200,30,-20000,22000,254000,95429,
-5400,-3532,14828,-463,274,42,-20000,22000,254000,95441,
-5384,-3604,15072,-446,201,70,-20000,22000,254000,95443,
-5304,-3508,15048,-487,203,56,-20000,22000,254000,95446,
-5292,-3688,15012,-477,182,43,-20000,22000,254000,95490,
-5384,-3612,14996,-497,211,46,-20000,22000,254000,95492,
-5452,-3588,15068,-458,214,35,-20000,22000,254000,95494,
-5508,-3576,15068,-451,223,57,-20000,22000,254000,95507,
-5484,-3584,15120,-431,199,30,-20000,22000,254000,95509,
-5392,-3524,14952,-453,178,71,-20000,22000,254000,95511,
-5408,-3464,15112,-418,184,52,-20000,22000,254000,95524,
-5372,-3532,14972,-451,161,72,-20000,22000,254000,95526,
-5324,-3508,14956,-467,181,85,-20000,22000,254000,95528,
-5336,-3500,15100,-464,159,33,-20000,22000,254000,95540,
-5340,-3584,14968,-501,159,17,-20000,22000,254000,95543,
-5328,-3480,15200,-463,184,13,-20000,22000,254000,95545,
-5436,-3532,15072,-510,196,56,-20000,22000,254000,95557,
-5472,-3552,15112,-473,210,32,-20000,22000,254000,95560,
-5436,-3500,14916,-523,174,81,-20000,22000,254000,95562,
-5372,-3608,14932,-461,224,19,-20000,22000,254000,95574,
-5376,-3556,14924,-529,185,45,-20000,22000,254000,95576,
-5312,-3536,15116,-510,210,41,-20000,22000,254000,95579,
-5308,-3616,15128,-511,194,51,-20000,22000,254000,95591,
-5476,-3608,15076,-532,205,50,-20000,22000,254000,95593,
-5356,-3604,15088,-490,229,32,-20000,22000,254000,95595,
-5468,-3724,15020,-497,267,78,-20000,22000,254000,95643,
-5416,-3576,15020,-499,289,50,-20000,22000,254000,95646,
-5472,-3568,14968,-458,281,64,-20000,22000,254000,95648,
-5360,-3592,15100,-536,284,72,-20000,22000,254000,95660,
-5424,-3516,15004,-464,260,67,-20000,22000,254000,95663,
-5472,-3588,15040,-498,253,82,-20000,22000,254000,95665,
-5408,-3656,15068,-475,249,38,-20000,22000,254000,95677,
-5432,-3568,14916,-509,228,76,-20000,22000,254000,95679,
-5428,-3540,15108,-506,226,71,-20000,22000,254000,95682,
-5476,-3548,15028,-502,203,66,-20000,22000,254000,95694,
-5448,-3604,14968,-510,226,30,-20000,22000,254000,95696,
-5464,-3696,15024,-495,235,33,-20000,22000,254000,95699,
-5372,-3560,15040,-493,208,66,-20000,22000,254000,95711,
-5400,-3652,15108,-490,235,46,-20000,22000,254000,95713,
-5460,-3648,15088,-439,193,47,-20000,22000,254000,95715,
-5408,-3628,15044,-473,208,55,-20000,22000,254000,95728,
-5292,-3632,14916,-451,165,52,-20000,22000,254000,95730,
-5392,-3564,14924,-459,158,72,-20000,22000,254000,95732,
-5348,-3544,15056,-429,118,47,-20000,22000,254000,95745,
-5404,-3728,15000,-457,141,46,-20000,22000,254000,95747,
-5316,-3544,15096,-389,143,77,-20000,22000,254000,95788,
-5356,-3488,14976,-448,126,89,-20000,22000,254000,95791,
-5364,-3572,15004,-443,167,53,-20000,22000,254000,95793,
-5392,-3604,15040,-464,141,57,-20000,22000,254000,95805,
-5360,-3480,15088,-479,171,8,-20000,22000,254000,95808,
-5340,-3552,15040,-433,185,36,-20000,22000,254000,95810,
-5380,-3628,15036,-473,201,34,-20000,22000,254000,95822,
-5396,-3568,14992,-413,160,-12,-20000,22000,254000,95825,
-5496,-3484,14948,-452,131,8,-20000,22000,254000,95827,
-5412,-3472,15076,-439,169,-33,-20000,22000,254000,95839,
-5424,-3544,14996,-443,146,-13,-20000,22000,254000,95841,
-5472,-3532,15096,-505,138,-21,-20000,22000,254000,95844,
-5484,-3488,15008,-486,89,-33,-20000,22000,255000,95856,
-5468,-3528,14964,-527,67,-44,-20000,22000,255000,95858,
-5504,-3520,15020,-528,113,-55,-20000,22000,255000,95861,
-5504,-3640,15028,-565,54,-68,-20000,22000,255000,95873,
-5376,-3500,14984,-559,88,-75,-20000,22000,255000,95875,
-5404,-3512,15072,-522,38,-89,-20000,22000,255000,95877,
-5384,-3572,15132,-509,92,-134,-20000,22000,255000,95890,
-5348,-3668,14924,-444,83,-115,-20000,22000,255000,95892,
-5384,-3684,14924,-479,55,-113,-20000,22000,255000,95894,
-5056,-3556,14872,-280,360,-353,-20000,22000,254000,95940,
-5184,-3468,15004,-265,448,-399,-20000,22000,254000,95942,
-5172,-3432,14836,-216,488,-456,-20000,22000,254000,95944,
-5236,-3392,15096,-269,478,-558,-20000,22000,254000,95957,
-5248,-3352,14956,-374,273,-571,-20000,22000,254000,95959,
-5256,-3320,14864,-507,159,-611,-20000,22000,254000,95961,
-5696,-3292,15036,-791,-86,-868,-20000,22000,254000,95973,
-5676,-3276,14932,-842,-100,-909,-20000,22000,254000,95976,
-5728,-3240,14752,-866,-53,-915,-20000,22000,254000,95978,
-5784,-3496,15024,-1007,-506,-1018,-20000,22000,254000,95990,
-5780,-3612,15092,-992,-532,-1073,-20000,22000,254000,95993,
-5836,-3604,15112,-924,-583,-1063,-20000,22000,254000,95995,
-6064,-3440,15448,-527,-582,-876,-20000,22000,254000,96007,
-5944,-3808,15260,-340,-717,-717,-20000,22000,254000,96010,
-5756,-3896,14728,-439,-786,-714,-20000,22000,254000,96012,
-5320,-3832,15376,-509,-874,-996,-20000,22000,254000,96024,
-5220,-3816,15104,-447,-892,-1004,-20000,21000,254000,96026,
-5144,-3876,15048,-403,-804,-1105,-20000,21000,254000,96029,
-4832,-3760,15196,-115,-520,-1383,-20000,21000,254000,96041,
-4820,-3784,15276,-94,-385,-1448,-20000,21000,254000,96043,
-4768,-3716,15296,-9,-357,-1447,-20000,21000,254000,96046,
-5004,-3912,14984,-770,301,-947,-20000,21000,254000,96082,
-4952,-3872,15116,-858,276,-963,-20000,21000,254000,96084,
-4948,-3964,14924,-870,222,-1049,-20000,21000,254000,96087,
-5224,-4292,15228,-424,209,-1158,-20000,21000,253000,96099,
-5272,-4324,15312,-309,290,-1102,-20000,21000,253000,96101,
-5220,-4296,15228,-195,346,-1071,-20000,21000,253000,96104,
-4976,-4224,15112,197,376,-779,-20000,21000,253000,96116,
-5084,-4012,15160,222,412,-758,-20000,21000,253000,96118,
-5072,-4020,15080,216,386,-674,-20000,21000,253000,96121,
-5320,-3676,15200,213,320,-493,-20000,21000,253000,96133,
-5452,-3624,15004,200,275,-435,-20000,21000,253000,96135,
-5512,-3648,15168,164,268,-454,-20000,21000,253000,96137,
-5660,-3716,14920,-67,253,-782,-20000,21000,253000,96150,
-5676,-3704,14752,-135,221,-859,-20000,21000,253000,96152,
-5748,-3760,14888,-170,218,-977,-20000,21000,253000,96154,
-5900,-3908,15124,-19,-262,-1089,-20000,21000,253000,96167,
-5968,-3980,15008,73,-300,-1042,-20000,21000,253000,96169,
-5856,-3940,15200,173,-393,-958,-20000,21000,253000,96171,
-5156,-4332,15500,391,-403,-1156,-20000,21000,253000,96184,
-5256,-4128,15508,530,-521,-1136,-20000,21000,253000,96186,
-5728,-3836,15064,395,-989,-1314,-20000,20000,253000,96225,
-5656,-3944,14856,313,-948,-1360,-20000,20000,253000,96227,
-5660,-4028,14768,255,-1008,-1409,-20000,20000,253000,96229,
-5656,-4104,15220,229,-1590,-1479,-20000,20000,253000,96242,
-5520,-4276,14952,226,-1680,-1526,-20000,20000,253000,96244,
-5580,-4192,15232,230,-1811,-1528,-20000,20000,253000,96246,
-5252,-4588,14664,274,-1878,-1667,-20000,20000,253000,96259,
-5164,-4444,15080,228,-1801,-1708,-20000,20000,253000,96261,
-5072,-4396,15332,256,-1784,-1806,-20000,20000,253000,96263,
-5088,-3940,15456,908,-2289,-1492,-20000,20000,252000,96276,
-5032,-3864,15204,959,-2255,-1355,-20000,20000,252000,96278,
-4876,-3964,14968,1016,-2148,-1228,-20000,19000,252000,96280,
-4164,-3912,15404,159,-1322,-1332,-20000,19000,252000,96293,
-4184,-3752,15856,265,-1539,-1244,-20000,19000,252000,96295,
-4052,-3872,15756,322,-1602,-1169,-20000,19000,252000,96297,
-4432,-3788,15700,478,-1639,-816,-20000,19000,252000,96310,
-4148,-4012,15040,379,-1512,-803,-20000,19000,252000,96312,
-4364,-4020,15404,-65,-1013,-968,-20000,19000,252000,96324,
-4348,-3988,15412,-76,-1042,-954,-20000,19000,252000,96327,
-4348,-3884,15688,-22,-1042,-976,-20000,19000,252000,96329,
-4704,-3980,15072,171,-1122,-603,-20000,19000,252000,96341,
-4572,-3312,15956,238,-1107,-260,-20000,18000,252000,96367,
-4620,-3244,15588,244,-1150,-154,-20000,18000,252000,96369,
-4076,-3384,14884,130,-938,-231,-20000,18000,252000,96372,
-3520,-3076,16132,-120,-549,-178,-20000,18000,252000,96384,
-3456,-3236,16068,-200,-422,-181,-20000,18000,252000,96386,
-3476,-3208,15964,-284,-270,-143,-20000,18000,252000,96389,
-3608,-3332,15248,-1075,793,291,-20000,18000,252000,96401,
-3696,-3284,15640,-1086,915,361,-20000,18000,252000,96403,
-3672,-3392,15652,-1036,949,512,-20000,18000,252000,96405,
-3800,-4836,17316,-1442,919,1372,-20000,18000,253000,96418,
-3456,-4652,16520,-1581,1181,1718,-20000,18000,253000,96420,
-3180,-4264,16152,-1592,1380,1997,-20000,18000,253000,96422,
-2944,-4504,16112,-862,246,2976,-20000,18000,253000,96435,
-3032,-4524,16508,-911,204,3143,-20000,18000,253000,96437,
-3320,-4620,16404,-858,376,3366,-20000,18000,253000,96439,
-3076,-4424,15492,-994,1868,3693,-20000,19000,253000,96452,
-3172,-4460,15680,-1099,2073,3630,-20000,19000,253000,96454,
-3116,-4460,15504,-1205,2083,3528,-20000,19000,253000,96456,
-3728,-4196,16208,-965,2208,3334,-20000,19000,254000,96469,
-3840,-4320,16032,-840,2033,3298,-20000,19000,254000,96471,
-4032,-4200,15980,-810,1912,3294,-20000,19000,254000,96473,
-4748,-4236,15864,-206,-495,2409,-19000,19000,255000,96529,
-4736,-4208,15920,-97,-494,2332,-19000,19000,255000,96532,
-4824,-4200,15960,-20,-402,2316,-19000,19000,255000,96534,
-4732,-4048,15536,382,125,2191,-19000,19000,255000,96546,
-4772,-3908,15396,415,202,2213,-19000,19000,255000,96549,
-4748,-3776,15092,473,314,2176,-19000,19000,255000,96551,
-4656,-3804,14716,593,525,2204,-19000,19000,255000,96563,
-4556,-3668,15040,529,683,2194,-19000,19000,256000,96566,
-4556,-3704,15100,505,769,2169,-19000,19000,256000,96568,
-5092,-3728,15916,533,1251,2303,-19000,20000,256000,96580,
-5136,-3624,15916,679,1164,2365,-19000,20000,256000,96582,
-5196,-3572,15792,802,1130,2421,-18000,20000,256000,96585,
-5644,-3148,15948,1313,1106,2222,-18000,20000,256000,96597,
-5664,-3252,16032,1242,1034,2080,-18000,20000,256000,96599,
-5832,-3088,16444,1240,964,1922,-18000,20000,256000,96602,
-6652,-3384,15832,1073,-1200,816,-18000,20000,256000,96614,
-6940,-3444,15572,1029,-1791,585,-18000,20000,256000,96616,
-7148,-3456,15112,1084,-2369,371,-18000,20000,256000,96619,
-7328,-3336,13244,1535,-3923,-430,-18000,19000,256000,96631,
-6900,-3188,13268,1690,-3863,-583,-18000,19000,256000,96633,
-4748,-652,14688,378,218,448,-17000,19000,257000,96677,
-4868,-712,14924,25,363,392,-17000,19000,257000,96679,
-5304,-624,14984,-275,566,319,-17000,19000,257000,96682,
-6744,-1252,14788,-1278,1141,-315,-17000,20000,257000,96694,
-6832,-1316,14060,-1370,1200,-342,-17000,20000,257000,96696,
-6768,-1584,13836,-1439,1204,-486,-17000,20000,257000,96699,
-7008,-3192,15612,-2045,49,-491,-17000,20000,257000,96711,
-6940,-3292,15696,-2087,-58,-455,-17000,20000,257000,96713,
-6932,-3680,15756,-2083,-242,-360,-17000,20000,257000,96716,
-6636,-4368,16384,-911,-768,135,-18000,20000,257000,96728,
-6540,-4368,16588,-608,-935,217,-18000,20000,257000,96730,
-6544,-4360,16352,-267,-1081,267,-18000,20000,257000,96732,
-6028,-4288,15144,959,-1848,-31,-17000,19000,257000,96745,
-5960,-4160,15296,1058,-1936,-106,-17000,19000,257000,96747,
-5792,-4036,15260,1141,-2025,-238,-17000,19000,257000,96749,
-5508,-3364,14512,1401,-2387,-682,-17000,19000,257000,96762,
-5376,-3300,14472,1380,-2428,-762,-17000,19000,257000,96764,
-5248,-3156,14596,1408,-2507,-783,-17000,19000,257000,96766,
-4708,-2864,14412,1026,-2515,-721,-17000,19000,257000,96779,
-4704,-2768,14716,950,-2516,-675,-17000,19000,257000,96781,
-4656,-2796,14452,826,-2484,-637,-17000,19000,257000,96783,
-3112,-2704,15928,41,-1163,0,-17000,18000,257000,96841,
-3120,-2708,15844,18,-1045,-25,-17000,18000,257000,96843,
-3128,-2652,15992,88,-994,15,-17000,18000,257000,96845,
-2896,-2436,16356,298,-331,185,-17000,18000,257000,96858,
-2876,-2500,16244,285,-222,182,-17000,18000,257000,96860,
-2904,-2480,16260,197,-110,201,-17000,18000,257000,96862,
-3056,-2528,15976,-236,382,17,-16000,18000,257000,96875,
-3012,-2484,16032,-311,462,29,-16000,18000,257000,96877,
-3112,-2524,16120,-363,539,-18,-16000,18000,257000,96879,
-3644,-2736,15992,-403,1121,-35,-16000,18000,257000,96892,
-3668,-2668,16144,-388,1209,-26,-16000,18000,257000,96894,
-3756,-2656,16020,-340,1320,-45,-16000,18000,257000,96896,
-3864,-2640,15844,-149,1566,-59,-16000,18000,257000,96909,
-3928,-2628,15852,-71,1599,-89,-16000,18000,257000,96911,
-3908,-2640,15956,-41,1581,-46,-16000,18000,257000,96913,
-4076,-2580,15532,-19,1636,-118,-16000,18000,257000,96925,
-3996,-2520,15536,-51,1576,-94,-16000,18000,257000,96928,
-4056,-2568,15544,-57,1586,-89,-16000,18000,257000,96930,
-4204,-2428,15536,14,1722,-156,-16000,18000,257000,96942,
-4380,-2288,15132,-25,1722,-180,-16000,18000,257000,96944,
-4392,-2136,15272,-34,1754,-202,-16000,18000,257000,96947,
-4668,-2064,15140,7,1627,-290,-16000,19000,257000,96959,
-4656,-1744,15272,-348,1511,-338,-16000,19000,257000,96985,
-4756,-1812,15248,-407,1504,-315,-16000,19000,257000,96987,
-4712,-1860,15268,-485,1538,-370,-16000,19000,257000,96989,
-4716,-1892,15124,-851,2009,-742,-16000,19000,257000,97002,
-4620,-1880,15104,-951,2153,-837,-16000,19000,256000,97004,
-4736,-1904,15120,-983,2352,-961,-16000,19000,256000,97006,
-5088,-1892,14696,-1239,2767,-1239,-17000,19000,256000,97019,
-5172,-2020,14580,-1220,2789,-1259,-17000,19000,256000,97021,
-5124,-1924,14572,-1192,2729,-1227,-17000,19000,256000,97023,
-5312,-1844,14324,-1226,2045,-971,-17000,19000,256000,97036,
-5384,-1720,14596,-1217,1734,-882,-17000,20000,256000,97038,
-5336,-1716,14392,-1240,1437,-821,-17000,20000,256000,97040,
-5552,-1780,14736,-1068,-121,-807,-17000,19000,256000,97053,
-5684,-1796,14532,-1062,-291,-848,-17000,19000,256000,97055,
-5720,-1824,14576,-1084,-455,-951,-17000,19000,256000,97057,
-5288,-1704,14804,-1085,-1344,-1556,-17000,19000,256000,97070,
-5344,-1480,15020,-1054,-1486,-1664,-17000,19000,256000,97072,
-4780,-1700,15412,-1190,-2134,-2017,-17000,19000,256000,97084,
-4736,-1900,15304,-1224,-2164,-2026,-17000,19000,256000,97087,
-4612,-1836,15344,-1300,-2188,-1963,-17000,19000,256000,97089,
-4156,-2852,14972,-1806,-2418,-2235,-18000,18000,255000,97137,
-4272,-2936,14844,-1795,-2563,-2289,-18000,18000,255000,97140,
-4280,-2884,14948,-1861,-2684,-2309,-18000,18000,255000,97142,
-4768,-3064,15504,-1877,-3563,-2520,-18000,17000,255000,97154,
-4752,-3032,15404,-1923,-3705,-2568,-18000,17000,255000,97157,
-4772,-3156,15508,-1887,-3848,-2604,-18000,17000,255000,97159,
-4792,-3548,16116,-2010,-4131,-2506,-18000,17000,255000,97171,
-4820,-3536,16252,-1938,-4153,-2458,-18000,16000,255000,97173,
-4504,-3912,16936,-1762,-4435,-2391,-18000,16000,255000,97186,
-4468,-3956,17072,-1631,-4469,-2399,-18000,16000,255000,97188,
-4480,-4024,17060,-1580,-4489,-2402,-18000,16000,255000,97191,
-3396,-4976,17216,-1103,-5110,-2897,-19000,15000,255000,97203,
-3720,-5020,17792,-1110,-6081,-3294,-19000,15000,255000,97205,
-3320,-4992,17304,-958,-6664,-3581,-19000,15000,255000,97208,
-4184,-4544,16672,580,-6083,-4120,-19000,14000,255000,97220,
-4224,-4524,16244,766,-5689,-4061,-19000,14000,254000,97222,
-3380,-3852,15804,780,-5560,-3802,-18000,14000,254000,97235,
-3352,-3684,15816,741,-5720,-3801,-18000,13000,254000,97237,
-3200,-3304,16136,723,-5794,-3837,-18000,13000,254000,97239,
-3260,-2948,16108,296,-5851,-3705,-18000,13000,254000,97252,
-3248,-2812,16228,247,-5760,-3678,-18000,13000,254000,97254,
-3056,-2852,16176,104,-5684,-3638,-18000,12000,254000,97256,
-1828,-4088,16172,-1223,-3646,-3809,-19000,11000,253000,97294,
-1756,-4088,16200,-1270,-3283,-3768,-19000,11000,253000,97296,
-1720,-4164,16300,-1242,-3178,-3759,-19000,11000,253000,97298,
-1712,-4252,16128,-1496,-2158,-3702,-19000,10000,253000,97311,
-1628,-4208,16076,-1501,-1908,-3771,-19000,10000,253000,97313,
-1628,-4180,16100,-1519,-1705,-3737,-19000,10000,253000,97315,
-2040,-4136,15936,-1528,-1049,-3971,-19000,10000,253000,97328,
-2084,-4184,15852,-1606,-846,-3960,-19000,10000,253000,97330,
-2052,-4476,15928,-1644,-581,-4374,-19000,10000,252000,97342,
-1924,-4580,15868,-1688,-620,-4432,-20000,10000,252000,97345,
-1768,-4720,15940,-1696,-459,-4558,-20000,10000,252000,97347,
-1760,-4632,16192,-1461,224,-4651,-20000,10000,252000,97359,
-1924,-4572,16348,-1478,297,-4601,-20000,10000,252000,97362,
-1856,-4396,16244,-1455,469,-4537,-20000,10000,251000,97364,
-2152,-3592,16136,-1923,1745,-3930,-20000,10000,251000,97376,
-2368,-3724,16156,-2027,1966,-3810,-20000,10000,251000,97378,
-2236,-3656,16216,-2186,2066,-3691,-20000,10000,251000,97381,
-2276,-2880,16508,-2645,1985,-3651,-20000,10000,251000,97393,
-2344,-2792,16416,-2821,1703,-3681,-20000,10000,250000,97395,
-3476,-2980,15752,-3307,844,-3951,-21000,10000,250000,97408,
-3512,-3092,15840,-3356,772,-3988,-21000,10000,250000,97410,
-2800,-4312,16168,-2902,-1465,-5623,-22000,9000,249000,97443,
-2768,-4552,16412,-2810,-1711,-5645,-22000,9000,249000,97446,
-2636,-4696,16308,-2709,-1913,-5774,-22000,9000,249000,97448,
-2372,-4608,16300,-2229,-3105,-5589,-22000,8000,248000,97461,
-2268,-4488,16272,-2123,-3333,-5566,-22000,8000,248000,97463,
-2336,-4476,16300,-2028,-3602,-5486,-22000,8000,248000,97465,
-1900,-4232,15376,-2024,-3913,-5143,-22000,7000,248000,97477,
-1992,-4048,15384,-2014,-3839,-5085,-22000,7000,248000,97480,
-1832,-4128,15464,-1998,-3746,-5034,-22000,7000,248000,97482,
-1072,-4372,15848,-1464,-3249,-5101,-22000,7000,247000,97494,
-992,-4408,15824,-1453,-3281,-5142,-22000,7000,247000,97497,
-576,-4728,15980,-1121,-3206,-5022,-23000,6000,247000,97509,
-644,-4896,16060,-1009,-3183,-4917,-23000,6000,247000,97511,
-676,-4932,16084,-837,-3133,-4864,-23000,6000,247000,97514,
-444,-4820,15076,-674,-2558,-4462,-23000,5000,247000,97526,
-352,-4788,14892,-786,-2299,-4409,-23000,5000,247000,97528,
-284,-4800,15024,-850,-2004,-4355,-23000,5000,247000,97530,
-132,-4868,16544,-115,-1403,-4030,-23000,5000,246000,97543,
-124,-4752,16208,-60,-1415,-4007,-23000,5000,246000,97545,
-12,-4712,16064,-43,-1484,-3965,-23000,5000,246000,97547,
-1228,-4452,17356,-465,-1194,-2881,-23000,4000,245000,97597,
-1364,-4468,16908,-401,-1221,-2777,-23000,4000,245000,97600,
-1312,-4504,16220,-433,-1283,-2740,-23000,4000,245000,97602,
-736,-4520,15060,-1216,-1130,-2442,-23000,4000,245000,97614,
-560,-4640,15616,-1192,-1023,-2332,-23000,4000,245000,97617,
-532,-4880,16768,-923,-1004,-2241,-23000,4000,245000,97619,
-360,-4948,15620,-271,-1517,-2586,-23000,3000,245000,97631,
-268,-4664,15384,-354,-1582,-2716,-23000,3000,245000,97634,
0,-4428,15368,-458,-1625,-2749,-23000,3000,245000,97636,
272,-4732,17348,-609,-981,-1891,-23000,3000,245000,97648,
272,-4740,17664,-239,-1075,-1842,-23000,3000,245000,97650,
24,-4796,17432,-75,-1146,-1843,-23000,3000,245000,97653,
48,-3880,16296,-852,-1195,-2406,-23000,3000,244000,97665,
-176,-3980,16356,-916,-1116,-2415,-23000,3000,244000,97667,
-252,-3956,16060,-1070,-985,-2421,-23000,3000,244000,97670,
-480,-4828,18264,-926,-1167,-1497,-23000,3000,244000,97682,
-532,-5020,17720,-743,-1331,-1703,-23000,3000,244000,97684,
-772,-4780,17024,-830,-1530,-1933,-23000,3000,244000,97686,
-1536,-4188,15844,-1930,-1620,-2946,-23000,2000,244000,97699,
-1868,-4420,14872,-2410,-1697,-2669,-23000,2000,244000,97701,
-1840,-4652,15724,-2663,-1821,-2338,-23000,2000,244000,97703,
-204,-4328,16656,-1596,-4492,-2444,-24000,0,244000,97762,
-200,-4260,16536,-1682,-4491,-2380,-24000,0,244000,97764,
-164,-4340,16508,-1718,-4526,-2284,-24000,0,244000,97767,
428,-4208,16352,-1626,-4803,-1922,-24000,0,244000,97779,
356,-4332,16372,-1613,-4813,-1902,-24000,0,244000,97781,
508,-4392,16372,-1592,-4881,-1848,-24000,0,244000,97784,
808,-4660,16568,-1546,-5184,-1838,-24000,-1000,244000,97796,
876,-4752,16472,-1512,-5264,-1842,-24000,-1000,244000,97798,
876,-4676,16536,-1521,-5320,-1851,-24000,-1000,244000,97800,
1004,-4804,16108,-1575,-5149,-1635,-24000,-1000,244000,97813,
1000,-4868,16108,-1621,-5096,-1556,-24000,-1000,244000,97815,
1080,-4908,16168,-1614,-5047,-1486,-24000,-1000,244000,97817,
1256,-5336,16008,-1630,-4966,-1169,-24000,-2000,244000,97830,
1116,-5348,15912,-1658,-4893,-1144,-24000,-2000,244000,97832,
1144,-5496,15976,-1649,-4873,-1097,-24000,-2000,244000,97834,
1320,-5672,15636,-1469,-4854,-1145,-24000,-3000,244000,97847,
1300,-5592,15692,-1400,-4817,-1110,-24000,-3000,244000,97849,
1648,-5784,15536,-1324,-4626,-909,-24000,-3000,244000,97861,
1684,-5604,15636,-1264,-4701,-858,-24000,-3000,244000,97863,
1600,-5584,15600,-1274,-4761,-777,-24000,-3000,244000,97866,
1768,-5792,15728,-1029,-4918,-575,-25000,-4000,245000,97878,
1792,-5736,15924,-1056,-4933,-579,-25000,-4000,245000,97880,
2192,-5140,15864,-1020,-5779,-259,-25000,-6000,245000,97921,
2272,-5144,15984,-1001,-5851,-217,-25000,-6000,245000,97923,
2276,-5300,15960,-1077,-5914,-182,-25000,-6000,245000,97926,
2108,-5392,16304,-1130,-6104,-54,-25000,-6000,246000,97938,
2120,-5444,16456,-1232,-6073,-6,-25000,-6000,246000,97940,
2132,-5524,16460,-1259,-6073,-13,-25000,-6000,246000,97943,
2228,-5392,16648,-1438,-6534,130,-25000,-7000,246000,97955,
2240,-5296,16764,-1456,-6621,135,-25000,-7000,246000,97957,
2308,-5232,16764,-1400,-6791,180,-25000,-7000,246000,97960,
2420,-5240,16668,-1465,-7223,368,-25000,-8000,246000,97972,
2420,-5312,16708,-1448,-7246,381,-25000,-8000,246000,97974,
2376,-5292,16652,-1527,-7248,470,-25000,-8000,246000,97977,
2856,-5372,16384,-1606,-7250,584,-25000,-9000,247000,97989,
2904,-5428,16104,-1654,-7213,592,-26000,-9000,247000,97991,
3072,-5556,15932,-1703,-7168,591,-26000,-9000,247000,97994,
3272,-5680,15704,-1738,-6819,617,-26000,-9000,247000,98006,
3416,-5700,15716,-1727,-6796,611,-26000,-10000,247000,98008,
3436,-5756,15888,-1650,-6768,605,-26000,-10000,247000,98010,
3700,-5644,16292,-1429,-6988,508,-26000,-10000,248000,98023,
3780,-5580,16512,-1338,-7113,481,-26000,-10000,248000,98025,
3708,-5504,16752,-1334,-7182,477,-26000,-10000,248000,98027,
3504,-5796,16208,-1267,-7936,190,-27000,-13000,249000,98071,
3532,-5784,15988,-1270,-7906,152,-27000,-13000,249000,98073,
3580,-5836,16056,-1255,-7828,91,-27000,-13000,249000,98076,
3956,-5892,15448,-1301,-7532,-153,-27000,-14000,250000,98088,
3944,-5848,15256,-1308,-7488,-185,-27000,-14000,250000,98090,
4092,-5988,15404,-1307,-7480,-206,-27000,-14000,250000,98092,
4232,-5952,14888,-1295,-7352,-182,-27000,-15000,250000,98105,
4248,-5948,14900,-1258,-7327,-163,-27000,-15000,250000,98107,
4248,-5984,14928,-1252,-7251,-119,-27000,-15000,250000,98109,
4912,-6116,14360,-1167,-6803,-119,-27000,-15000,250000,98122,
4892,-6188,14260,-1150,-6728,-110,-27000,-15000,250000,98124,
5644,-6064,13664,-690,-5941,-180,-27000,-16000,251000,98136,
5856,-6112,13432,-644,-5736,-244,-27000,-16000,251000,98139,
5928,-6128,13256,-606,-5510,-303,-27000,-16000,251000,98141,
6380,-5924,12192,-377,-4287,-581,-27000,-17000,251000,98153,
6596,-5884,12032,-305,-3964,-598,-27000,-17000,251000,98155,
6508,-5816,11972,-269,-3762,-577,-27000,-17000,251000,98158,
6692,-5480,11540,-85,-2139,-316,-28000,-17000,251000,98170,
6640,-5404,11496,4,-1783,-272,-28000,-17000,251000,98172,
6752,-5392,11368,2,-1443,-228,-28000,-17000,251000,98175,
7236,-5072,10984,163,757,-62,-27000,-17000,251000,98187,
5864,-5844,12224,-817,4588,-511,-27000,-16000,250000,98230,
5656,-5988,12428,-682,4540,-527,-27000,-16000,250000,98232,
5408,-6284,12864,-634,4508,-581,-27000,-16000,250000,98234,
5244,-7160,14196,210,4296,-747,-27000,-16000,250000,98247,
5092,-7216,14552,340,4239,-729,-27000,-15000,250000,98249,
5096,-7268,14848,432,4252,-761,-27000,-15000,250000,98251,
5408,-7328,16788,1195,3935,-747,-27000,-15000,249000,98263,
5388,-7376,16940,1317,3900,-768,-27000,-15000,249000,98266,
5480,-7108,17140,1432,3792,-745,-27000,-15000,249000,98268,
5988,-6072,18140,1625,3202,-648,-27000,-15000,249000,98280,
5928,-5916,18288,1652,3040,-636,-27000,-15000,249000,98283,
6028,-5656,18260,1568,2920,-548,-27000,-15000,249000,98285,
6236,-4768,18572,894,2656,-314,-26000,-15000,249000,98297,
6108,-4596,18548,674,2633,-256,-26000,-15000,249000,98300,
6052,-4600,18436,449,2660,-184,-26000,-14000,249000,98302,
6120,-4368,18552,-515,2684,27,-26000,-14000,249000,98314,
5128,-4332,18352,-642,2640,186,-26000,-14000,249000,98316,
5812,-4516,18528,-822,2695,126,-26000,-14000,249000,98319,
4840,-4716,18456,-1616,2108,428,-26000,-14000,249000,98331,
4416,-4848,18440,-1707,2027,502,-26000,-14000,249000,98333,
4316,-5016,18384,-1795,1881,576,-26000,-14000,249000,98335,
3464,-5300,18428,-2377,867,876,-27000,-14000,249000,98348,
4128,-5912,19152,-2673,-3830,1226,-28000,-15000,250000,98393,
4188,-5880,19048,-2633,-4065,1267,-28000,-15000,250000,98396,
4212,-6004,19252,-2628,-4238,1258,-28000,-15000,250000,98398,
4284,-6172,19024,-2287,-5294,1326,-28000,-15000,250000,98410,
4184,-6100,19000,-2259,-5468,1315,-28000,-15000,250000,98413,
4296,-6156,18844,-2153,-5669,1316,-28000,-15000,250000,98415,
4608,-6008,17856,-1541,-6016,1089,-28000,-16000,250000,98427,
4580,-6124,17836,-1436,-5978,1036,-28000,-16000,251000,98430,
4516,-6200,17912,-1360,-5891,1037,-28000,-16000,251000,98432,
4744,-6660,17020,-364,-5716,1159,-28000,-16000,251000,98444,
4760,-6720,17088,-25,-5987,1272,-28000,-16000,251000,98446,
4476,-7264,16528,2634,-6656,2556,-28000,-17000,252000,98459,
4588,-7192,16172,2946,-6306,2871,-28000,-17000,252000,98461,
4896,-7580,15956,3273,-5911,3092,-28000,-17000,252000,98463,
7420,-7388,16648,4557,-3774,2573,-28000,-17000,252000,98476,
7964,-7428,17052,4753,-3465,2145,-28000,-17000,252000,98478,
8264,-7360,17384,5053,-3168,1713,-28000,-17000,252000,98480,
8812,-7360,18216,6899,-1948,-666,-27000,-17000,252000,98493,
8732,-7184,18056,7315,-1696,-979,-27000,-18000,252000,98495,
8496,-6996,18180,7705,-1487,-1195,-27000,-18000,252000,98497,
9048,-4244,16248,9024,4385,1919,-23000,-16000,252000,98542,
8816,-4176,16104,8903,5099,1830,-23000,-16000,252000,98545,
7636,-4168,15996,8882,5412,2058,-23000,-16000,252000,98547,
7400,-4024,15724,8623,6463,2103,-22000,-15000,252000,98559,
7372,-4060,15696,8641,6679,2021,-22000,-15000,252000,98561,
7232,-4164,15620,8572,6768,1944,-22000,-15000,252000,98564,
6396,-4612,16180,8320,7997,1257,-21000,-14000,252000,98576,
6400,-4712,16156,8276,8223,1161,-21000,-14000,252000,98578,
6268,-4544,16192,8168,8604,1035,-21000,-14000,252000,98581,
6828,-4412,16404,7639,11566,625,-20000,-13000,251000,98593,
6992,-4212,16460,7498,12239,627,-20000,-13000,251000,98595,
7108,-4076,16300,7383,12993,650,-19000,-13000,251000,98597,
7020,-3788,16624,6502,17927,1295,-19000,-11000,251000,98610,
7696,-3608,16696,6292,18917,1704,-19000,-11000,251000,98612,
8752,-3556,16572,6128,19888,1684,-18000,-11000,251000,98614,
10104,-3020,15832,4711,28261,1757,-18000,-8000,250000,98627,
10380,-2692,15640,4397,30034,1720,-18000,-8000,250000,98629,
10420,-2612,15812,4051,31953,1761,-18000,-7000,250000,98631,
9440,-2408,13848,2370,32767,2564,-17000,-4000,249000,98644,
9272,-2428,13332,2023,32767,2709,-17000,-4000,249000,98646,
8744,-2400,11932,961,32767,3426,-17000,-1000,248000,98658,
-1708,-3464,8124,-1281,32767,5911,-18000,8000,247000,98697,
-2244,-3284,8000,-1531,32767,6246,-18000,9000,247000,98700,
-2724,-3056,7680,-1738,32767,6504,-18000,9000,247000,98702,
-6740,-2416,6976,-2764,32767,8945,-18000,13000,246000,98714,
-7080,-2304,6772,-2918,32767,9437,-18000,13000,246000,98717,
-7836,-2228,6540,-3112,32767,9936,-18000,14000,246000,98719,
-9760,-1648,4780,-4259,32767,12034,-19000,18000,247000,98731,
-10068,-1828,5172,-4515,32767,12146,-19000,18000,247000,98733,
-10336,-1772,5544,-4690,32767,12240,-19000,19000,247000,98736,
-12220,-2052,4268,-5014,32767,11877,-19000,22000,247000,98748,
-12388,-2148,3992,-5045,32767,11777,-19000,23000,247000,98750,
-13676,-3084,3372,-4638,32767,11424,-20000,27000,246000,98763,
-14048,-3028,3528,-4457,32767,11405,-20000,27000,246000,98765,
-14180,-2924,3492,-4341,32767,11458,-20000,28000,246000,98767,
-13692,-2800,2720,-3548,32767,10979,-20000,32000,246000,98780,
-13792,-2804,2848,-3371,32767,10846,-20000,32000,246000,98782,
-13696,-2668,2904,-3241,32767,10713,-21000,33000,246000,98784,
-12912,-2188,2020,-2803,32767,9554,-21000,36000,246000,98797,
-12768,-2020,1916,-2840,32767,9327,-21000,37000,246000,98799,
-12000,-1224,796,-3079,32767,8337,-22000,40000,245000,98811,
-11816,-1088,464,-3128,32767,8262,-22000,41000,245000,98814,
-11704,-896,-3712,-2272,32767,7770,-26000,56000,241000,98867,
-11816,-1148,-3864,-2074,32767,7776,-27000,56000,240000,98870,
-11876,-1152,-3956,-1881,32767,7741,-27000,57000,240000,98872,
-12372,-1156,-4012,-722,32767,7203,-29000,60000,238000,98884,
-11764,-1020,-4208,-432,32767,6799,-29000,61000,238000,98887,
-12540,-940,-4332,-61,32767,6447,-30000,62000,237000,98889,
-14332,-344,-4040,808,32767,6292,-32000,65000,235000,98901,
-14040,0,-3972,955,32767,6071,-32000,65000,234000,98904,
-14224,64,-3644,1111,32767,5960,-33000,66000,234000,98906,
-12928,384,-4124,2577,30807,4628,-36000,69000,230000,98918,
-12576,444,-4372,2646,29841,4332,-37000,69000,229000,98921,
-12124,368,-4532,2755,29044,4014,-37000,70000,229000,98923,
-10052,-176,-5980,3302,26117,2531,-42000,72000,224000,98935,
-9732,-184,-6444,3275,25760,2269,-42000,72000,223000,98938,
-9480,-360,-6456,3284,25427,2042,-43000,73000,222000,98940,
-9428,-844,-7088,3557,22800,1158,-49000,75000,216000,98952,
-9676,-940,-7740,3663,22378,1051,-50000,75000,214000,98955,
-9960,-1092,-7784,3740,21803,1005,-51000,75000,213000,98957,
-11064,-1104,-8176,5267,18365,-61,-58000,76000,206000,98969,
-12960,-1684,-10176,5236,18211,104,-59000,77000,205000,98972,
-12900,-124,-11592,6697,6790,-1705,-69000,77000,193000,99009,
-12552,-268,-12096,6537,6226,-1801,-69000,77000,192000,99011,
-12436,-932,-11600,6515,5377,-2117,-70000,77000,191000,99013,
-14588,-1188,-12072,7248,-484,-2500,-70000,77000,190000,99026,
-14900,-892,-12188,7317,-1556,-2547,-70000,77000,190000,99028,
-15184,-684,-12164,7263,-2515,-2544,-70000,77000,190000,99030,
-15188,456,-12888,7180,-7145,-2860,-68000,77000,192000,99043,
-15088,508,-13024,7078,-7928,-2887,-68000,77000,192000,99045,
-14096,52,-13712,6599,-10907,-3448,-64000,76000,195000,99057,
-13684,-80,-13756,6385,-11190,-3517,-64000,76000,195000,99059,
-13604,-132,-13696,6196,-11418,-3605,-63000,76000,196000,99062,
-13324,-248,-13524,5059,-12298,-3903,-60000,75000,198000,99074,
-13412,-320,-13236,4856,-12443,-3984,-60000,75000,199000,99076,
-13456,-424,-13108,4720,-12693,-4023,-59000,75000,199000,99079,
-14832,-884,-12248,3987,-14428,-4065,-56000,74000,202000,99091,
-15212,-1044,-12288,3954,-14967,-4079,-55000,74000,203000,99093,
-16820,-1512,-11736,4115,-19425,-4010,-51000,73000,207000,99106,
-17192,-1688,-11616,4340,-20563,-3934,-51000,73000,207000,99108,
-17616,-1708,-11740,4461,-21698,-3880,-50000,72000,208000,99110,
-20216,-2412,-11660,6283,-28890,-4795,-44000,70000,213000,99123,
-21308,-2712,-11620,6201,-30625,-4322,-43000,70000,214000,99125,
-21104,-1152,-12940,5917,-32768,-2827,-38000,68000,219000,99138,
-21140,-2632,-9348,6607,-32768,-4720,-28000,59000,228000,99177,
-21220,-2592,-9336,6664,-32768,-4679,-28000,59000,229000,99179,
-21384,-2608,-9240,6680,-32768,-4547,-27000,58000,229000,99182,
-21860,-1800,-9080,5875,-32768,-4024,-25000,56000,231000,99194,
-21976,-1708,-8704,5607,-32768,-3939,-25000,55000,231000,99196,
-22036,-1808,-8000,5396,-32768,-3828,-25000,55000,231000,99199,
-22448,-2120,-5416,4426,-32768,-3479,-23000,52000,233000,99211,
-22528,-2184,-4324,4118,-32768,-3428,-23000,51000,233000,99213,
-22628,-2384,-1404,4166,-32768,-3163,-21000,49000,235000,99226,
-22764,-2468,-1412,4284,-32768,-2917,-21000,48000,235000,99228,
-22876,-2464,-1520,4289,-32768,-2671,-21000,48000,235000,99230,
-22516,-2436,-1804,3983,-32768,-122,-19000,45000,237000,99243,
-22576,-2560,-1996,3819,-32768,310,-19000,44000,237000,99245,
-21928,-2284,-2432,3605,-32768,786,-19000,44000,237000,99247,
-19396,-1916,-4164,2319,-32768,3159,-17000,41000,239000,99260,
-18992,-2108,-4604,2168,-32768,3504,-17000,41000,239000,99262,
-16116,-3008,-4732,1320,-32768,5262,-16000,38000,241000,99275,
