Ax,Ay,Az,Gx,Gy,Gz,Roll,Pitch,Yaw,Timestamp,Target
3492,-2072,16396,-465,102,59,-13000,-9000,170000,212511,
3512,-2096,16372,-441,144,31,-13000,-9000,170000,212514,
3616,-2028,16372,-443,224,-11,-13000,-9000,170000,212526,
3428,-2216,16424,-433,154,19,-13000,-9000,170000,212529,
3536,-2052,16300,-452,204,17,-13000,-9000,170000,212531,
3532,-2016,16472,-429,159,27,-13000,-9000,170000,212544,
3432,-2100,16552,-448,231,16,-13000,-9000,170000,212546,
3512,-2032,16444,-391,173,47,-13000,-9000,170000,212548,
3520,-2092,16404,-419,80,28,-13000,-9000,170000,212561,
3488,-2088,16484,-446,78,2,-13000,-9000,170000,212563,
3448,-1968,16560,-493,69,19,-13000,-9000,170000,212565,
3464,-2040,16420,-411,4,-11,-13000,-9000,170000,212578,
3440,-2128,16372,-455,-7,9,-13000,-9000,170000,212580,
3508,-2088,16392,-420,-15,-9,-13000,-9000,170000,212583,
3476,-2032,16320,-457,-4,-15,-13000,-9000,170000,212595,
3468,-2088,16348,-438,-73,8,-13000,-9000,170000,212598,
3524,-2100,16496,-457,-70,-12,-13000,-9000,170000,212600,
3572,-2068,16492,-451,-84,14,-13000,-9000,170000,212613,
3560,-2096,16488,-425,-102,12,-13000,-9000,170000,212615,
3600,-2056,16336,-420,-143,15,-13000,-9000,170000,212617,
3644,-2076,16668,-415,-83,-25,-13000,-9000,170000,212630,
3708,-2080,16456,-431,-88,0,-13000,-9000,170000,212632,
3584,-2112,16340,-468,-44,-12,-13000,-9000,170000,212635,
3612,-2072,16356,-428,-1,-8,-13000,-9000,170000,212647,
3644,-2108,16416,-419,35,-35,-13000,-9000,170000,212650,
3636,-2048,16556,-394,14,-9,-13000,-9000,170000,212652,
3616,-2064,16364,-455,132,-13,-13000,-9000,170000,212665,
3544,-2048,16376,-415,106,-20,-13000,-9000,170000,212667,
3620,-2052,16344,-426,106,11,-13000,-9000,170000,212669,
3576,-2072,16368,-436,107,25,-13000,-9000,170000,212682,
3600,-2032,16488,-442,130,-2,-13000,-9000,170000,212684,
3576,-2144,16348,-416,75,2,-13000,-9000,170000,212687,
3572,-2096,16344,-431,87,15,-13000,-9000,170000,212699,
3528,-2000,16428,-414,61,12,-13000,-9000,170000,212702,
3592,-2068,16164,-485,98,-3,-13000,-9000,170000,212704,
3504,-2072,16388,-416,44,59,-13000,-9000,170000,212717,
3504,-2080,16472,-413,78,37,-13000,-9000,170000,212719,
3508,-2076,16460,-364,2,28,-13000,-9000,170000,212721,
3608,-2076,16348,-464,80,40,-13000,-9000,170000,212738,
3580,-2092,16348,-478,102,7,-13000,-9000,170000,212740,
3672,-2124,16452,-411,86,16,-13000,-9000,170000,212742,
3648,-1984,16384,-423,137,-21,-13000,-9000,170000,212755,
3656,-2116,16452,-431,78,3,-13000,-9000,170000,212757,
3592,-2096,16420,-430,130,25,-13000,-9000,170000,212760,
3540,-2096,16356,-441,178,26,-13000,-9000,170000,212772,
3608,-2092,16336,-450,188,-17,-13000,-9000,170000,212775,
3612,-2080,16404,-384,147,24,-13000,-9000,170000,212777,
3564,-2036,16496,-420,162,-19,-13000,-9000,170000,212790,
3604,-2108,16472,-394,120,20,-13000,-9000,170000,212792,
3528,-2096,16268,-451,126,30,-13000,-9000,170000,212794,
3424,-2076,16364,-433,116,8,-13000,-9000,170000,212807,
3500,-2064,16420,-432,152,25,-13000,-9000,170000,212809,
3632,-1988,16416,-411,151,24,-13000,-9000,170000,212811,
3524,-2032,16252,-426,126,5,-13000,-9000,170000,212824,
3540,-2096,16468,-393,88,35,-13000,-9000,170000,212826,
3524,-2008,16460,-473,114,12,-13000,-9000,170000,212829,
3668,-2032,16256,-452,73,28,-13000,-9000,170000,212841,
3540,-2076,16392,-449,86,3,-13000,-9000,170000,212844,
3552,-2100,16380,-414,74,26,-13000,-9000,170000,212846,
3496,-2020,16284,-439,125,-17,-13000,-9000,170000,212859,
3592,-2100,16448,-426,70,48,-13000,-9000,170000,212861,
3604,-2052,16344,-458,116,37,-13000,-9000,170000,212863,
3684,-2096,16380,-449,89,15,-13000,-9000,170000,212876,
3616,-2108,16420,-452,140,23,-13000,-9000,170000,212878,
3556,-2124,16452,-427,72,8,-13000,-9000,170000,212881,
3592,-2088,16372,-428,154,-27,-13000,-9000,170000,212893,
3616,-2180,16288,-406,143,14,-13000,-9000,170000,212896,
3656,-2088,16424,-421,165,23,-13000,-9000,170000,212898,
3460,-2084,16376,-454,160,37,-13000,-9000,170000,212911,
3640,-2088,16364,-453,201,17,-13000,-9000,170000,212913,
3672,-1972,16456,-404,170,35,-13000,-9000,170000,212915,
3564,-2008,16464,-442,211,3,-13000,-9000,170000,212928,
3508,-2044,16564,-419,201,42,-13000,-9000,170000,212930,
3456,-2132,16448,-454,180,21,-13000,-9000,170000,212933,
3576,-2100,16428,-431,164,31,-13000,-9000,170000,212945,
3516,-2088,16496,-438,202,2,-13000,-9000,170000,212948,
3576,-2064,16576,-418,153,36,-13000,-9000,170000,212950,
3604,-2068,16560,-398,186,-23,-13000,-9000,170000,212963,
3612,-1976,16456,-441,169,31,-13000,-9000,170000,212965,
3604,-1936,16504,-465,171,39,-13000,-9000,170000,212967,
3564,-2100,16364,-449,141,40,-13000,-9000,170000,212980,
3580,-2100,16328,-428,192,20,-13000,-9000,170000,212982,
3560,-2076,16496,-389,116,11,-13000,-9000,170000,212984,
3636,-2032,16400,-412,157,-1,-13000,-9000,170000,212997,
3624,-2044,16396,-431,142,44,-13000,-9000,170000,212999,
3616,-2112,16460,-439,148,3,-13000,-9000,170000,213002,
3728,-1988,16496,-435,151,50,-13000,-9000,170000,213014,
3668,-2116,16460,-426,203,21,-13000,-9000,170000,213017,
3692,-2092,16380,-388,155,52,-13000,-9000,170000,213019,
3612,-1992,16496,-413,205,32,-13000,-9000,170000,213032,
3536,-1988,16356,-406,169,27,-13000,-9000,170000,213034,
3688,-2108,16440,-448,182,48,-13000,-9000,170000,213036,
3632,-2068,16352,-447,189,57,-13000,-9000,170000,213049,
3620,-1964,16396,-429,271,47,-13000,-9000,170000,213051,
3636,-2108,16500,-407,213,65,-13000,-9000,170000,213054,
3644,-2104,16416,-401,272,62,-13000,-9000,170000,213066,
3620,-1996,16476,-408,234,79,-13000,-9000,170000,213069,
3656,-2020,16364,-439,309,85,-13000,-9000,170000,213071,
3576,-2040,16300,-461,321,78,-13000,-9000,170000,213084,
3532,-2092,16344,-425,388,54,-13000,-9000,170000,213086,
3588,-2048,16500,-414,340,64,-13000,-9000,170000,213088,
3572,-2140,16408,-382,373,64,-13000,-9000,170000,213101,
3536,-2120,16364,-431,360,71,-13000,-9000,170000,213103,
3500,-2012,16532,-431,379,33,-13000,-9000,170000,213106,
3512,-1992,16500,-436,285,41,-13000,-9000,170000,213118,
3480,-2152,16368,-407,309,13,-13000,-9000,170000,213120,
3444,-2044,16320,-431,246,44,-13000,-9000,170000,213123,
3448,-2124,16420,-403,171,38,-13000,-9000,170000,213135,
3508,-2116,16336,-437,166,64,-13000,-9000,170000,213138,
3416,-2088,16308,-454,172,34,-13000,-9000,170000,213140,
3400,-2132,16500,-461,69,20,-13000,-9000,170000,213153,
3452,-2032,16456,-405,81,25,-13000,-9000,170000,213155,
3524,-2040,16368,-401,70,44,-13000,-9000,170000,213157,
3584,-2060,16464,-400,81,12,-13000,-9000,170000,213170,
3508,-2084,16556,-459,27,33,-13000,-9000,170000,213172,
3560,-2104,16364,-439,104,35,-13000,-9000,170000,213175,
3664,-2112,16456,-426,78,11,-13000,-9000,170000,213187,
3516,-2132,16384,-409,122,18,-13000,-9000,170000,213190,
3544,-1988,16380,-435,99,8,-13000,-9000,170000,213192,
3824,-1972,16316,-419,132,40,-13000,-9000,170000,213205,
3612,-2216,16484,-422,135,27,-13000,-9000,170000,213207,
3756,-2152,16488,-421,197,16,-13000,-9000,170000,213209,
3648,-2080,16448,-450,191,43,-13000,-9000,170000,213222,
3572,-2028,16484,-404,178,50,-13000,-9000,170000,213224,
3628,-2016,16376,-429,177,41,-13000,-9000,170000,213227,
3652,-2016,16576,-410,241,66,-13000,-9000,170000,213239,
3568,-2076,16264,-437,245,68,-13000,-9000,170000,213242,
3556,-2100,16348,-430,254,21,-13000,-9000,170000,213244,
3632,-2064,16400,-453,224,50,-13000,-9000,170000,213257,
3488,-2048,16536,-405,249,21,-13000,-9000,170000,213259,
3520,-2060,16500,-461,236,21,-13000,-9000,170000,213271,
3612,-2132,16340,-405,174,44,-13000,-9000,170000,213274,
3420,-2024,16344,-428,178,47,-13000,-9000,170000,213276,
3452,-2028,16556,-419,137,32,-13000,-9000,170000,213289,
3436,-2116,16608,-463,155,66,-13000,-9000,170000,213291,
3596,-2168,16508,-419,177,-23,-13000,-9000,170000,213293,
3556,-2132,16316,-432,99,-7,-13000,-9000,170000,213306,
3564,-2052,16440,-384,79,-29,-13000,-9000,170000,213308,
3460,-2028,16448,-438,53,-10,-13000,-9000,170000,213311,
3520,-2044,16384,-454,11,-27,-13000,-9000,170000,213323,
3504,-1972,16444,-462,17,11,-13000,-9000,170000,213326,
3492,-2088,16360,-390,23,-23,-13000,-9000,170000,213328,
3664,-2064,16420,-442,11,20,-13000,-9000,170000,213341,
3620,-2072,16328,-401,6,35,-13000,-9000,170000,213343,
3560,-2008,16248,-431,0,37,-13000,-9000,170000,213345,
3684,-2072,16328,-444,42,14,-13000,-9000,170000,213348,
3640,-1972,16384,-459,113,28,-13000,-9000,170000,213360,
3680,-2008,16428,-418,110,5,-13000,-9000,170000,213363,
3744,-2136,16432,-454,69,26,-13000,-9000,170000,213365,
3608,-2092,16356,-401,165,18,-13000,-9000,170000,213378,
3640,-2120,16384,-422,162,25,-13000,-9000,170000,213380,
3544,-2088,16476,-469,217,34,-13000,-9000,170000,213382,
3632,-2076,16436,-439,220,36,-13000,-9000,170000,213395,
3648,-2060,16396,-421,255,16,-13000,-9000,170000,213397,
3556,-2120,16516,-414,199,40,-13000,-9000,170000,213400,
3592,-1988,16380,-395,200,11,-13000,-9000,170000,213412,
3656,-2208,16220,-445,159,27,-13000,-9000,170000,213415,
3480,-2124,16408,-464,180,21,-13000,-9000,170000,213417,
3544,-2128,16404,-442,82,43,-13000,-9000,170000,213430,
3524,-2020,16436,-422,137,39,-13000,-9000,170000,213432,
3540,-2060,16428,-443,61,18,-13000,-9000,170000,213434,
3676,-2120,16436,-419,15,2,-13000,-9000,170000,213447,
3656,-2124,16408,-436,8,51,-13000,-9000,170000,213449,
3632,-2044,16324,-448,55,26,-13000,-9000,170000,213452,
3540,-2064,16444,-420,8,23,-13000,-9000,170000,213454,
3572,-2104,16600,-415,26,18,-13000,-9000,170000,213467,
3688,-2072,16372,-403,35,19,-13000,-9000,170000,213469,
3620,-2184,16500,-464,31,46,-13000,-9000,170000,213471,
3652,-2148,16228,-442,35,20,-13000,-9000,170000,213484,
3688,-2036,16360,-445,105,11,-13000,-9000,170000,213486,
3772,-2176,16492,-422,42,-13,-13000,-9000,170000,213489,
3680,-2004,16448,-400,90,26,-13000,-9000,170000,213501,
3592,-2044,16456,-402,50,35,-13000,-9000,170000,213504,
3688,-2076,16496,-430,49,50,-13000,-9000,170000,213506,
3772,-2112,16240,-462,116,7,-13000,-9000,170000,213519,
3704,-2048,16340,-471,151,-12,-13000,-9000,170000,213521,
3700,-2072,16400,-393,138,10,-13000,-9000,170000,213523,
3680,-2012,16372,-382,220,-9,-13000,-9000,170000,213536,
3700,-2044,16332,-444,236,13,-13000,-9000,170000,213538,
3680,-2044,16508,-443,240,-1,-13000,-9000,170000,213541,
3596,-2096,16304,-443,196,37,-13000,-9000,170000,213553,
3596,-2088,16260,-444,224,2,-13000,-9000,170000,213556,
3572,-2044,16392,-409,196,16,-13000,-9000,170000,213558,
3552,-1960,16544,-389,164,2,-13000,-9000,169000,213571,
3636,-2024,16360,-422,110,4,-13000,-9000,169000,213573,
3684,-2028,16504,-452,135,-7,-13000,-9000,169000,213576,
3660,-2156,16276,-450,51,56,-13000,-9000,169000,213588,
3536,-2084,16452,-434,121,0,-13000,-9000,169000,213591,
3628,-2052,16416,-429,50,42,-13000,-9000,169000,213593,
3712,-2096,16504,-407,87,35,-13000,-9000,169000,213606,
3612,-2024,16552,-462,96,31,-13000,-9000,169000,213608,
3624,-2012,16396,-456,83,21,-13000,-9000,169000,213610,
3732,-2052,16476,-456,123,45,-13000,-9000,169000,213623,
3620,-2004,16352,-429,167,13,-13000,-9000,169000,213625,
3720,-2052,16372,-417,132,25,-13000,-9000,169000,213628,
3544,-2104,16552,-411,184,28,-13000,-9000,169000,213640,
3632,-2136,16512,-422,174,26,-13000,-9000,169000,213643,
3572,-2036,16424,-448,182,33,-13000,-9000,169000,213645,
3560,-2044,16420,-447,211,26,-13000,-9000,169000,213658,
3668,-2016,16340,-417,232,-15,-13000,-9000,169000,213660,
3672,-1912,16452,-436,234,13,-13000,-9000,169000,213673,
3712,-2064,16380,-386,182,-2,-13000,-9000,169000,213675,
3656,-2072,16356,-417,202,12,-13000,-9000,169000,213677,
3568,-2092,16388,-448,169,16,-13000,-9000,169000,213690,
3720,-2164,16464,-437,178,21,-13000,-9000,169000,213692,
3612,-2008,16364,-434,172,-2,-13000,-9000,169000,213695,
3612,-2056,16392,-439,164,15,-13000,-9000,169000,213707,
3596,-2056,16380,-416,75,39,-13000,-9000,169000,213710,
3580,-2092,16384,-438,90,51,-13000,-9000,169000,213712,
3660,-2216,16356,-422,121,38,-13000,-9000,169000,213724,
3776,-2028,16412,-452,133,26,-13000,-9000,169000,213727,
3700,-2100,16500,-414,151,53,-13000,-9000,169000,213729,
3748,-2172,16264,-436,229,10,-13000,-9000,169000,213742,
3692,-2068,16360,-376,188,27,-13000,-9000,169000,213744,
3680,-2052,16400,-439,196,28,-13000,-9000,169000,213746,
3696,-2124,16436,-419,244,28,-13000,-9000,169000,213759,
3652,-2112,16496,-438,236,26,-13000,-9000,169000,213761,
3640,-2064,16428,-415,264,-11,-13000,-9000,169000,213764,
3676,-2048,16476,-446,256,4,-13000,-9000,169000,213777,
3580,-2084,16352,-391,246,25,-13000,-9000,169000,213779,
3692,-2180,16372,-443,225,42,-13000,-9000,169000,213781,
3644,-2024,16420,-432,166,21,-13000,-9000,169000,213794,
3576,-2252,16336,-442,244,61,-13000,-9000,169000,213796,
3644,-2116,16408,-408,210,9,-13000,-9000,169000,213799,
3560,-2028,16464,-444,196,24,-13000,-9000,169000,213811,
3616,-2184,16476,-408,171,51,-13000,-9000,169000,213814,
3660,-2144,16420,-428,164,61,-13000,-9000,169000,213816,
3632,-1984,16336,-431,155,49,-13000,-9000,169000,213828,
3692,-1992,16492,-433,208,26,-13000,-9000,169000,213831,
3640,-1972,16380,-403,130,7,-13000,-9000,169000,213833,
3688,-2064,16396,-430,198,12,-13000,-9000,169000,213846,
3672,-2088,16436,-396,131,34,-13000,-9000,169000,213848,
3584,-2088,16224,-429,171,30,-13000,-9000,169000,213850,
3700,-2048,16596,-412,157,43,-13000,-9000,169000,213863,
3620,-2080,16420,-449,165,45,-13000,-9000,169000,213865,
3692,-2140,16364,-410,188,22,-13000,-9000,169000,213868,
3584,-2132,16392,-426,206,12,-13000,-9000,169000,213880,
3656,-1972,16472,-420,180,56,-13000,-9000,169000,213883,
3672,-2036,16596,-463,190,39,-13000,-9000,169000,213885,
3604,-2132,16376,-454,186,27,-13000,-9000,169000,213898,
3684,-2060,16292,-426,228,0,-13000,-9000,169000,213900,
3616,-2028,16444,-444,161,29,-13000,-9000,169000,213902,
3624,-2116,16292,-428,205,14,-13000,-9000,169000,213915,
3684,-2012,16384,-445,153,42,-13000,-9000,169000,213917,
3624,-2032,16376,-458,187,44,-13000,-9000,169000,213920,
3648,-1880,16340,-423,176,64,-13000,-9000,169000,213932,
3600,-2024,16420,-445,204,36,-13000,-9000,169000,213935,
3592,-2160,16384,-387,149,21,-13000,-9000,169000,213937,
3628,-2032,16456,-406,194,18,-13000,-9000,169000,213950,
3620,-2108,16560,-438,168,39,-13000,-9000,169000,213952,
3704,-1996,16412,-468,201,19,-13000,-9000,169000,213954,
3580,-2028,16368,-457,167,51,-13000,-9000,169000,213967,
3660,-2072,16432,-411,234,-2,-13000,-9000,169000,213969,
3596,-2032,16352,-423,170,40,-13000,-9000,169000,213972,
3664,-2120,16380,-411,168,1,-13000,-9000,169000,213984,
3652,-2032,16352,-439,126,36,-13000,-9000,169000,213987,
3576,-2060,16416,-448,143,39,-13000,-9000,169000,213989,
3716,-2056,16216,-452,104,43,-13000,-9000,169000,214002,
3732,-2100,16424,-428,161,-13,-13000,-9000,169000,214004,
3676,-2156,16420,-400,121,18,-13000,-9000,169000,214006,
3692,-2056,16560,-380,159,6,-13000,-9000,169000,214019,
3772,-1972,16388,-428,151,24,-13000,-9000,169000,214021,
3656,-2044,16468,-444,199,44,-13000,-9000,169000,214024,
3792,-2096,16500,-434,217,21,-13000,-9000,169000,214036,
3696,-2116,16440,-425,249,41,-13000,-9000,169000,214039,
3780,-2112,16256,-409,198,29,-13000,-9000,169000,214041,
3752,-2084,16428,-382,279,14,-13000,-9000,169000,214054,
3860,-2076,16396,-431,299,37,-13000,-9000,169000,214056,
3724,-2104,16480,-415,291,22,-13000,-9000,169000,214058,
3748,-2084,16400,-420,314,45,-13000,-9000,169000,214071,
3720,-2108,16552,-381,416,-10,-13000,-9000,169000,214073,
3856,-1996,16464,-385,391,23,-13000,-9000,169000,214076,
3888,-2156,16404,-340,598,-32,-13000,-9000,169000,214088,
3916,-2020,16524,-365,609,-10,-13000,-9000,169000,214091,
3932,-2128,16464,-380,672,-27,-13000,-9000,169000,214093,
3956,-2040,16592,-334,920,15,-13000,-9000,169000,214106,
3992,-2028,16652,-336,1046,-27,-13000,-9000,169000,214108,
3932,-2072,16696,-325,1067,16,-13000,-9000,169000,214110,
3936,-2036,16664,-320,1471,-51,-13000,-9000,169000,214123,
3960,-2020,16500,-328,1519,-31,-13000,-9000,169000,214125,
3956,-2012,16608,-334,1600,-6,-13000,-9000,169000,214128,
3992,-2136,16900,-308,1827,58,-13000,-9000,169000,214140,
3952,-2280,16896,-316,1866,35,-13000,-9000,169000,214142,
3848,-2256,17128,-262,1847,37,-13000,-9000,169000,214145,
4192,-2324,17124,-183,2445,52,-13000,-8000,169000,214157,
3996,-2312,17120,-160,2530,107,-13000,-8000,169000,214160,
4084,-2312,17080,-121,2737,118,-13000,-8000,169000,214162,
4264,-2292,17472,230,3703,203,-13000,-8000,169000,214175,
4252,-2296,17264,321,3823,211,-13000,-8000,169000,214177,
4304,-2188,17132,427,4212,737,-13000,-8000,169000,214190,
4336,-2176,17192,412,4341,730,-13000,-7000,169000,214192,
4300,-2028,17056,328,4316,771,-13000,-7000,169000,214194,
3984,-2264,17412,104,4613,1036,-13000,-7000,169000,214207,
3880,-2396,17328,15,4757,1076,-13000,-7000,169000,214209,
3720,-2456,17380,10,5023,1161,-13000,-7000,169000,214212,
3192,-2832,17884,415,6236,1381,-13000,-6000,169000,214224,
3292,-2728,17924,649,6472,1323,-13000,-6000,169000,214227,
3280,-2780,17712,782,6616,1250,-13000,-6000,169000,214229,
3684,-2544,17344,1080,6480,577,-13000,-5000,169000,214242,
3724,-2480,17536,1159,6418,492,-13000,-5000,169000,214244,
3700,-2456,17496,1242,6421,390,-13000,-5000,169000,214247,
3720,-2120,17840,1654,7175,-40,-12000,-5000,168000,214259,
3660,-2048,17704,1889,7555,-108,-12000,-4000,168000,214262,
3920,-1980,17928,1934,8014,-133,-12000,-4000,168000,214264,
4368,-2212,19008,2580,10761,-172,-12000,-3000,168000,214277,
4336,-2376,18972,2572,11225,-235,-12000,-3000,168000,214279,
4364,-2404,19088,2657,11679,-294,-12000,-3000,168000,214281,
3712,-2768,19884,3393,13310,-732,-11000,-2000,168000,214294,
3496,-2712,19972,3578,13652,-770,-11000,-1000,168000,214296,
3172,-2572,19724,3613,14011,-782,-11000,-1000,168000,214299,
2244,-2636,19764,4065,16560,-635,-11000,0,167000,214311,
1960,-2604,19476,4125,17064,-651,-11000,0,167000,214314,
1976,-2488,19548,4272,17559,-585,-11000,0,167000,214316,
1256,-2380,19104,4758,19015,-352,-10000,2000,167000,214329,
1072,-2308,18876,4894,19158,-322,-10000,2000,167000,214331,
692,-2208,18952,4907,19215,-187,-10000,2000,166000,214333,
352,-1932,18476,5309,20101,-18,-10000,4000,166000,214346,
276,-1820,18572,5345,20027,-47,-9000,5000,166000,214348,
84,-1908,18468,5463,20170,-87,-9000,5000,166000,214351,
-316,-1712,18088,6013,21173,55,-9000,7000,166000,214363,
-172,-1656,17820,6064,21313,197,-9000,7000,166000,214365,
-188,-1704,18068,6040,21454,357,-9000,8000,166000,214368,
124,-1208,17160,6417,24015,650,-8000,10000,165000,214380,
236,-1132,17184,6405,24751,562,-8000,10000,165000,214383,
292,-988,17188,6590,25393,455,-8000,11000,165000,214385,
348,-900,16384,6376,29912,327,-7000,13000,165000,214398,
416,-824,16140,6358,30818,368,-7000,14000,165000,214400,
368,-584,15956,6311,31807,459,-7000,15000,165000,214402,
-292,-200,15296,5680,32767,1075,-6000,18000,164000,214415,
-560,-316,15020,5721,32767,1156,-6000,18000,164000,214417,
-576,-352,14988,5723,32767,1155,-6000,19000,164000,214420,
-1864,-188,14348,5092,32767,1988,-6000,22000,164000,214432,
-2048,-92,14164,5061,32767,2056,-6000,22000,164000,214435,
-2116,116,13880,4919,32767,2105,-6000,23000,164000,214437,
-3368,296,13272,4554,32767,2290,-5000,26000,164000,214450,
-3432,236,13088,4428,32767,2331,-5000,27000,164000,214452,
-3556,332,12556,4384,32767,2403,-5000,27000,164000,214454,
-4708,836,10504,3006,32767,2961,-5000,30000,164000,214467,
-5032,816,11028,3130,32767,2989,-5000,31000,164000,214469,
-5140,748,10788,3035,32767,3136,-5000,32000,164000,214472,
-6268,1256,8832,2729,32767,4733,-4000,35000,164000,214484,
-6332,1284,8412,2609,32767,5623,-4000,35000,164000,214487,
-6452,1376,7920,2464,32767,6390,-4000,36000,164000,214489,
-7940,1400,6372,1649,32767,10550,-3000,39000,165000,214502,
-8200,1280,6224,1593,32767,11360,-3000,40000,166000,214504,
-8316,1452,5980,1616,32767,12230,-3000,41000,166000,214507,
-7360,2132,4360,1328,32767,15215,-1000,44000,168000,214519,
-7724,2240,4396,1374,32767,15531,-1000,45000,168000,214522,
-7408,2564,4192,1596,32767,15783,0,45000,169000,214524,
-5528,3832,2076,2079,32767,15498,1000,49000,171000,214537,
-5168,3108,-224,2179,32767,14693,1000,49000,172000,214539,
-5288,2724,-856,1640,32767,14303,2000,50000,172000,214542,
-9116,5408,-6532,732,32767,14889,4000,53000,175000,214554,
-11532,5504,-7512,-325,32767,14646,4000,54000,175000,214557,
-10720,5096,-2156,535,32767,14186,5000,54000,176000,214559,
-16540,4516,-4284,1673,32767,13732,8000,58000,179000,214572,
-16664,3624,-6480,1423,32767,13563,9000,58000,180000,214574,
-18256,2648,-7284,961,32767,13257,9000,59000,181000,214577,
-20620,3072,-4680,3806,32767,14388,13000,62000,185000,214589,
-21048,3312,-3280,3210,32767,13358,14000,63000,186000,214592,
-23536,4376,-3040,2702,32767,12437,15000,63000,187000,214594,
-25156,5432,-668,3766,32767,8406,19000,66000,191000,214607,
-26396,5104,-1248,3975,32767,6906,20000,67000,192000,214610,
-24884,5040,-436,3580,32767,5976,21000,67000,193000,214612,
-22160,4536,-636,4275,16217,3096,24000,69000,196000,214625,
-20944,4704,-536,4131,13080,3307,25000,69000,196000,214627,
-20632,4352,-988,4349,10129,3504,25000,69000,196000,214630,
-13772,4556,-3688,4877,-59,3819,27000,69000,198000,214646,
-13208,4584,-3844,4663,-1078,3538,28000,69000,198000,214648,
-12420,4432,-3788,4435,-1845,3331,28000,69000,199000,214651,
-10492,4480,-4060,3880,-3627,1894,29000,69000,199000,214664,
-10300,4480,-4252,4100,-3355,1737,29000,69000,199000,214666,
-10360,4520,-4680,4073,-3256,1536,29000,69000,199000,214668,
-10744,4788,-4720,3507,-479,1172,30000,69000,200000,214681,
-10872,4980,-4668,3509,156,1111,30000,69000,200000,214684,
-10884,5028,-4876,3457,800,1073,31000,69000,200000,214686,
-11632,5136,-4896,3333,3749,931,32000,69000,202000,214699,
-11684,5124,-4920,3259,4143,949,33000,69000,202000,214701,
-11756,4972,-5132,3269,4556,834,33000,69000,202000,214704,
-12448,4828,-5544,2845,6059,439,35000,70000,204000,214716,
-12656,5036,-5680,3038,5953,304,35000,70000,204000,214719,
-12680,4936,-5928,2946,5866,152,35000,70000,204000,214721,
-13564,4516,-6164,2678,4809,-176,37000,71000,206000,214734,
-13616,4492,-6104,2761,4514,-261,37000,71000,206000,214737,
-13892,4540,-6172,2809,4174,-242,38000,71000,206000,214739,
-14284,4704,-6056,2323,1940,-431,39000,71000,207000,214752,
-14376,4808,-5956,2293,1427,-430,39000,71000,207000,214754,
-14284,4780,-5896,2219,1007,-460,39000,71000,207000,214757,
-14552,4860,-6124,1874,-1122,-555,39000,71000,207000,214770,
-14584,4868,-5928,1821,-1484,-587,39000,71000,207000,214772,
-14516,4852,-5988,1770,-1961,-613,39000,71000,207000,214774,
-14776,4680,-5988,1552,-3946,-891,39000,71000,207000,214787,
-14928,4784,-6084,1445,-4274,-943,39000,71000,207000,214790,
-14776,4816,-6120,1364,-4545,-943,39000,71000,207000,214792,
-14952,4776,-6052,1007,-6042,-975,38000,71000,206000,214805,
-14856,4724,-6256,937,-6395,-972,38000,71000,205000,214807,
-14888,4740,-6104,894,-6830,-984,38000,71000,205000,214810,
-15204,4712,-6040,505,-9164,-1237,37000,70000,204000,214822,
-15436,4540,-5672,458,-9498,-1222,36000,70000,203000,214825,
-15448,4436,-5460,490,-9907,-1229,36000,70000,203000,214827,
-15972,4392,-4532,-16,-12785,-1231,34000,69000,201000,214840,
-15904,4424,-4580,-11,-13372,-1247,34000,69000,201000,214842,
-16048,4452,-4432,-55,-14146,-1196,33000,69000,200000,214845,
-16396,4240,-4156,-381,-18349,-1179,31000,68000,198000,214858,
-16464,4360,-4156,-506,-19358,-1186,30000,67000,197000,214860,
-16452,4360,-4100,-615,-20080,-1188,30000,67000,197000,214863,
-17440,4044,-3092,-916,-25622,-1093,27000,65000,193000,214875,
-17396,4196,-3032,-980,-26678,-992,27000,65000,193000,214878,
-17420,4208,-3060,-1093,-27673,-862,26000,64000,192000,214880,
-16808,4504,-2360,-1499,-32768,-1085,23000,62000,189000,214893,
-15804,4416,-2672,-1836,-32768,-1687,23000,61000,189000,214895,
-14540,4336,-1644,-1992,-32768,-2340,22000,61000,188000,214898,
-17308,3668,-324,-1681,-32768,-4416,20000,58000,185000,214911,
-17772,3772,-32,-1873,-32768,-4383,19000,57000,185000,214913,
-17672,3616,380,-2014,-32768,-4486,19000,57000,184000,214916,
-19724,3928,1508,-1738,-32768,-4075,16000,54000,182000,214928,
-19232,4224,1620,-1840,-32768,-3995,16000,54000,181000,214931,
-19960,4256,1740,-1938,-32768,-3691,16000,53000,181000,214933,
-20160,4584,2520,-3108,-32768,-2342,14000,50000,179000,214946,
-19588,4320,2652,-3260,-32768,-2325,14000,50000,179000,214948,
-19292,4080,2856,-3760,-32768,-2237,14000,49000,179000,214951,
-18744,3420,3508,-4013,-32768,-1798,12000,46000,177000,214964,
-17632,3584,3652,-4205,-32768,-1861,12000,46000,177000,214966,
-14960,3692,5328,-4832,-32768,-1818,11000,43000,176000,214979,
-14852,3764,5720,-4830,-32768,-1791,11000,42000,176000,214981,
-14728,3796,6268,-4661,-32768,-1748,10000,42000,176000,214984,
-14956,3196,7796,-4610,-32768,-1196,9000,39000,175000,214996,
-15576,2968,9280,-4364,-32768,-1077,9000,38000,175000,214999,
-15684,2908,9924,-3735,-32768,-802,9000,37000,175000,215001,
-15812,2852,6452,-2825,-32768,1384,9000,34000,174000,215014,
-15336,2884,6124,-3025,-32768,2018,8000,34000,174000,215016,
-14384,3036,5728,-3445,-32768,2578,8000,33000,174000,215019,
-8448,4352,3520,-7720,-32768,4362,8000,30000,174000,215032,
-6912,4524,3420,-8874,-32768,4285,8000,30000,174000,215034,
-5816,4648,4916,-9495,-32768,3966,7000,29000,174000,215036,
868,3724,4176,-12675,-32768,-1514,6000,26000,173000,215049,
1968,3376,4248,-13163,-32768,-3068,6000,25000,173000,215051,
2376,3212,2292,-14087,-32768,-4631,6000,25000,173000,215054,
7360,2748,2508,-15978,-32768,-13537,4000,21000,172000,215066,
8024,2784,8244,-15892,-32768,-14761,3000,20000,171000,215069,
7044,2412,11156,-15078,-32768,-15975,3000,20000,171000,215071,
4420,3332,7156,-12330,-32768,-17124,1000,17000,169000,215084,
4588,2768,9180,-11574,-32768,-16859,1000,16000,169000,215086,
5112,2220,10880,-10450,-32768,-16642,1000,15000,168000,215089,
6636,-780,13872,-3633,-23750,-15128,0,13000,167000,215101,
6776,-960,13404,-2502,-20401,-14759,0,12000,167000,215104,
8412,-444,12980,-766,-9734,-10416,0,11000,166000,215116,
7992,-376,12964,-1192,-9365,-8934,0,11000,165000,215118,
784,1388,15452,-1153,-10698,-5286,0,11000,165000,215121,
10472,3008,17340,1236,-17665,-2818,0,9000,165000,215133,
18244,5776,17372,1479,-20111,-2640,0,8000,165000,215136,
18148,3452,13628,422,-19774,-2102,0,8000,165000,215138,
20672,4764,11368,-3630,-20892,6464,0,6000,166000,215151,
20752,3644,14988,-5122,-21502,7541,0,5000,166000,215153,
20752,1908,17720,-4910,-20984,7087,0,5000,166000,215155,
15612,2332,16008,-2843,-4966,1358,0,4000,166000,215168,
14432,2156,16388,-3070,-2388,733,0,4000,166000,215170,
12584,2136,17416,-3001,-267,447,0,4000,166000,215173,
11432,1844,18280,-2484,652,237,0,4000,166000,215175,
7576,1528,15824,-2176,4500,1414,0,4000,166000,215188,
7036,1508,15792,-2028,4467,1760,0,4000,166000,215190,
6380,1416,15832,-2032,4290,2160,0,4000,166000,215192,
5136,604,15648,-2037,3151,3177,-1000,4000,167000,215205,
5220,664,15744,-2178,2932,3208,-1000,4000,167000,215207,
5336,480,15920,-2165,2590,3134,-1000,4000,167000,215210,
6116,804,16340,-2017,166,2246,-1000,4000,167000,215222,
6312,736,16596,-2018,-322,2087,-1000,4000,167000,215225,
6392,792,16620,-1950,-600,1972,-1000,4000,167000,215227,
6696,832,16460,-1943,-1706,1655,-1000,4000,167000,215240,
6588,836,16540,-1975,-1819,1641,-1000,4000,167000,215242,
6688,752,16388,-1939,-1944,1581,-1000,4000,167000,215244,
6992,416,15956,-1821,-2313,1555,-1000,3000,167000,215257,
7164,420,15860,-1746,-2377,1559,-1000,3000,167000,215259,
7252,328,15860,-1721,-2386,1568,-1000,3000,167000,215262,
7696,312,15636,-1395,-2206,1671,-1000,3000,168000,215274,
8036,376,15548,-1357,-2145,1680,-1000,3000,168000,215277,
8072,432,15364,-1289,-2048,1685,-1000,3000,168000,215279,
8052,664,15596,-1025,-2056,1809,-2000,2000,168000,215292,
7888,656,15552,-982,-2097,1782,-2000,2000,168000,215294,
7820,764,15572,-1025,-2095,1807,-2000,2000,168000,215296,
7352,760,15868,-999,-2333,1737,-2000,2000,168000,215309,
7364,860,15816,-982,-2364,1694,-2000,2000,168000,215311,
7436,836,15844,-967,-2447,1649,-2000,2000,168000,215314,
7360,700,15892,-924,-2614,1426,-2000,1000,168000,215326,
7532,632,15816,-895,-2551,1389,-2000,1000,168000,215329,
7544,780,15588,-944,-2438,1419,-2000,1000,168000,215331,
8216,740,15760,-838,-1865,1506,-2000,1000,168000,215344,
8156,752,15676,-799,-1685,1588,-2000,1000,168000,215346,
8380,752,15712,-710,-1554,1582,-2000,1000,169000,215348,
8484,704,15340,-635,-1177,1491,-2000,0,169000,215361,
8396,712,15316,-563,-1195,1474,-2000,0,169000,215363,
8332,620,15176,-631,-1188,1458,-2000,0,169000,215366,
8212,696,15280,-611,-1160,1427,-2000,0,169000,215368,
7820,536,15252,-662,-1398,1345,-2000,0,169000,215381,
7880,484,15308,-663,-1442,1334,-2000,0,169000,215383,
7880,448,15164,-634,-1522,1262,-2000,0,169000,215385,
8024,420,15116,-644,-1798,1206,-2000,0,169000,215398,
8072,460,14912,-677,-1751,1216,-2000,0,169000,215400,
8168,452,15056,-742,-1778,1197,-2000,0,169000,215403,
8184,404,14840,-710,-1831,1154,-2000,0,169000,215405,
8364,508,14988,-693,-1602,1144,-2000,0,169000,215418,
8452,592,14816,-747,-1486,1227,-2000,0,169000,215420,
8508,624,14936,-720,-1533,1224,-2000,0,169000,215422,
8680,372,15072,-817,-1430,1077,-2000,-1000,169000,215435,
8756,608,15244,-859,-1262,1106,-2000,-1000,169000,215437,
8868,612,15216,-772,-1215,1109,-2000,-1000,169000,215440,
8924,592,15024,-745,-545,873,-2000,-1000,170000,215452,
8964,552,14960,-728,-480,863,-2000,-1000,170000,215455,
8984,536,14888,-774,-374,819,-2000,-1000,170000,215457,
8768,500,15064,-762,10,729,-2000,-1000,170000,215470,
8752,480,15084,-771,125,698,-2000,-1000,170000,215472,
8768,524,15160,-723,120,686,-2000,-1000,170000,215474,
8604,520,14980,-777,170,716,-2000,-1000,170000,215477,
8520,524,15076,-795,179,568,-2000,-1000,170000,215489,
8480,504,15160,-842,172,561,-2000,-1000,170000,215492,
8448,444,15064,-834,214,512,-2000,-1000,170000,215494,
8260,436,15076,-893,67,475,-2000,-2000,170000,215506,
8320,412,15112,-861,-33,447,-2000,-2000,170000,215509,
8336,376,14956,-872,-51,455,-2000,-2000,170000,215511,
8268,416,15076,-849,-66,424,-2000,-2000,170000,215514,
8416,380,14992,-901,-162,350,-2000,-2000,170000,215526,
8416,416,14808,-921,-220,340,-2000,-2000,170000,215529,
8504,388,14964,-981,-187,318,-2000,-2000,170000,215531,
8660,352,14988,-959,-109,236,-3000,-2000,170000,215544,
8720,376,15052,-929,-78,209,-3000,-2000,170000,215546,
8572,428,15032,-921,-13,168,-3000,-2000,170000,215548,
8592,352,15140,-898,291,82,-3000,-2000,170000,215561,
8532,320,14988,-888,284,104,-3000,-2000,170000,215563,
8532,468,15176,-918,336,79,-3000,-2000,170000,215565,
8524,376,15104,-908,425,55,-3000,-2000,170000,215568,
8476,492,15020,-870,402,14,-3000,-3000,170000,215584,
8344,444,15076,-891,449,-6,-3000,-3000,170000,215587,
8296,372,15032,-869,460,-5,-3000,-3000,170000,215589,
8140,432,15176,-916,478,-17,-3000,-3000,170000,215602,
8156,432,15148,-843,454,-33,-3000,-3000,170000,215604,
8036,348,15056,-891,461,-18,-3000,-3000,170000,215606,
8152,372,15220,-896,477,-25,-3000,-3000,170000,215609,
8056,328,15000,-936,481,-19,-3000,-3000,170000,215621,
8216,352,14948,-878,435,-71,-3000,-3000,170000,215624,
8028,320,15052,-927,412,-41,-3000,-3000,170000,215626,
8032,344,15308,-878,368,-81,-3000,-3000,170000,215639,
8016,312,15084,-893,370,-84,-3000,-3000,170000,215641,
8072,296,15004,-890,384,-88,-3000,-3000,170000,215643,
7796,312,15056,-1058,415,22,-3000,-3000,170000,215656,
8096,284,15256,-943,323,-15,-3000,-3000,170000,215658,
8068,276,15216,-852,317,3,-3000,-3000,170000,215661,
8124,444,15220,-903,498,-14,-3000,-3000,170000,215663,
8244,416,15176,-881,509,-79,-3000,-3000,170000,215676,
8216,356,15280,-848,548,-91,-3000,-3000,170000,215678,
8164,392,15136,-811,536,-63,-3000,-3000,170000,215680,
7896,280,15040,-839,567,-32,-3000,-3000,170000,215693,
7812,340,15168,-883,535,4,-3000,-3000,170000,215695,
7856,192,15256,-886,558,37,-3000,-3000,170000,215698,
7708,200,15116,-834,456,25,-3000,-4000,170000,215700,
7728,112,15280,-854,315,85,-3000,-4000,170000,215713,
7672,248,15176,-882,248,156,-3000,-4000,170000,215715,
7748,264,15132,-911,274,122,-3000,-4000,170000,215717,
7864,376,15096,-857,340,70,-3000,-4000,170000,215730,
8008,304,15136,-880,377,67,-3000,-4000,170000,215732,
8108,408,15160,-836,397,100,-3000,-4000,170000,215735,
8128,344,15132,-863,437,73,-3000,-4000,170000,215737,
8080,344,15120,-838,620,91,-4000,-4000,170000,215750,
8184,280,15160,-841,672,111,-4000,-4000,170000,215752,
8168,400,15316,-769,724,47,-4000,-4000,170000,215754,
8096,288,15276,-791,901,84,-4000,-4000,170000,215767,
8016,116,15152,-790,877,89,-4000,-4000,170000,215769,
8064,216,15232,-786,904,92,-4000,-4000,170000,215772,
8020,212,15176,-787,910,60,-4000,-4000,170000,215774,
7888,188,15132,-780,858,38,-4000,-4000,170000,215787,
7928,192,14988,-701,894,72,-4000,-4000,170000,215789,
7948,76,15152,-731,862,101,-4000,-4000,170000,215791,
8032,228,15172,-718,703,102,-4000,-4000,170000,215804,
7936,148,15240,-755,678,101,-4000,-4000,170000,215806,
8008,196,15252,-735,716,90,-4000,-4000,170000,215809,
8004,168,15188,-685,705,126,-4000,-4000,170000,215811,
8032,204,15356,-686,742,115,-4000,-4000,170000,215824,
8048,196,15372,-699,704,106,-4000,-4000,170000,215826,
8076,88,15268,-706,737,99,-4000,-4000,170000,215829,
7996,212,15368,-685,739,84,-4000,-4000,170000,215841,
7928,232,15212,-666,799,50,-4000,-4000,170000,215844,
7920,124,15312,-670,756,65,-4000,-4000,170000,215846,
8048,120,15160,-711,750,86,-4000,-4000,170000,215848,
