Ax,Ay,Az,Gx,Gy,Gz,Roll,Pitch,Yaw,Timestamp,Target
5528,11720,10024,-493,95,-387,42000,-17000,10000,458786,
5528,11816,9928,-399,63,-417,42000,-17000,10000,458799,
5604,11860,9896,-438,-52,-418,42000,-17000,10000,458801,
5540,11852,9896,-397,0,-436,42000,-17000,10000,458803,
5512,11836,9932,-438,-86,-379,43000,-17000,10000,458816,
5632,11808,9952,-366,26,-413,43000,-17000,10000,458818,
5584,11848,9944,-442,-34,-378,43000,-17000,10000,458820,
5624,11700,9776,-346,104,-363,43000,-17000,10000,458833,
5624,11808,9904,-363,78,-353,43000,-17000,10000,458835,
5604,11664,9892,-336,154,-374,43000,-17000,10000,458838,
5520,11772,9776,-342,269,-344,43000,-17000,10000,458850,
5488,11684,9664,-334,334,-325,43000,-17000,10000,458853,
5444,11756,9700,-374,250,-332,43000,-17000,10000,458855,
5228,11836,9816,-351,322,-256,43000,-17000,10000,458867,
5312,11852,9772,-383,247,-241,43000,-17000,10000,458870,
5272,11736,9716,-381,250,-250,43000,-17000,10000,458872,
5240,11712,9692,-414,183,-172,43000,-17000,10000,458885,
5312,11720,9816,-473,179,-171,43000,-17000,10000,458887,
5324,11744,9760,-439,169,-130,43000,-17000,10000,458889,
5328,11608,9736,-495,39,-95,43000,-17000,10000,458902,
5352,11560,9788,-471,38,-63,43000,-17000,10000,458904,
5476,11636,9820,-516,-27,-49,43000,-17000,10000,458906,
5608,11696,9728,-461,45,-36,43000,-17000,10000,458919,
5548,11548,9524,-510,22,-71,43000,-17000,10000,458921,
5532,11596,9716,-455,40,-30,43000,-17000,10000,458924,
5616,11540,9612,-486,75,-58,43000,-17000,10000,458936,
5592,11480,9556,-443,94,-49,43000,-17000,10000,458938,
5668,11608,9644,-451,148,-54,43000,-17000,10000,458941,
5612,11748,9544,-395,21,-96,43000,-17000,10000,458953,
5684,11736,9576,-425,69,-79,43000,-17000,10000,458955,
5596,11740,9584,-455,-16,-121,43000,-17000,10000,458958,
5832,11688,9512,-495,17,-141,43000,-17000,10000,458970,
5768,11740,9548,-473,-9,-160,43000,-17000,10000,458972,
5544,11776,9476,-474,56,-170,43000,-17000,10000,458975,
5724,11728,9544,-490,-3,-232,43000,-17000,10000,458987,
5772,11760,9572,-487,31,-247,43000,-17000,10000,458989,
5816,11668,9496,-525,16,-260,43000,-17000,10000,458992,
5808,11748,9544,-513,118,-325,43000,-17000,10000,459004,
5852,11744,9544,-560,129,-325,43000,-17000,10000,459007,
5796,11644,9600,-527,100,-325,43000,-17000,10000,459009,
5596,11664,9668,-591,126,-397,43000,-17000,10000,459021,
5664,11720,9396,-562,135,-360,43000,-17000,10000,459024,
5640,11676,9604,-615,150,-392,43000,-17000,10000,459026,
5612,11600,9624,-551,137,-400,43000,-17000,10000,459039,
5492,11632,9580,-565,173,-420,43000,-17000,10000,459041,
5572,11620,9656,-578,105,-427,43000,-17000,10000,459043,
5368,11640,9640,-604,158,-415,43000,-17000,10000,459056,
5368,11664,9596,-586,117,-410,43000,-17000,10000,459058,
5404,11752,9700,-617,134,-402,43000,-17000,10000,459061,
5312,11692,9652,-604,21,-361,43000,-17000,10000,459073,
5348,11796,9676,-619,34,-345,43000,-17000,10000,459075,
5328,11628,9564,-635,-44,-313,43000,-17000,10000,459078,
5420,11828,9716,-639,-61,-261,43000,-17000,10000,459090,
5532,11792,9800,-649,-101,-234,43000,-17000,10000,459093,
5456,11872,9736,-633,-60,-243,43000,-17000,10000,459095,
5592,11784,9748,-612,-52,-214,43000,-17000,10000,459108,
5508,11776,9852,-630,-48,-180,43000,-17000,10000,459110,
5548,11780,9748,-581,-32,-201,43000,-17000,10000,459112,
5492,11920,10040,-544,39,-193,43000,-17000,10000,459125,
5560,11872,9932,-517,-11,-208,43000,-17000,10000,459127,
5576,11824,9996,-536,22,-221,43000,-17000,10000,459129,
5376,11844,9828,-503,-137,-245,43000,-17000,9000,459142,
5312,11792,10100,-501,-107,-245,43000,-17000,9000,459144,
5300,11800,10004,-477,-212,-238,43000,-17000,9000,459147,
5432,11916,9980,-440,-277,-208,43000,-17000,9000,459159,
5516,11864,10108,-461,-329,-234,43000,-17000,9000,459162,
5580,11920,9892,-408,-308,-212,43000,-17000,9000,459164,
5652,11856,10052,-400,-132,-228,43000,-17000,9000,459176,
5616,11844,10088,-346,-145,-223,43000,-17000,9000,459179,
5640,11760,10068,-318,-51,-227,43000,-17000,9000,459181,
5612,11824,10148,-210,-10,-220,43000,-17000,9000,459193,
5480,11772,10188,-197,29,-223,43000,-17000,9000,459196,
5664,11712,10040,-164,60,-252,43000,-17000,9000,459198,
5508,11888,9968,-145,119,-256,43000,-17000,9000,459211,
5440,11864,10056,-96,122,-248,43000,-17000,9000,459213,
5460,11844,10020,-100,138,-259,43000,-17000,9000,459215,
5336,11880,9968,-41,-12,-229,43000,-17000,9000,459228,
5388,11828,9840,-59,6,-219,43000,-17000,9000,459230,
5232,11796,10012,-74,-73,-219,43000,-17000,9000,459233,
5260,11776,9820,-29,-101,-116,43000,-17000,9000,459245,
5328,11824,9932,-82,-173,-129,43000,-17000,9000,459247,
5420,11872,9732,-17,-122,-115,43000,-17000,9000,459250,
5428,11940,9840,-77,-174,-27,43000,-17000,9000,459262,
5348,11864,9800,-28,-82,-33,43000,-17000,9000,459264,
5468,11876,9912,-101,-112,11,43000,-17000,9000,459267,
5396,11992,9952,-35,-96,1,43000,-17000,9000,459269,
5292,11892,9752,-133,-94,81,43000,-17000,9000,459282,
5384,11804,9860,-95,-34,61,43000,-17000,9000,459284,
5456,11820,9724,-132,-74,104,43000,-17000,9000,459286,
5440,11796,9596,-139,-99,110,43000,-17000,9000,459299,
5460,11728,9576,-186,-173,117,43000,-17000,9000,459301,
5356,11828,9556,-133,-115,130,43000,-17000,9000,459303,
5436,11772,9532,-231,-257,126,43000,-17000,9000,459316,
5448,11728,9492,-183,-285,143,43000,-17000,9000,459318,
5636,11708,9620,-241,-262,139,43000,-17000,9000,459320,
5640,11748,9508,-226,-335,123,43000,-17000,9000,459333,
5700,11756,9464,-245,-321,135,43000,-17000,9000,459335,
5728,11840,9580,-227,-293,116,43000,-17000,9000,459337,
5716,11568,9600,-295,-218,95,43000,-17000,9000,459350,
5840,11616,9404,-228,-160,92,43000,-17000,9000,459352,
5840,11656,9440,-260,-164,76,43000,-17000,9000,459355,
5848,11600,9572,-229,-124,68,43000,-17000,9000,459357,
5800,11520,9424,-228,-35,28,43000,-17000,9000,459370,
5800,11544,9444,-190,9,23,43000,-17000,9000,459372,
5744,11536,9480,-243,51,-10,43000,-17000,9000,459374,
5720,11532,9388,-234,38,-49,43000,-17000,9000,459387,
5728,11532,9328,-264,72,-65,43000,-17000,9000,459389,
5616,11516,9456,-247,16,-72,43000,-17000,9000,459391,
5620,11460,9408,-261,10,-69,43000,-17000,9000,459394,
5660,11700,9412,-256,-100,-93,43000,-17000,9000,459406,
5636,11632,9272,-310,-101,-118,43000,-17000,9000,459409,
5608,11616,9240,-270,-123,-111,43000,-17000,9000,459411,
5660,11580,9240,-364,-180,-142,43000,-17000,9000,459423,
5688,11528,9240,-361,-207,-165,43000,-17000,9000,459426,
5684,11572,9212,-339,-149,-167,43000,-17000,9000,459428,
5788,11720,9252,-368,-121,-188,43000,-17000,9000,459441,
5832,11616,9272,-387,-82,-163,43000,-17000,9000,459443,
5764,11624,9184,-373,-56,-169,43000,-17000,9000,459445,
5812,11600,9220,-475,76,-201,43000,-17000,9000,459458,
5856,11636,9200,-435,102,-201,43000,-17000,9000,459460,
5756,11504,9272,-481,104,-193,43000,-17000,9000,459462,
5744,11692,9204,-467,103,-219,43000,-17000,9000,459475,
5568,11732,9120,-495,138,-233,43000,-17000,9000,459477,
5576,11672,9180,-525,82,-217,43000,-17000,9000,459480,
5580,11732,9188,-594,66,-219,43000,-17000,9000,459492,
5536,11676,9172,-630,9,-218,43000,-17000,9000,459494,
5580,11772,9088,-616,39,-247,43000,-17000,9000,459497,
5632,11736,9236,-679,-26,-244,43000,-17000,9000,459499,
5820,11756,9216,-701,-15,-230,43000,-17000,9000,459512,
5692,11704,9228,-747,-60,-223,43000,-17000,9000,459514,
5640,11704,9388,-693,31,-238,43000,-17000,9000,459516,
5780,11688,9480,-746,102,-248,43000,-17000,9000,459529,
5792,11692,9476,-726,160,-274,43000,-17000,9000,459531,
5788,11784,9492,-782,126,-257,43000,-17000,9000,459533,
5764,11760,9392,-667,353,-299,43000,-17000,9000,459546,
5796,11812,9608,-756,294,-282,43000,-17000,9000,459548,
5672,11776,9512,-682,414,-263,43000,-17000,9000,459550,
5580,11856,9596,-740,343,-280,43000,-17000,9000,459563,
5612,11792,9376,-680,356,-282,43000,-17000,9000,459565,
5588,11836,9548,-708,284,-267,43000,-17000,9000,459568,
5520,11732,9624,-659,229,-271,43000,-17000,9000,459580,
5428,11860,9568,-698,131,-283,43000,-17000,9000,459583,
5380,11732,9552,-613,144,-268,43000,-17000,9000,459585,
5376,12020,9644,-576,-34,-196,43000,-17000,9000,459597,
5376,12040,9728,-537,19,-189,43000,-17000,9000,459600,
5584,12008,9724,-583,-95,-165,43000,-17000,9000,459602,
5728,12200,9804,-544,-18,-86,43000,-17000,9000,459615,
5752,12164,9716,-607,-76,-87,43000,-17000,9000,459617,
5800,12140,9740,-542,52,-102,43000,-17000,9000,459619,
5756,12112,9664,-572,45,-90,43000,-17000,9000,459622,
5624,12148,9768,-447,220,-33,43000,-17000,9000,459634,
5556,12148,9832,-466,268,-65,43000,-17000,9000,459636,
5452,12184,9764,-475,177,-33,43000,-17000,9000,459638,
5288,12260,9828,-517,5,77,43000,-17000,9000,459651,
5452,12224,9880,-485,0,96,43000,-17000,9000,459653,
5304,12340,9880,-502,-78,138,43000,-17000,9000,459656,
5408,12228,9920,-469,-135,136,43000,-17000,9000,459658,
5464,12444,9868,-557,-263,278,43000,-17000,9000,459671,
5568,12464,9988,-588,-407,334,43000,-17000,9000,459673,
5560,12400,9984,-571,-290,339,43000,-17000,9000,459675,
5744,12212,10144,-578,-467,440,43000,-17000,8000,459688,
5768,12176,10196,-477,-434,458,43000,-17000,8000,459690,
5812,12172,10244,-486,-480,464,43000,-17000,8000,459692,
6320,12192,10612,-267,-365,462,43000,-18000,8000,459705,
6388,12184,10588,-268,-383,469,43000,-18000,8000,459707,
6448,12200,10672,-152,-359,476,43000,-18000,8000,459709,
6784,12200,11120,45,-89,241,43000,-18000,8000,459722,
6820,12140,11028,141,-67,202,43000,-18000,8000,459724,
6820,12120,11180,233,28,163,43000,-18000,8000,459727,
6860,12260,11120,285,26,124,43000,-18000,8000,459729,
6832,12008,11012,629,146,-140,43000,-18000,8000,459742,
6612,12196,10944,759,158,-181,43000,-18000,8000,459744,
6664,12164,10944,786,141,-264,43000,-18000,8000,459746,
6396,12192,10972,1155,-48,-441,43000,-18000,8000,459759,
6316,12068,10916,1184,-86,-471,43000,-18000,8000,459761,
6232,12176,11036,1280,-146,-513,43000,-18000,8000,459763,
5980,12088,10732,1579,-451,-674,44000,-18000,8000,459776,
5932,12096,10724,1626,-564,-699,44000,-18000,8000,459778,
5928,12240,10712,1658,-617,-725,44000,-18000,8000,459781,
5804,12168,10776,1834,-1089,-755,44000,-18000,8000,459793,
5808,12028,10576,1889,-1053,-782,44000,-18000,8000,459795,
5880,12060,10668,1903,-1177,-811,44000,-18000,8000,459798,
5864,12076,10284,2143,-1014,-877,44000,-18000,8000,459810,
5884,12100,10232,2114,-1072,-855,44000,-18000,8000,459812,
5788,12044,10332,2173,-971,-865,44000,-18000,8000,459815,
5544,12100,9936,2149,-925,-814,45000,-18000,8000,459827,
5560,12060,9916,2247,-846,-781,45000,-18000,8000,459829,
5508,12048,9736,2189,-893,-783,45000,-18000,8000,459832,
5316,12092,9588,2251,-849,-679,45000,-18000,8000,459844,
5396,12084,9404,2204,-844,-658,45000,-18000,8000,459846,
5184,12104,9548,2195,-867,-618,45000,-18000,8000,459849,
5168,12076,9080,2024,-819,-484,45000,-18000,7000,459861,
5084,12084,8860,1963,-940,-424,46000,-18000,7000,459864,
5056,12096,9016,2020,-885,-399,46000,-18000,7000,459866,
4920,12088,8784,1817,-1040,-97,46000,-18000,7000,459878,
4924,12200,8824,1852,-1026,-59,46000,-18000,7000,459881,
4964,12192,8636,1743,-1072,-11,46000,-18000,7000,459883,
4880,12212,8500,1586,-1170,308,46000,-18000,7000,459895,
4864,12244,8460,1494,-1248,369,46000,-18000,7000,459898,
4808,12252,8448,1487,-1199,450,46000,-18000,7000,459900,
4864,12372,8460,1241,-1476,811,46000,-18000,7000,459912,
4972,12376,8500,1154,-1579,885,46000,-18000,7000,459915,
5136,12380,8496,1147,-1565,956,46000,-18000,7000,459917,
5244,12492,8484,822,-1762,1260,47000,-18000,7000,459929,
5304,12488,8516,831,-1709,1345,47000,-18000,7000,459932,
5304,12600,8444,773,-1799,1403,47000,-19000,7000,459934,
5524,12664,8500,637,-1973,1751,47000,-19000,7000,459946,
5600,12616,8628,517,-2031,1792,47000,-19000,7000,459949,
5668,12656,8760,549,-2070,1854,47000,-19000,7000,459951,
5952,12812,8904,261,-2490,2127,47000,-19000,7000,459963,
6108,12780,8864,249,-2501,2128,47000,-19000,7000,459966,
6240,12856,8772,129,-2621,2189,47000,-19000,7000,459968,
6808,12868,9452,64,-3226,2405,47000,-20000,7000,459981,
7024,12800,9396,-39,-3353,2431,47000,-20000,7000,459983,
7048,12868,9392,-26,-3504,2501,47000,-20000,7000,459985,
8344,12828,10168,-157,-4381,2561,47000,-20000,7000,459998,
8564,12928,10348,-115,-4554,2584,47000,-20000,7000,460000,
8868,12880,10352,-214,-4784,2588,47000,-21000,6000,460003,
10912,12680,10640,-229,-5401,2401,47000,-21000,6000,460015,
11264,12844,10772,-251,-5427,2306,47000,-21000,6000,460017,
11732,12948,10628,-223,-5443,2240,47000,-21000,6000,460020,
13472,13384,9676,-540,-5238,1635,47000,-22000,6000,460032,
13500,13416,9564,-544,-5236,1441,47000,-22000,6000,460035,
13596,13460,9536,-689,-5429,1263,47000,-22000,6000,460037,
14184,13472,8912,-1504,-6499,373,47000,-23000,5000,460050,
14320,13568,8724,-1723,-6879,178,47000,-23000,5000,460052,
14504,13404,8648,-1792,-7187,-24,47000,-23000,5000,460054,
14640,13024,8188,-2786,-9009,-1344,48000,-24000,4000,460067,
14520,12956,8280,-3058,-9487,-1586,48000,-24000,4000,460069,
14764,12864,8196,-3198,-9947,-1875,48000,-24000,4000,460072,
15232,11296,8508,-4573,-11889,-3334,48000,-24000,3000,460084,
15212,11068,8476,-4675,-12023,-3593,48000,-25000,2000,460087,
15220,10820,8264,-4849,-12405,-3895,48000,-25000,2000,460089,
15560,9832,8876,-5323,-13152,-5466,48000,-25000,1000,460101,
15564,9668,8596,-5510,-13316,-5787,48000,-25000,1000,460104,
15444,9544,8724,-5638,-13330,-6073,48000,-25000,0,460106,
15272,8716,8704,-6378,-13792,-7573,48000,-26000,359000,460119,
15252,8728,8468,-6467,-13815,-7815,48000,-26000,358000,460121,
15092,8504,8888,-6666,-13961,-8153,48000,-26000,358000,460123,
14440,7852,8536,-7202,-13883,-9528,48000,-26000,356000,460136,
14288,7696,8500,-7394,-14058,-9827,48000,-27000,356000,460138,
14068,7692,8504,-7485,-13996,-10042,48000,-27000,356000,460140,
13560,6844,8328,-8082,-14177,-11431,48000,-27000,354000,460153,
13292,6592,8628,-8049,-14140,-11634,48000,-27000,353000,460155,
12492,5956,8200,-8723,-14082,-12905,48000,-27000,351000,460168,
12268,5912,7964,-8876,-14170,-13221,48000,-27000,351000,460170,
12220,5756,8016,-8901,-14065,-13367,48000,-27000,350000,460172,
11568,5020,7676,-9547,-14143,-14621,48000,-27000,348000,460185,
11296,4760,7760,-9573,-14086,-14751,48000,-27000,348000,460187,
11168,4684,7636,-9741,-14264,-15024,48000,-27000,347000,460190,
10708,3604,7516,-10205,-14131,-16061,48000,-27000,345000,460202,
10592,3492,7472,-10345,-14202,-16348,48000,-27000,345000,460205,
10108,2696,7168,-10562,-13617,-17361,48000,-27000,342000,460217,
9868,2680,7192,-10669,-13644,-17629,48000,-27000,342000,460220,
9856,2600,7180,-10685,-13426,-17785,48000,-27000,342000,460222,
9204,2108,7016,-11012,-12778,-18666,48000,-26000,339000,460234,
8988,2236,7164,-10994,-12559,-18784,48000,-26000,339000,460237,
8784,2252,7016,-11069,-12429,-18921,48000,-26000,338000,460239,
7440,2096,6752,-11401,-11637,-19710,48000,-25000,336000,460252,
7080,1996,6636,-11505,-11475,-19800,48000,-25000,336000,460254,
5356,1624,6212,-12021,-11216,-20203,47000,-25000,333000,460267,
5020,1504,6060,-12110,-11142,-20213,47000,-25000,333000,460269,
4568,1504,5952,-12218,-11212,-20273,47000,-25000,333000,460271,
2896,1416,5580,-12894,-11423,-20029,47000,-24000,330000,460284,
2664,1400,5520,-13061,-11545,-19983,47000,-24000,330000,460286,
2316,1452,5696,-13197,-11547,-19854,47000,-24000,330000,460288,
1328,1164,5932,-13879,-11796,-19199,46000,-23000,327000,460301,
1236,1084,5880,-13871,-11660,-18990,46000,-23000,327000,460303,
116,1172,5804,-14734,-11550,-18268,45000,-22000,325000,460316,
-216,1144,5868,-14829,-11406,-17989,45000,-22000,325000,460318,
-472,1196,5732,-15011,-11385,-17812,45000,-22000,324000,460320,
-1548,1012,5856,-15904,-10970,-16643,44000,-22000,322000,460333,
-1700,1092,5796,-15990,-10823,-16394,44000,-21000,322000,460335,
-2060,1000,5988,-16254,-10831,-16155,44000,-21000,322000,460338,
-3112,1100,6156,-17138,-10411,-14644,42000,-21000,320000,460350,
-3084,1192,6412,-17361,-10455,-14377,42000,-21000,319000,460353,
-3160,2200,6432,-18178,-9933,-12894,41000,-20000,318000,460365,
-2960,2540,6656,-18230,-9742,-12581,41000,-20000,317000,460368,
-2904,2792,6696,-18465,-9639,-12338,40000,-20000,317000,460370,
-1568,3756,7404,-19110,-7852,-11282,39000,-20000,316000,460383,
-1472,3800,7248,-19315,-7430,-11180,39000,-20000,316000,460385,
-1456,3720,7472,-19355,-6805,-10995,38000,-20000,315000,460387,
-1572,3876,7488,-19395,-3436,-10034,37000,-19000,314000,460400,
-1672,3960,7396,-19453,-2888,-9979,36000,-19000,314000,460402,
-2812,4144,6796,-19842,-138,-9491,35000,-18000,313000,460415,
-3068,4084,6824,-20156,244,-9411,34000,-18000,313000,460417,
-3224,4000,6796,-20182,708,-9289,34000,-18000,313000,460419,
-4208,4416,7888,-20547,2373,-8835,32000,-17000,312000,460432,
-4428,4692,7976,-20505,2552,-8750,32000,-17000,312000,460434,
-4780,4752,7796,-20698,2620,-8798,32000,-17000,312000,460436,
-5636,5892,9160,-21345,2688,-8074,30000,-16000,312000,460449,
-5504,6216,9272,-21569,2653,-7956,29000,-16000,312000,460451,
-5356,6292,9648,-21668,2781,-7845,29000,-16000,311000,460454,
-4840,6804,9784,-22640,3957,-7484,27000,-15000,311000,460466,
-4848,6880,9896,-22733,4313,-7402,27000,-15000,311000,460469,
-4704,6844,9860,-22850,4651,-7335,26000,-14000,311000,460471,
-5068,7016,9740,-23129,6459,-6918,24000,-13000,310000,460484,
-5336,7044,9552,-23299,6696,-6869,24000,-13000,310000,460486,
-5344,7016,9680,-23346,6966,-6784,23000,-13000,310000,460488,
-5852,7432,11044,-23547,7678,-6065,21000,-12000,310000,460501,
-5780,7584,11000,-23623,7838,-5987,21000,-12000,310000,460503,
-5688,7932,11088,-24188,9435,-5536,19000,-10000,310000,460516,
-5760,7840,11384,-24372,9731,-5517,18000,-10000,310000,460518,
-5952,7876,11816,-24370,10070,-5389,18000,-10000,310000,460520,
-7400,7140,12548,-25106,11691,-4795,16000,-9000,310000,460533,
-7648,7012,12628,-25291,11915,-4649,15000,-8000,310000,460535,
-7960,6772,12872,-25419,11978,-4488,15000,-8000,310000,460538,
-8732,5684,15436,-25563,12480,-3331,12000,-7000,310000,460550,
-8796,5424,15672,-25628,12738,-3109,12000,-6000,310000,460553,
-8680,5260,15972,-25514,13239,-2868,11000,-6000,310000,460555,
-8560,4708,17432,-25100,15429,-1754,9000,-4000,310000,460568,
-8724,4448,18192,-24868,15909,-1486,8000,-4000,310000,460570,
-8724,4108,19248,-24083,18539,-600,6000,-2000,310000,460582,
-8932,3968,19436,-23871,19072,-479,6000,-2000,310000,460585,
-9176,3932,19484,-23847,19744,-318,5000,-1000,310000,460587,
-10984,3444,20536,-22790,22023,733,3000,0,310000,460600,
-11592,3320,20420,-22656,22405,963,3000,0,310000,460602,
-12064,3204,20352,-22405,22631,1178,2000,1000,310000,460604,
-13252,2648,20072,-22035,22771,2633,0,3000,311000,460617,
-16744,3624,19128,-21557,23987,2931,0,4000,311000,460619,
-16864,580,22644,-21099,22531,3590,0,4000,311000,460622,
-19140,1328,20132,-21590,20106,5438,-1000,6000,311000,460634,
-19968,1308,19420,-21778,19477,5865,-2000,7000,311000,460637,
-20408,952,19892,-21625,18675,6217,-2000,7000,311000,460639,
-21880,164,20040,-21572,13891,8618,-4000,9000,312000,460652,
-22212,140,20200,-21689,13012,9130,-5000,9000,312000,460654,
-22496,-148,20204,-21612,11917,9609,-5000,9000,312000,460656,
-22376,-1392,22372,-21586,5997,12621,-7000,10000,314000,460669,
-21980,-1592,23412,-21347,4801,13107,-7000,10000,314000,460671,
-21356,-1864,23892,-21143,3806,13802,-7000,10000,314000,460674,
-15812,-1760,25128,-19779,1438,16067,-9000,11000,316000,460686,
-15064,-1748,25028,-19384,1667,16346,-9000,11000,316000,460688,
-12412,-1824,24412,-17920,3799,18147,-11000,12000,318000,460701,
-12224,-2064,24544,-17572,4221,18348,-11000,12000,318000,460703,
-12308,-2176,24456,-17371,4505,18567,-11000,12000,318000,460706,
-14016,-3508,24628,-15328,5132,19560,-12000,13000,320000,460718,
-14300,-3740,24436,-14980,5031,19892,-12000,13000,320000,460721,
-14516,-3908,24528,-14429,5010,20112,-13000,14000,321000,460723,
-16544,-5268,24856,-11762,3495,21497,-13000,14000,323000,460735,
-17048,-5316,24808,-11289,2999,21726,-13000,15000,323000,460738,
-19676,-6716,24876,-9571,-1220,23513,-14000,15000,325000,460750,
-19764,-6976,24540,-9206,-2043,23870,-14000,15000,326000,460753,
-19900,-7140,24656,-8875,-3068,24360,-14000,15000,326000,460755,
-17752,-7784,23464,-7648,-7585,26879,-14000,15000,329000,460768,
-17192,-7848,23344,-7428,-8160,27325,-14000,15000,329000,460770,
-16144,-7776,23052,-7235,-8686,27812,-14000,15000,330000,460772,
-12660,-7904,21960,-6545,-9462,30272,-13000,15000,333000,460785,
-11996,-7812,21728,-6334,-9218,30659,-13000,15000,334000,460787,
-8740,-7512,21120,-5743,-6980,32767,-13000,15000,337000,460800,
-8436,-7392,20900,-5597,-6282,32767,-13000,15000,338000,460802,
-7908,-7332,20560,-5613,-5639,32767,-13000,15000,338000,460804,
-6256,-6540,19860,-5385,-1352,32767,-13000,16000,342000,460817,
-6024,-6388,19400,-5517,-496,32767,-13000,16000,342000,460819,
-5936,-6240,19464,-5521,348,32767,-12000,16000,343000,460822,
-6416,-6088,18420,-6267,3892,32767,-12000,17000,346000,460834,
-6640,-6120,18372,-6392,4446,32767,-12000,18000,346000,460837,
-6836,-6104,18172,-6646,4831,32767,-12000,18000,347000,460839,
-8064,-6968,17672,-7980,5831,32767,-12000,19000,350000,460852,
-8280,-7112,17396,-8225,5805,32767,-12000,19000,351000,460854,
-8992,-8440,17616,-9803,4504,32767,-12000,20000,354000,460867,
-8976,-8680,17528,-9945,4248,32767,-12000,21000,355000,460869,
-8844,-8944,17620,-10206,3931,32767,-12000,21000,355000,460871,
-7452,-10184,18332,-10825,2709,32767,-12000,22000,358000,460884,
-7084,-10324,18484,-11019,2415,32767,-12000,22000,359000,460886,
-6424,-10320,18724,-11028,2322,32767,-12000,22000,0,460889,
-4196,-10600,19644,-10785,2527,32767,-11000,23000,3000,460901,
-3796,-10684,19828,-10635,2744,32767,-11000,23000,3000,460903,
-3432,-10632,20036,-10545,2805,32767,-11000,23000,4000,460906,
-2908,-10700,21168,-9223,3268,32767,-11000,24000,7000,460918,
-2948,-10720,21552,-8958,3184,32767,-11000,24000,8000,460921,
-3512,-10828,23120,-7452,2306,32767,-10000,25000,11000,460933,
-3352,-10824,23764,-7153,1880,32767,-10000,25000,12000,460936,
-3544,-10972,24100,-6760,1641,32767,-10000,25000,13000,460938,
-3364,-11004,25240,-4750,-635,32632,-9000,26000,16000,460951,
-3440,-10956,25456,-4282,-1065,32084,-9000,26000,17000,460953,
-3476,-10948,25540,-3823,-1684,31766,-9000,26000,17000,460955,
-3140,-10280,26140,-1270,-4328,29613,-7000,26000,20000,460968,
-3008,-10320,26324,-764,-4888,29208,-7000,26000,21000,460970,
-2960,-10316,26248,-350,-5397,28754,-7000,25000,22000,460973,
-1584,-10320,26724,2520,-7555,26786,-6000,25000,24000,460985,
-1144,-10252,26808,3081,-7639,26309,-5000,25000,25000,460988,
-820,-10192,26692,3673,-7938,26006,-5000,25000,26000,460990,
376,-9484,26920,6419,-8238,24040,-3000,24000,28000,461003,
572,-9272,26760,6968,-8361,23785,-3000,24000,29000,461005,
748,-9052,26644,7413,-8253,23352,-3000,24000,29000,461007,
1596,-8244,26008,9728,-7858,21512,-1000,23000,31000,461020,
1700,-8056,26076,10197,-7662,21166,-1000,23000,32000,461022,
1592,-7860,25576,10544,-7724,20873,0,23000,32000,461024,
1212,-6628,24484,12115,-7764,19122,0,22000,34000,461037,
1192,-6612,24172,12335,-8047,18812,1000,21000,34000,461039,
980,-6332,23824,12571,-8096,18448,1000,21000,35000,461042,
1028,-5392,22696,13491,-9482,16947,3000,20000,36000,461054,
1040,-5208,22648,13473,-9693,16587,3000,20000,37000,461057,
1088,-5044,22332,13582,-10111,16334,4000,20000,37000,461059,
1424,-4364,21720,13889,-11598,14717,5000,18000,38000,461071,
1468,-4196,21204,13955,-11974,14519,6000,18000,39000,461074,
1540,-4128,21136,14003,-12140,14135,6000,18000,39000,461076,
1880,-3644,20392,14043,-13810,12750,7000,16000,40000,461089,
2044,-3552,20232,13993,-13943,12344,8000,16000,40000,461091,
2236,-3504,20156,14000,-14324,12175,8000,16000,40000,461093,
2772,-3320,19544,13988,-15201,10459,9000,14000,41000,461106,
2916,-3112,19316,13855,-15379,10142,10000,14000,41000,461108,
2940,-3004,19416,13944,-15515,9840,10000,13000,41000,461111,
3220,-2556,18676,13719,-15990,8264,11000,11000,42000,461123,
3104,-2540,18480,13789,-16141,8044,11000,11000,42000,461125,
3028,-1748,17716,13511,-16483,6670,13000,9000,42000,461138,
2892,-1644,17636,13481,-16676,6449,13000,9000,42000,461140,
2852,-1644,17572,13218,-16741,6183,13000,9000,42000,461143,
3072,-1176,16900,12910,-17624,4954,14000,7000,42000,461155,
3060,-1068,16760,12772,-17813,4749,15000,6000,42000,461158,
3204,-880,16424,12602,-17904,4521,15000,6000,42000,461160,
3696,-96,15708,11985,-18503,3273,16000,4000,42000,461173,
3732,0,15472,11946,-18583,3079,16000,4000,42000,461175,
3804,180,15296,11773,-18610,2816,16000,3000,42000,461177,
3908,368,14852,11259,-19038,1727,17000,1000,41000,461190,
4088,472,14872,11084,-19061,1491,17000,1000,41000,461192,
4032,488,14764,11005,-19207,1267,17000,1000,41000,461194,
4652,1008,14752,10294,-19214,15,18000,0,41000,461207,
4628,1036,14736,10220,-19288,-211,19000,0,41000,461209,
4720,1240,14808,10082,-19048,-445,19000,-1000,40000,461211,
4496,1696,14616,9548,-18850,-1589,20000,-3000,40000,461224,
4448,1688,14500,9437,-18685,-1760,20000,-3000,40000,461226,
4516,1692,14492,9371,-18757,-1935,20000,-3000,39000,461228,
4064,2260,13932,8765,-18662,-2851,21000,-5000,39000,461241,
3976,2496,13652,8636,-18573,-2975,21000,-5000,38000,461243,
3908,2476,13844,8557,-18708,-3142,21000,-5000,38000,461245,
3628,3436,13480,8022,-18645,-3746,22000,-7000,37000,461258,
3524,3608,13360,7950,-18787,-3821,22000,-7000,37000,461260,
3588,3744,13452,7801,-18704,-3857,22000,-8000,37000,461263,
3836,3868,13352,7037,-18711,-4468,23000,-9000,36000,461275,
3856,3760,13284,6973,-18553,-4627,23000,-9000,36000,461277,
4012,3904,13364,6865,-18389,-4817,23000,-10000,35000,461280,
4112,3724,12992,6624,-17154,-5425,24000,-11000,34000,461292,
4108,3692,13008,6648,-16897,-5558,24000,-11000,34000,461295,
4028,3612,13112,6544,-16661,-5687,24000,-11000,34000,461297,
3868,3660,12572,6571,-15433,-6284,25000,-13000,32000,461310,
3864,3772,12496,6534,-15313,-6412,25000,-13000,32000,461312,
3732,3828,12296,6573,-15062,-6454,26000,-13000,32000,461314,
3204,4428,11728,6318,-14671,-6910,26000,-14000,31000,461327,
2940,4412,11596,6311,-14691,-6976,27000,-14000,31000,461329,
2912,4468,11500,6179,-14692,-7063,27000,-14000,30000,461331,
2628,4764,10980,5855,-15173,-7313,28000,-15000,29000,461344,
2672,4892,10868,5736,-15233,-7338,28000,-15000,29000,461346,
2776,5024,10744,5719,-15390,-7392,28000,-16000,28000,461349,
2940,5512,10348,5088,-15937,-7640,29000,-17000,27000,461361,
3012,5564,10148,5012,-16058,-7649,29000,-17000,27000,461363,
3028,5740,10124,4842,-16127,-7666,29000,-17000,26000,461366,
3564,5784,9908,4204,-16474,-7895,30000,-18000,25000,461378,
3740,5744,9996,4087,-16411,-7950,30000,-18000,25000,461381,
3968,5748,9984,4083,-16394,-8034,30000,-18000,24000,461383,
4640,5724,9528,3685,-15545,-8417,31000,-19000,23000,461396,
4544,5852,9428,3615,-15494,-8506,31000,-19000,23000,461398,
4604,5756,9380,3578,-15219,-8566,32000,-19000,22000,461400,
4556,5900,9264,3360,-14679,-8897,32000,-20000,21000,461413,
4556,6000,9220,3326,-14408,-8961,33000,-20000,20000,461415,
4552,5880,9284,3211,-14397,-9012,33000,-20000,20000,461417,
4312,5868,9232,3041,-13795,-9210,34000,-21000,19000,461430,
4208,5844,9200,2943,-13765,-9217,34000,-21000,18000,461432,
4200,5856,9288,2974,-13649,-9282,34000,-21000,18000,461435,
2976,5856,9184,2857,-13069,-9046,35000,-22000,16000,461447,
3880,5940,9140,2885,-13089,-8901,35000,-22000,16000,461450,
4008,6064,8972,2848,-13123,-8828,35000,-22000,16000,461452,
4928,6240,8304,2698,-12787,-9706,36000,-22000,14000,461465,
4900,6180,8372,2632,-12703,-9839,36000,-22000,14000,461467,
4636,6144,8332,2712,-12461,-9874,36000,-23000,14000,461469,
4588,6324,7868,2829,-11770,-9755,37000,-23000,12000,461482,
4608,6284,7644,2898,-11582,-9772,37000,-23000,12000,461484,
4736,6336,7548,2852,-11581,-9821,38000,-23000,11000,461487,
4816,6604,6940,2811,-11043,-10139,39000,-23000,10000,461499,
4868,6620,6972,2744,-10926,-10218,39000,-23000,10000,461501,
4972,6500,6924,2753,-10751,-10250,39000,-23000,9000,461504,
5256,6884,6792,2768,-9895,-10596,40000,-23000,8000,461516,
5168,6936,6760,2838,-9777,-10615,40000,-23000,7000,461519,
5280,7096,6664,2790,-9585,-10695,40000,-23000,7000,461521,
5124,7652,6284,2677,-8907,-11033,41000,-23000,6000,461534,
4980,7720,6200,2628,-8711,-11092,41000,-23000,5000,461536,
5072,7808,6276,2581,-8624,-11160,41000,-23000,5000,461538,
4888,8332,5932,2269,-8038,-11414,42000,-23000,4000,461551,
4828,8312,5908,2220,-7815,-11453,42000,-23000,3000,461553,
4872,8536,5944,2140,-7785,-11542,43000,-23000,3000,461555,
4920,9036,5804,1930,-6964,-11770,43000,-23000,2000,461568,
4896,9052,5700,1855,-6910,-11876,44000,-23000,1000,461570,
4736,9192,5604,1847,-6689,-11872,44000,-23000,1000,461573,
4580,9908,5244,1524,-6030,-11962,44000,-22000,0,461585,
4568,10060,5336,1473,-5827,-11923,45000,-22000,0,461587,
4676,10088,5140,1338,-5737,-11944,45000,-22000,359000,461590,
4568,10580,4356,902,-4600,-11898,45000,-22000,358000,461602,
4672,10744,4480,776,-4289,-11871,46000,-22000,358000,461604,
4648,10796,4104,747,-4101,-11855,46000,-22000,358000,461607,
4152,11508,4152,391,-2932,-11693,46000,-21000,356000,461619,
4076,11452,4248,305,-2773,-11691,46000,-21000,356000,461622,
3940,11576,4244,188,-2616,-11668,46000,-21000,356000,461624,
2772,12196,4976,91,-2085,-11363,47000,-20000,355000,461636,
2640,12256,4992,-9,-2008,-11353,47000,-20000,355000,461639,
2504,12504,5212,-49,-1981,-11270,47000,-20000,355000,461641,
1604,13012,6160,-387,-2077,-11083,47000,-19000,354000,461653,
1568,13272,6148,-482,-2116,-11040,48000,-19000,354000,461656,
1424,13320,6272,-589,-2209,-11004,48000,-19000,353000,461658,
1128,13884,6796,-1213,-2120,-10832,48000,-18000,353000,461670,
916,13984,6912,-1270,-2043,-10828,48000,-18000,352000,461673,
1024,14164,6652,-1425,-1890,-10773,48000,-18000,352000,461675,
172,14612,6552,-1855,-1472,-10644,48000,-17000,351000,461688,
-132,14872,6488,-1966,-1443,-10565,48000,-17000,351000,461690,
-88,15900,5924,-2418,-1398,-10011,48000,-16000,350000,461703,
-1316,15076,6640,-2577,-1388,-9826,48000,-16000,350000,461705,
-1144,15752,5144,-2717,-1312,-9657,48000,-16000,350000,461707,
-1548,15516,5628,-3002,-1158,-8687,48000,-15000,349000,461720,
-1604,15464,5872,-2966,-1016,-8405,48000,-15000,349000,461722,
-1592,15504,5772,-3044,-1005,-8281,48000,-15000,349000,461725,
-1708,15512,6144,-2961,-493,-7159,48000,-14000,349000,461737,
-1568,15548,6128,-3006,-516,-7007,48000,-14000,348000,461739,
-1484,15504,6424,-2973,-407,-6873,48000,-14000,348000,461742,
-2100,15388,6892,-3031,30,-5477,48000,-13000,348000,461754,
-2032,15424,7000,-2957,173,-5230,48000,-13000,348000,461757,
-2000,15400,6968,-3015,202,-5028,48000,-13000,348000,461759,
-1992,15176,7560,-2907,437,-4085,48000,-13000,348000,461772,
-1944,15312,7760,-2928,504,-3871,48000,-13000,348000,461774,
-2112,15356,7944,-2855,578,-3679,48000,-13000,348000,461776,
-1908,15120,8308,-2866,748,-2562,48000,-12000,347000,461789,
-1824,15092,8408,-2824,736,-2358,48000,-12000,347000,461791,
-1116,14848,8612,-2687,1027,-1354,48000,-12000,347000,461804,
-980,14892,8700,-2601,1113,-1195,48000,-12000,347000,461806,
-1052,14880,8548,-2566,1205,-1014,48000,-12000,347000,461809,
-424,14748,8432,-2267,1644,-212,47000,-12000,347000,461821,
-204,14748,8376,-2286,1620,-183,47000,-12000,347000,461823,
-80,14684,8344,-2156,1710,-147,47000,-12000,347000,461826,
-328,14564,8476,-1855,2052,918,47000,-11000,348000,461838,
-64,14572,8452,-1785,2146,1075,47000,-11000,348000,461841,
36,14532,8348,-1793,2080,1230,47000,-11000,348000,461843,
652,14352,8500,-1516,2156,1608,47000,-11000,348000,461856,
800,14208,8524,-1489,2142,1731,47000,-11000,348000,461858,
740,14348,8508,-1380,2267,1818,47000,-11000,348000,461860,
1092,14136,8800,-1112,2200,2284,47000,-11000,348000,461873,
1180,14208,8792,-1063,2205,2344,47000,-11000,348000,461875,
1360,14192,8868,-1044,2109,2408,47000,-11000,348000,461877,
1844,13904,8788,-720,2161,2682,47000,-11000,349000,461890,
2096,13864,8872,-715,2142,2759,47000,-11000,349000,461892,
2072,13864,8740,-592,2191,2745,47000,-11000,349000,461895,
2276,13780,8384,-361,2272,3018,47000,-11000,349000,461907,
2444,13708,8356,-288,2314,3053,47000,-11000,349000,461910,
2288,13656,8296,-330,2280,3123,47000,-11000,349000,461912,
2520,13656,8196,-157,2247,3329,47000,-11000,350000,461924,
2500,13696,8140,-210,2152,3383,47000,-11000,350000,461927,
2528,13596,8176,-151,2278,3408,47000,-11000,350000,461929,
2848,13520,8080,-233,2159,3594,47000,-12000,350000,461941,
2688,13484,8096,-223,2225,3551,47000,-12000,350000,461944,
2772,13500,7944,-296,2111,3601,47000,-12000,350000,461946,
2632,13560,8140,-368,1774,3748,47000,-12000,351000,461959,
2668,13548,8040,-467,1662,3770,47000,-12000,351000,461961,
2784,13508,8104,-485,1662,3808,47000,-12000,351000,461963,
3124,13540,8408,-719,1206,3942,46000,-12000,351000,461976,
3332,13556,8464,-801,1166,3943,46000,-12000,351000,461978,
3440,13564,8548,-792,1166,3938,46000,-12000,351000,461980,
4032,13628,8768,-849,1397,3938,46000,-12000,352000,461993,
3948,13588,8752,-816,1397,3965,46000,-12000,352000,461995,
3992,13524,8936,-842,1529,3906,46000,-12000,352000,461998,
4476,13372,8920,-779,1970,3845,46000,-12000,352000,462010,
4316,13444,8908,-791,2084,3839,46000,-13000,352000,462013,
4388,13356,8864,-747,2198,3818,46000,-13000,352000,462015,
4308,13324,8872,-688,2682,3658,46000,-13000,353000,462027,
4172,13400,8696,-686,2724,3683,46000,-13000,353000,462030,
4080,13384,8804,-702,2811,3641,46000,-13000,353000,462032,
3744,13256,8988,-766,2643,3612,46000,-13000,353000,462045,
3532,13164,8964,-748,2547,3596,46000,-13000,353000,462047,
3560,13140,8976,-738,2453,3590,46000,-13000,354000,462049,
3624,13268,9380,-790,1732,3648,46000,-13000,354000,462062,
3688,13256,9256,-824,1685,3637,46000,-13000,354000,462064,
3736,13244,9472,-858,1512,3711,46000,-13000,354000,462066,
4420,13120,9696,-793,1424,3645,46000,-13000,354000,462079,
4616,13084,9600,-835,1416,3641,46000,-13000,354000,462081,
4568,13044,9712,-744,1493,3607,46000,-13000,355000,462084,
4956,12900,9664,-746,1783,3506,45000,-13000,355000,462096,
4984,12836,9600,-665,1904,3481,45000,-13000,355000,462098,
4988,12844,9708,-713,1943,3438,45000,-13000,355000,462101,
4868,12992,9716,-601,2141,3456,45000,-13000,355000,462113,
4740,12980,9516,-645,2142,3410,45000,-14000,355000,462116,
4812,13064,9624,-657,2084,3426,45000,-14000,356000,462118,
4460,13420,9744,-769,1658,3567,45000,-14000,356000,462131,
4364,13484,9748,-767,1569,3672,45000,-14000,356000,462133,
4428,13520,9752,-874,1460,3729,45000,-14000,356000,462135,
4556,13808,9844,-1195,683,4178,45000,-14000,356000,462148,
4664,13820,9884,-1302,519,4269,45000,-14000,356000,462150,
4812,13768,10004,-1305,435,4349,45000,-14000,356000,462152,
5640,13488,10128,-1523,143,4719,45000,-14000,357000,462165,
5664,13544,10072,-1603,119,4742,45000,-14000,357000,462167,
5780,13608,10148,-1588,115,4820,45000,-15000,357000,462170,
6228,13588,10268,-1760,182,5020,44000,-15000,357000,462182,
6244,13540,10212,-1735,250,5035,44000,-15000,357000,462185,
6300,13548,10344,-1791,269,5051,44000,-15000,357000,462187,
6284,13372,10052,-1997,108,4999,44000,-15000,358000,462199,
6292,13428,10144,-2046,100,4940,44000,-15000,358000,462202,
6280,13240,10128,-2082,0,4977,44000,-16000,358000,462204,
6004,13088,10060,-2184,-401,4744,44000,-16000,358000,462217,
5956,12988,10300,-2258,-581,4720,44000,-16000,358000,462219,
6016,13056,10064,-2236,-617,4672,44000,-16000,358000,462221,
