Ax,Ay,Az,Gx,Gy,Gz,Roll,Pitch,Yaw,Timestamp,Target
-3848,5740,9120,10848,-7696,7864,38000,21000,277000,496778,
-3144,5676,8728,10511,-7357,7054,40000,19000,277000,496793,
-2960,5640,8772,10526,-7268,6911,40000,19000,277000,496795,
-2760,5332,8796,10360,-7011,6188,41000,18000,277000,496807,
-2624,5324,8812,10326,-6882,6021,41000,18000,277000,496810,
-2588,5284,8760,10316,-6929,5915,41000,18000,277000,496812,
-2060,5388,8664,10048,-6647,5153,42000,17000,277000,496825,
-1900,5,127,-196,38000,32000,0,0,0,496825,
-1824,5464,8684,10006,-6447,4821,42000,17000,277000,496829,
-1204,5756,8356,9874,-5697,4033,43000,16000,277000,496842,
-1088,5652,8208,9883,-5547,3862,43000,16000,277000,496844,
-1104,5644,8272,9899,-5332,3694,43000,16000,277000,496846,
-1072,5480,8376,10043,-4711,2843,44000,15000,277000,496859,
-16072,-5592,15908,-7313,1027,-5993,-29000,42000,237000,502551,
-7000,5328,8192,-6883,1425,-5133,27000,39000,275000,502173,
0,0,0,0,0,0,27000,39000,275000,502173,
-116,6364,6648,9974,-5217,-2366,49000,13000,274000,496928,
-120,6428,6860,9868,-5356,-2569,49000,274000,496930,0,
-20,6460,6484,9829,-5285,-2697,49000,13000,274000,496932,
232,6544,6052,9398,-5080,-3655,50000,13000,274000,496945,
232,6612,5932,9393,-4925,-3842,50000,13000,274000,496947,
104,6852,5144,8922,-3865,-5233,51000,13000,273000,496967,
-244,7216,4988,8508,-3358,-6043,52000,13000,272000,496979,
-416,7388,4740,8300,-3182,-6363,52000,13000,272000,496984,
-996,7640,4660,7795,-2974,-7016,53000,14000,271000,496996,
-1080,7712,4616,7661,-2915,-7131,53000,14000,271000,3,
-1088,7664,4532,7611,-2942,-7244,53000,14000,271000,497001,
-1728,8220,4148,6868,-2793,-7686,53000,14000,270000,497014,
-1884,8280,4028,6792,-2821,-7759,53000,14000,270000,497016,
-2440,9168,3844,5879,-2626,-8115,54000,15000,269000,497031,
-2588,9072,3716,5731,-2582,-8180,54000,15000,269000,497033,
-3380,10128,3208,4469,-2384,-8571,55000,16000,268000,497053,
-3548,10748,3028,3511,-2337,-8773,55000,16000,267000,497065,
-3500,10800,2740,3259,-2314,-8808,55000,16000,267000,497067,
-3660,10692,2768,3118,-2199,-8824,55000,16000,267000,497070,
-3784,10584,2420,2090,-1932,-9005,55000,17000,267000,497082,
-3756,10512,2128,1855,-1888,-9060,55000,17000,266000,497085,
-3740,10576,2228,1711,-1735,-9107,55000,17000,266000,497087,
-4216,10520,1832,592,-1023,-9269,55000,18000,266000,497100,
-4428,10520,1640,496,-766,-9262,55000,18000,266000,497102,
-7200,12176,1532,-2918,9,-8406,55000,20000,264000,497138,
-7344,12340,2176,-4155,-430,-7908,54000,21000,264000,497151,
-7236,12376,2232,-4332,-425,-7870,54000,21000,264000,497153,
-7248,12384,2252,-4563,-510,-7800,54000,21000,264000,497155,
-6848,12520,2728,-5406,204,-7551,54000,22000,263000,497168,
0,0,0,0,0,0,54000,22000,263000,497168,
-7108,13128,3372,-6165,2321,-7106,53000,23000,263000,497185,
-7284,13216,3352,-6260,2722,-7022,53000,23000,263000,497187,
-7444,13464,3192,-6388,2941,-6982,53000,23000,263000,497190,
-8004,13480,3664,-6971,3714,-6504,52000,24000,263000,497202,
-7996,13884,4020,-7717,0,502897,0,0,0,497202,
-7936,13996,3964,-7843,3994,-5798,51000,25000,263000,497222,
-7976,13928,4072,-7875,237000,502916,0,0,0,497222,
-8216,14192,4032,-8318,5030,-5327,50000,26000,263000,497237,
-8172,14224,4156,-8354,5303,-5237,50000,26000,263000,497239,
-8360,14292,4040,-8504,5489,-5195,50000,26000,263000,497241,
-10216,14408,5224,-9728,5716,-34238000,0,0,0,497241,
-10388,14580,5556,-9873,5479,-3289,48000,28000,264000,497276,
-9604,14700,6772,-10139,4892,-2568,47000,29000,2640,497288,
-9360,14656,7092,-10233,4900,-2440,47000,29000,264000,497291,
-8996,14428,7808,-10223,5631,-1811,47000,29000,265000,497303,
-9064,14324,7596,-10131,5947,-1748,46000,29000,265000,497306,
-9108,14256,7628,-10137,6193,-1597,46000,29000,265000,497308,
-9984,14000,7776,-9797,7252,-854,46000,30000,265000,497321,
-10832,13900,9048,-9810,6326,242,45000,31000,266000,497338,
0,-1304,16556,2785,-3665,7508,-25000,42000,243000,503014,
-10636,13788,9272,-9795,5916,463,45000,31000,266000,497343,
0,0,0,0,0,0,45000,31000,266000,497343,
-9800,13320,10252,-9366,5317,1285,44000,31000,267000,497360,
-9744,12916,10128,-9007,5952,1780,43000,32000,268000,497373,
-9744,12864,9980,-8877,6107,1923,43000,32000,268000,497375,
-9988,12324,10352,-8584,5865,2555,43000,32000,269000,497390,
0,0,0,0,0,0,43000,32000,269000,497390,
-9840,12312,10416,-8516,5458,2782,43000,32000,269000,497395,
-8916,12132,11236,-8254,4404,3242,42000,32000,269000,497408,
-8756,12212,11428,-8216,4248,3271,42000,32000,270000,497410,
-8476,12120,11356,-8136,4224,3322,42000,32000,270000,497413,
-7636,11724,11888,-7441,4452,3533,42000,32000,270000,497425,
-7692,11680,11724,-7334,4575,3533,42000,32000,270000,497428,
-7764,11348,12208,-6609,4669,3786,41000,32000,271000,497445,
-6964,10824,12908,-5796,3168,3728,41000,32000,272000,497465,
-6136,10400,12832,-5128,3063,3574,41000,32000,273000,497478,
-6204,10452,12740,-4965,3212,3496,40000,32000,273000,497480,
-6088,10380,12716,-4865,3200,3518,40000,32000,273000,497482,
-5888,10044,12296,-4133,3767,3164,40000,32000,274000,497495,
-5976,10060,12076,-4068,3789,3151,40000,32000,274000,497497,
-6084,10048,12176,-3917,3823,3071,40000,32000,274000,497500,
-6284,10076,11952,-3492,3313,2819,40000,32000,274000,497512,
-5300,9880,12392,-2872,1597,2220,40000,32000,275000,497534,
-5008,-1416,16232,15083,-12307,16958,8000,29000,276000,503218,
-4984,9704,12352,-1986,1835,1677,40000,32000,275000,497552,
-5268,9596,11800,-1544,2181,1279,40000,32000,276000,497564,
-5416,9568,11540,-1419,2276,1193,40000,32000,276000,497567,
-5536,9628,11432,-1407,2237,1132,40000,32000,276000,497569,
-6292,9856,10576,-1280,2027,775,40000,32000,276000,497582,
-6344,9832,10620,-1244,1895,746,40000,32000,276000,497584,
-6600,9808,10356,-1316,1740,692,40000,32000,276000,497587,
-6928,9832,10208,-1373,939,590,40000,32000,276000,497599,
0,0,0,0,0,0,40000,32000,276000,497599,
-6856,9804,10188,-1410,556,581,40000,32000,276000,497604,
-6476,9768,10504,0,284000,503317,0,0,0,497604,
-6480,9668,10600,-1477,-16,515,40000,32000,276000,497619,
-6260,9760,10496,-1443,7,464,40000,32000,276000,497621,
-5892,9492,10496,-1240,490,289,40000,32000,276000,497639,
-6092,9472,10520,-915,1097,114,40000,32000,276000,497651,
-6188,9468,10176,-867,1246,91,40000,32000,276000,497656,
-6580,9576,9800,-850,1279,-68,40000,32000,277000,497669,
-6592,9612,9816,-823,1194,-73,40000,32000,277000,497671,
-6660,9620,9696,-864,1192,-79,40000,32000,277000,497368,
-6940,9628,9828,-873,920,-118,40000,32000,277000,497688,
-6936,9740,9692,-881,647,-212,39000,32000,277000,497703,
-6896,9776,9644,-881,568,-186,39000,32000,277000,497706,
-6556,9904,9796,-814,300,-474,39000,32000,277000,497738,
-6532,9880,9628,-800,251,-489,39000,32000,277000,497740,
-6556,9944,9816,-757,316,-477,39000,32000,277000,497743,
-6628,9864,9708,-652,341,-597,39000,32000,277000,497755,
-6764,9916,9460,-711,293,-616,39000,32000,277000,497758,
-6612,9860,9592,-651,354,-641,39000,32000,277000,497760,
-6848,10016,9552,-646,260,-727,39000,32000,277000,497772,
-6848,9908,9532,-667,216,-758,39000,32000,-2755,-2125,
1076,3864,5404,14119,-2895,-1783,41000,123,45000,9000,
-7076,9968,9616,-662,-94,-836,39000,32000,277000,497812,
-7324,9968,9852,-537,87,-761,39000,32000,276000,497842,
-7276,10080,9840,-553,58,-776,39000,32000,276000,497844,
-7296,10100,9780,-481,105,-761,39000,32000,276000,497846,
-7540,10164,9636,-535,97,-735,39000,32000,276000,497859,
-7576,10148,9588,-471,125,-715,39000,32000,276000,497862,
-7556,10176,9560,-532,53,-706,39000,32000,276000,497864,
-7564,10328,9496,-477,-41,-670,39000,32000,276000,497876,
-7524,0,50000,11000,281000,503573,0,0,0,497876,
-7540,10324,9456,-504,-33,-640,39000,32000,276000,497881,
-7560,10168,9388,-577,-277,-557,39000,32000,276000,497894,
-7464,10164,9496,-521,-229,-601,39000,32000,276000,497896,
-7520,10120,9476,-588,-320,-578,39000,32000,276000,497898,
-7288,10060,9432,-542,-281,-552,39000,32000,276000,497911,
-7404,10108,9600,-625,-335,-566,39000,32000,276000,497913,
-7296,10028,9408,-540,-246,-602,39000,32000,276000,497916,
-7192,9956,9544,-523,-70,-555,39000,32000,276000,497928,
-7260,9924,9584,-488,46,-566,39000,32000,276000,497930,
-7296,9976,9628,-483,36,-549,39000,32000,276000,497933,
-7372,9808,9428,-380,243,-559,39000,32000,276000,497945,
-7448,9904,9408,-387,246,-544,39000,32000,276000,497948,
-7500,9892,9476,-394,172,-513,39000,32000,276000,497950,
-7696,9992,9428,-423,104,-497,39000,32000,276000,497963,
-7420,9988,9416,-314,87,-408,39000,32000,276000,497999,
-7308,9976,9356,-285,163,-396,39000,32000,276000,498002,
-7304,9852,9372,-276,146,-391,39000,32000,276000,498014,
-7428,9832,9376,-298,177,-5572,11900,760,-1071,1734,
-7340,9828,9284,-406,266,-338,0,0,0,1734,
-7416,9752,9248,-419,346,-341,39000,32000,276000,498068,
-7404,9732,9268,-438,312,-339,39000,32000,276000,498071,
-7432,9744,8984,-500,205,-327,39000,32000,276000,498083,
-7348,9780,8996,-547,122,-332,39000,32000,276000,498086,
-7172,9732,9256,-582,136,-392,39000,32000,276000,498105,
-7080,3324,-6148,3502,-8746,52000,23000,274000,503760,0,
-7140,9704,9316,-534,428,-460,39000,32000,276000,498120,
-7180,9684,9436,-461,149,5190,-8262,51000,25000,274000,
-7520,9700,9488,-369,650,-467,39000,32000,276000,498138,
-7524,9744,9468,-348,620,-486,39000,32000,276000,498140,
-7624,9832,9368,-383,337,-472,39000,32000,276000,498155,
-7608,9860,9224,-406,395,-496,39000,32000,276000,498157,
-7444,9764,9188,-442,234,-479,39000,32000,276000,498170,
-7480,9820,9180,-434,258,-524,39000,32000,276000,498172,
-7544,9732,9124,-459,213,-493,39000,32000,276000,498175,
-7484,9688,9220,-450,265,-465,39000,32000,276000,498187,
-7444,9728,9284,-454,306,-501,39000,32000,276000,498190,
-7468,9744,9288,-464,245,-495,39000,32000,276000,498192,
-7364,9768,9280,-517,280,-468,39000,32000,2760003866,0,
-7356,9852,9188,-605,238,-481,39000,32000,276000,498207,
-7412,9860,9284,-540,295,-474,39000,32000,276000,498209,
-7356,9820,9204,-596,395,-517,39000,32000,276000,498222,
-7656,9924,9272,-700,529,-416,39000,33000,276000,498256,
-7704,9856,9324,-668,539,-399,39000,33000,276000,498259,
-7760,9832,9444,-755,267,-347,39000,33000,276000,498273,
-7792,9824,9472,-806,161,-300,39000,33000,276000,498276,
-7800,9812,9416,-744,211,-336,38000,33000,276000,498278,
0,0,0,0,0,0,38000,33000,276000,498278,
-7624,9764,9676,-718,17,-242,38000,33000,276000,498296,
-7532,9784,9764,-699,8,-216,38000,33000,276000,498308,
-7532,9720,9692,-697,114,-201,38000,33000,276000,498311,
-7408,9808,9796,-690,65,-206,38000,33000,277000,498313,
-7332,9844,9704,-584,246,-226,38000,33000,277000,498326,
-7312,9732,9812,-607,311,843,6365,-961,38000,36000,
-7588,9712,9552,-510,373,-247,38000,33000,277000,498348,
-7660,9844,9568,-565,233,-251,38000,33000,277000,498360,
-7788,9788,9604,-591,99,-258,38000,33000,277000,498365,
-7664,9720,9788,-546,37,-185,38000,33000,277000,498378,
-7688,9672,9632,-600,-10,-189,38000,33000,27702,-8251,
-7460,9764,9780,-498,-12,-161,38000,33000,277000,43116,
-7544,9812,9720,-504,30,-137,38000,33000,277000,498400680,
-7412,9812,9504,-477,12,-164,38000,33000,277000,498415,
-7496,9832,9744,-436,60,-162,38000,33000,277000,498417,
-7444,9820,9580,-429,-31,-177,38000,33000,277000,498430,
-7476,9820,9664,-417,-6,-160,38000,33000,277000,498432,
-7460,9844,9700,-382,23,-200,38000,33000,277000,498435,
-7384,9836,9456,-432,7,-183512,-3650,2125,-851,32000,
-7508,9860,9404,-440,-5,-158,38000,3304,-2883,2164,
-7360,9784,9388,-464,-25,-172,38000,33000,2604,-2055,
-7424,9816,9440,-486,-87,-173,38000,33000,277000,498482,
-7528,9688,9440,-393,17,-215,38000,33000,277000,498484,
-7400,9752,9328,-457,-70,-171,38000,33000,277000,498487,
-7460,9756,9408,-371,-57,-146,38000,32000,277000,498499,
-7484,9736,9544,-377,-52,-174,38000,32000,277000,498504,
-7488,9724,9388,-376,-189,-183,38000,32000,277000,498517,
-7428,9796,9372,-400,-162,-178,38000,32000,277000,498519,
-7311276,-1536,131,-745,31000,40000,0,0,0,498519,
-7468,9820,9504,-371,-116,-212,38000,32000,277000,498534,
-7312,91108,-1442,-617,-506,31000,40000,280000,504227,0,
-7456,9772,9452,-374,-109,-209,38000,32000,277000,498539,
-7548,9744,9340,-259,-81,-252,38000,32000,277000,498571,
-7584,9780,9332,-293,-116,-274,38000,32000,277000,498573,
-7360,9792,9488,-250,-69,-271,38000,32000,277000,498586,
-7480,9912,9480,-277,-53,-267,38000,32000,277000,498588,
-7428,9724,9452,-252,-54,-254,38000,32000,277000,498591,
-7332,9836,9384,-263,67,-269,38000,32000,277000,498603,
-7236,9816,9328,-200,143,-264,38000,32000,277000,498606,
-7372,9876,9224,-246,154,-268,38000,32000,277000,498608,
-7336,9880,9248,-233,331,-275,38000,32000,277000,498621,
-7272,9828,9196,-240,248,-315,38000,32000,277000,498623,
-7588,9920,9224,-414,210,-308,38000,32000,277000,498660,
-7764,9896,9148,-401,148,-300,38000,32000,277000,498672,
-7640,9908,9136,-491,63,-269,38000,32000,277000,498675,
-7580,9932,9200,-411,99,-258,38000,32000,277000,498677,
-7624,9848,9304,-491,-25,-252,38000,32000,277000,498689,
-7600,9824,9352,-426,19,-238,38000,32000,277000,498692,
-7584,9876,9340,-527,-71,40000,0,0,0,498692,
-8632,7432,9608,-1023,-779,-892,30000,40000,279000,504348,
-7488,9680,9364,-521,151,-260,38000,32000,277000,498724,
-7392,9640,9348,-467,180,-230,38000,32000,277000,498727,
-7576,9640,9172,-493,163,-245,38000,32000,277000,498729,
-7664,9620,9384,-552,174,-255,38000,32000,277000,498742,
-7740,9612,9228,-468,201,-250,38000,32000,277000,498744,
-7688,9676,9268,-537,178,-173,38000,32000,277000,498746,
-7664,9744,9248,-521,166,-182,38000,32000,277000,498759,
-7580,9744,9332,-562,126,-194,38000,32000,277000,498761,
-7488,964,9420,-991,-336,-1312,29000,40000,278000,504452,
-7480,9612,9484,-479,258,-188,38000,32000,277000,498781,
-7596,9648,9392,-501,292,-223,38000,32000,277000,498794,
-7524,9640,9416,-462,344,-202,38000,32000,277000,498796,
-7712,9560,9472,-512,233,-227,38000,32000,277000,498798,
-16056,-5688,15728,-7152,836,-5749,-29000,42000,237000,502553,
-15316,-5516,15236,-6617,-382,-4811,-30000,42000,237000,502566,
-1,10,-1453,28000,40000,278000,0,0,0,502566,
-13388,-5148,13896,-5140,230,-3827,-31000,41000,236000,502588,
-12748,-4900,12120,-3475,-361,-2866,-33000,41000,235000,502621,
-12228,-5316,11964,-3044,-880,-2599,-33000,41000,235000,502633,
-12624,-6688,12720,-1681,-184,-1981,-33000,40000,235000,502653,
-12744,-6792,12692,-1536,-6,-1833,-34000,40000,235000,502655,
-12644,-6904,12592,-822,284,-1222,-34000,40000,235000,502668,
-12512,-6924,12388,-627,348,-1158,-34000,40000,235000,502670,
-12500,-6840,12428,-595,347,-1043,-34000,40000,235000,502673,
-11864,-6740,11724,-179,465,-685,-34000,40000,235000,502685,
-11856,-6696,11472,-77,573,-580,-34000,40000,235000,502688,
-11596,-6644,11296,-59,519,-543,-34000,40000,234000,502690,
-11352,-6240,10492,38,623,-224,-34000,40000,234000,502705,
-11120,-6164,10536,121,567,-161,-34000,40000,234000,502708,
-10580,-5816,10076,8,536,-18,-34000,41000,234000,502720,
-10576,-5776,10032,46,572,11,-34000,41000,234000,502723,
-10532,-5748,10044,-7,562,51,-34000,41000,234000,502725,
-10532,-5588,10356,123,758,147,-34000,41000,234000,502738,
-10608,-5572,10216,86,774,172,-34000,41000,234000,502740,
-10596,-5560,10320,135,873,208,-34000,41000,234000,502742,
-11172,-5508,10592,258,919,422,-34000,41000,234000,502755,
-11028,-5488,10528,276,891,417,-34000,41000,234000,502757,
-11344,-5544,10512,271,842,489,-34000,41000,234000,502760,
0,0,0,0,0,0,-34000,41000,234000,502760,
-9724,7460,9860,-511,-11,-291,27000,41000,277000,504675,
-9924,7364,979944,7404,9712,-449,50,-95,27000,41000,
-10908,-5388,10348,166,-478,891,-33000,41000,235000,502795,
-10536,-5284,10372,141,-569,856,-33000,41000,235000,502807,
-10384,-5536,10500,214,-555,880,-33000,41000,235000,502810,
-10440,-5524,10332,186,-538,884,-33000,41000,235000,502812,
-10352,-5356,10492,358,-308,834,-33000,41000,235000,502825,
-10368,-5356,10512,311,-295,883,-33000,41000,235000,502827,
-11748,-5096,11364,496,-69,1380,-33000,41000,235000,502862,
-11828,-5008,11260,559,-151,1429,-32000,41000,236000,502864,
0,0,0,0,0,0,-32000,41000,236000,502864,
-11904,-4840,11860,662,-678,1799,-32000,41000,236000,502879,
-11928,-4700,12020,66,7172,9628,-176,73,77,27000,
-11724,-4356,12240,1040,-605,2248,-32000,41000,236000,502899,
-11876,-3952,12124,1289,-486,2543,-31000,41000,237000,502912,
-12752,-2900,12124,1349,-1214,2825,-31000,42000,237000,502929,
-12940,-3036,12340,1273,-1540,2936,-30000,42000,237000,502932,
0,0,0,0,0,0,-30000,42000,237000,502932,
-12932,-3252,12936,1246,-2990,3652,-30000,42000,238000,502947,
0,0,0,0,0,0,-30000,42000,238000,502947,
-12512,-2916,13656,1497,-3432,4441,-29000,41000,239000,502964,
0,0,0,0,0,0,-29000,41000,239000,502964,
-12472,-2848,13896,1596,-3367,4648,-28000,41000,240000,502969,
-12860,-2668,14336,1956,-2980,5251,-28000,41000,240000,502982,
-12920,-2668,14352,1953,-2994,5435,-27000,41000,241000,502984,
-13836,-2232,15296,2362,-2680,6200,-26000,41000,242000,502997,
-14064,-2028,15400,2415,-2838,6362,-26000,41000,242000,502999,
0,0,0,0,0,0,-26000,41000,242000,502999,
-9432,7160,9784,-370,5,39,28000,41000,278000,504942,
-9372,7136,9732,-321,73,4,28000,41000,278000,504944,
-16296,-924,17632,3281,-5651,9188,-23000,41000,245000,503034,
-16404,-1004,17904,3430,-5931,9366,-23000,41000,246000,503036,
-16920,-1188,18656,4014,-7287,10565,-21000,41000,247000,503049,
-16888,-1232,18816,4110,-7402,10756,-21000,41000,248000,503051,
-17016,-1304,19048,4241,-7666,11041,-20000,41000,248000,503054,
-16376,-1436,19680,6474,-8822,14078,-16000,40000,253000,503084,
-16344,-1328,19548,6632,-8789,14246,-8000,40000,278000,505018,
