Ax,Ay,Az,Gx,Gy,Gz,Roll,Pitch,Yaw,Timestamp,Target
-1040,-812,16600,-330,-184,79,-10000,7000,359000,549144,
-964,-984,16640,-357,-169,85,-10000,7000,359000,549147,
-892,-860,16636,-324,18,-31,-10000,7000,359000,549159,
-776,-800,16756,-348,16,4,-10000,7000,359000,549162,
-812,-912,16868,-394,98,-3,-10000,7000,359000,549164,
-936,-908,16596,-303,123,-32,-10000,7000,359000,549167,
-976,-936,16680,-379,391,-46,-10000,7000,359000,549179,
-1064,-788,16724,-358,411,-49,-10000,7000,359000,549182,
-872,-892,16732,-409,430,-42,-10000,7000,359000,549184,
-1044,-832,16580,-382,543,-23,-10000,7000,359000,549197,
-1144,-864,16792,-435,565,-23,-10000,7000,359000,549199,
-1220,-812,16484,-419,579,-54,-10000,7000,359000,549202,
-1332,-912,16648,-438,448,-31,-10000,7000,359000,549214,
-1268,-880,16664,-422,439,-70,-10000,7000,359000,549217,
-1196,-880,16740,-365,382,-91,-10000,7000,359000,549219,
-1180,-864,16560,-413,300,-148,-10000,7000,359000,549231,
-1164,-928,16520,-372,259,-157,-10000,7000,359000,549234,
-1244,-932,16708,-413,259,-145,-10000,7000,359000,549236,
-1220,-960,16480,-383,297,-182,-10000,7000,359000,549249,
-1128,-820,16464,-421,292,-163,-10000,7000,359000,549251,
-1168,-1020,16480,-431,353,-174,-10000,7000,359000,549254,
-1172,-968,16564,-467,507,-134,-10000,7000,359000,549266,
-1096,-952,16528,-456,564,-139,-10000,7000,359000,549268,
-1116,-940,16496,-401,546,-136,-10000,7000,359000,549271,
-1252,-912,16776,-521,620,-74,-10000,7000,359000,549283,
-1396,-980,16552,-497,581,-75,-10000,7000,359000,549286,
-1376,-852,16372,-521,610,-65,-10000,7000,359000,549288,
-1408,-884,16452,-535,535,-27,-10000,7000,359000,549301,
-1448,-980,16472,-548,510,-26,-10000,7000,359000,549303,
-1336,-908,16420,-553,527,-50,-10000,7000,359000,549306,
-1484,-1052,16420,-561,372,-3,-10000,7000,359000,549318,
-1464,-1052,16588,-527,388,-26,-10000,7000,359000,549321,
-1456,-1032,16452,-517,326,-8,-10000,7000,359000,549323,
-1412,-1088,16456,-520,351,11,-10000,7000,359000,549336,
-1476,-1208,16340,-520,329,27,-10000,7000,359000,549338,
-1432,-1060,16456,-569,342,22,-10000,7000,359000,549340,
-1464,-1180,16512,-582,331,3,-10000,7000,359000,549353,
-1464,-1104,16416,-553,389,-6,-10000,7000,359000,549356,
-1396,-1072,16408,-569,337,2,-10000,7000,359000,549358,
-1344,-948,16372,-585,349,15,-10000,7000,359000,549371,
-1404,-1096,16292,-613,331,55,-10000,7000,359000,549373,
-1584,-1112,16420,-609,338,21,-10000,7000,359000,549375,
-1552,-1264,16632,-603,220,157,-10000,7000,359000,549388,
-1520,-1204,16468,-588,245,164,-10000,7000,359000,549390,
-1604,-1164,16644,-579,189,207,-10000,7000,359000,549393,
-1424,-1124,16696,-636,167,205,-10000,7000,359000,549405,
-1372,-1212,16524,-669,146,243,-10000,7000,359000,549408,
-1412,-1252,16680,-647,143,223,-10000,7000,359000,549410,
-1404,-1480,16544,-576,-65,299,-10000,7000,359000,549423,
-1432,-1460,16748,-592,-54,326,-10000,7000,359000,549425,
-1468,-1388,16580,-550,-84,302,-10000,7000,359000,549428,
-1392,-1420,16672,-580,-196,354,-10000,7000,359000,549440,
-1344,-1260,16480,-508,-217,377,-10000,7000,359000,549443,
-1348,-1396,16468,-506,-235,370,-10000,7000,359000,549445,
-1180,-1192,16600,-447,-282,349,-10000,7000,359000,549458,
-1220,-1276,16680,-471,-259,349,-10000,7000,359000,549460,
-1136,-1204,16512,-466,-241,344,-10000,7000,359000,549462,
-1072,-1296,16724,-393,-143,329,-10000,7000,359000,549475,
-1124,-1372,16700,-396,-89,309,-10000,7000,359000,549477,
-1076,-1396,16764,-340,-88,299,-10000,7000,359000,549480,
-1272,-1388,16840,-329,31,298,-10000,7000,359000,549492,
-1128,-1416,16888,-293,-1,318,-10000,7000,359000,549495,
-1060,-1220,16756,-324,3,324,-10000,7000,359000,549497,
-1116,-1208,16844,-253,-65,335,-10000,7000,359000,549510,
-1180,-1180,16868,-278,-63,325,-10000,7000,359000,549512,
-1208,-1172,16812,-268,-39,348,-10000,7000,359000,549515,
-1100,-1100,16956,-230,-73,309,-10000,7000,359000,549527,
-1012,-1184,16904,-201,-68,286,-10000,7000,359000,549530,
-1032,-1052,16880,-185,-90,271,-10000,7000,359000,549532,
-880,-1012,16904,-170,-119,221,-10000,7000,359000,549545,
-876,-1080,16828,-165,-170,216,-10000,7000,359000,549547,
-860,-1040,16680,-200,-177,187,-10000,7000,359000,549549,
-864,-1052,16716,-135,-139,141,-10000,7000,359000,549562,
-776,-1000,16796,-157,-121,147,-10000,7000,359000,549564,
-784,-1004,16748,-63,4,159,-10000,7000,359000,549577,
-864,-1064,16600,-129,55,162,-10000,7000,359000,549579,
-912,-932,16668,-79,166,126,-10000,7000,359000,549582,
-784,-944,16632,-104,180,152,-10000,7000,359000,549584,
-844,-828,16744,-75,509,-7,-10000,7000,359000,549597,
-788,-876,16616,-90,513,6,-10000,7000,359000,549599,
-752,-696,16712,-122,601,-21,-10000,7000,359000,549601,
-820,-764,16664,-93,841,26,-10000,7000,359000,549614,
-1032,-848,16772,-113,893,13,-10000,7000,359000,549616,
-1076,-900,16648,-89,916,0,-10000,7000,359000,549619,
-940,-936,16660,-94,876,14,-10000,7000,359000,549621,
-1252,-796,16628,-56,773,-78,-10000,7000,359000,549634,
-1300,-832,16768,-58,699,-57,-10000,7000,359000,549636,
-1312,-792,16792,-99,650,-74,-10000,7000,359000,549638,
-1428,-824,16496,-106,454,-79,-10000,7000,359000,549651,
-1288,-876,16544,-130,439,-72,-10000,7000,359000,549653,
-1316,-784,16588,-114,471,-109,-10000,7000,359000,549656,
-1324,-988,16660,-109,371,20,-10000,7000,359000,549668,
-1240,-952,16472,-97,392,-9,-10000,7000,359000,549671,
-1352,-888,16524,-162,397,33,-10000,7000,359000,549673,
-1284,-996,16496,-228,644,71,-10000,7000,359000,549686,
-1296,-936,16652,-247,674,127,-10000,7000,359000,549688,
-1300,-928,16480,-296,717,115,-10000,7000,359000,549690,
-1356,-848,16492,-432,956,121,-10000,7000,359000,549703,
-1372,-768,16360,-475,996,118,-10000,7000,359000,549705,
-1416,-952,16508,-457,1023,87,-10000,7000,359000,549707,
-1472,-940,16428,-534,1001,104,-10000,7000,359000,549720,
-1524,-888,16408,-533,966,133,-10000,7000,359000,549722,
-1540,-912,16328,-557,951,161,-10000,7000,359000,549725,
-1508,-816,16172,-648,884,243,-10000,7000,359000,549738,
-1628,-828,16300,-681,798,301,-10000,7000,359000,549740,
-1640,-948,16284,-710,766,311,-10000,7000,359000,549742,
-1660,-980,16404,-740,387,413,-10000,7000,359000,549755,
-1780,-1044,16416,-709,352,384,-10000,7000,359000,549757,
-1684,-1016,16240,-679,282,374,-10000,7000,359000,549760,
-1440,-908,16364,-730,39,279,-10000,7000,359000,549772,
-1436,-928,16260,-675,-52,257,-10000,7000,359000,549775,
-1424,-800,16288,-692,-48,253,-10000,7000,359000,549777,
-1384,-856,16240,-634,-98,199,-10000,7000,359000,549790,
-1352,-808,16232,-666,-82,207,-10000,7000,359000,549792,
-1408,-904,16312,-642,6,198,-10000,7000,359000,549794,
-1252,-840,16344,-628,74,155,-10000,7000,359000,549807,
-1220,-908,16312,-639,175,108,-10000,7000,359000,549809,
-1236,-968,16400,-613,157,106,-10000,7000,359000,549812,
-1224,-984,16324,-661,342,62,-10000,7000,359000,549824,
-1304,-952,16448,-618,374,93,-10000,7000,359000,549827,
-1156,-796,16420,-664,415,134,-10000,7000,359000,549829,
-1384,-624,16480,-691,484,180,-10000,7000,359000,549842,
-1404,-628,16644,-707,456,193,-10000,7000,359000,549844,
-1344,-796,16544,-732,496,166,-10000,7000,359000,549846,
-1348,-844,16384,-794,307,106,-10000,7000,359000,549859,
-1384,-796,16516,-770,304,57,-10000,7000,359000,549861,
-1568,-904,16528,-753,217,49,-10000,7000,359000,549864,
-1580,-1144,16656,-757,-76,21,-10000,7000,359000,549876,
-1428,-1148,16620,-706,-138,9,-10000,7000,359000,549879,
-1408,-1064,16660,-761,-119,43,-10000,7000,359000,549881,
-1320,-964,16772,-759,19,39,-10000,7000,359000,549894,
-1276,-1072,16616,-789,8,29,-10000,7000,359000,549896,
-1272,-1116,16724,-779,68,18,-10000,7000,359000,549899,
-1308,-1220,16816,-740,39,21,-10000,7000,359000,549901,
-1276,-1248,16356,-778,62,13,-10000,7000,359000,549914,
-1380,-1232,16432,-763,35,2,-10000,7000,359000,549916,
-1436,-1136,16476,-791,19,55,-10000,7000,359000,549919,
-1436,-1080,16572,-750,-110,67,-10000,7000,359000,549931,
-1464,-964,16464,-758,-91,48,-10000,7000,359000,549934,
-1460,-1000,16460,-693,-95,36,-10000,7000,359000,549936,
-1384,-972,16456,-695,-83,42,-10000,7000,359000,549949,
-1352,-1048,16368,-631,-87,4,-10000,7000,359000,549951,
-1252,-1080,16524,-669,-105,9,-10000,7000,359000,549954,
-1316,-1168,16528,-532,-128,-43,-10000,7000,359000,549966,
-1196,-1148,16464,-566,-132,-22,-10000,7000,359000,549969,
-1220,-1072,16528,-578,-82,5,-10000,7000,359000,549971,
-1136,-1144,16536,-531,79,15,-10000,7000,359000,549984,
-1204,-1172,16372,-558,118,5,-10000,7000,359000,549986,
-1204,-1100,16476,-493,144,0,-10000,7000,359000,549989,
-1256,-1036,16540,-488,305,16,-10000,7000,359000,550001,
-1260,-1068,16644,-456,294,29,-10000,7000,359000,550004,
-1228,-1012,16656,-450,244,57,-10000,7000,359000,550006,
-1292,-1052,16532,-341,143,108,-10000,7000,359000,550019,
-1372,-1068,16628,-367,140,91,-10000,7000,359000,550021,
-1320,-920,16500,-367,162,109,-10000,7000,359000,550023,
-1164,-856,16532,-326,176,52,-10000,7000,359000,550036,
-1212,-916,16512,-319,205,-4,-10000,7000,359000,550038,
-1340,-800,16564,-273,153,12,-10000,7000,359000,550041,
-1172,-624,16684,-321,91,-40,-10000,7000,359000,550057,
-1200,-760,16908,-358,96,-49,-10000,7000,359000,550059,
-1124,-648,16664,-330,130,-65,-10000,7000,359000,550062,
-1256,-880,16732,-410,202,-90,-10000,7000,359000,550074,
-1204,-868,16748,-364,237,-76,-10000,7000,359000,550077,
-1264,-944,16692,-378,255,-76,-10000,7000,359000,550079,
-1272,-1004,16716,-363,318,-34,-10000,7000,359000,550092,
-1240,-972,16648,-401,316,53,-10000,7000,359000,550094,
-1304,-1048,16904,-401,300,30,-10000,7000,359000,550096,
-1332,-824,16776,-425,183,9,-10000,7000,359000,550109,
-1324,-784,16600,-433,167,-21,-10000,7000,359000,550111,
-1360,-780,16652,-390,164,-40,-10000,7000,359000,550114,
-1328,-1108,16612,-391,120,-123,-10000,7000,359000,550126,
-1360,-1084,16688,-366,139,-157,-10000,7000,359000,550129,
-1448,-1064,16600,-411,91,-152,-10000,7000,359000,550131,
-1308,-984,16568,-347,73,-108,-10000,7000,359000,550144,
-1284,-1200,16716,-379,29,-72,-10000,7000,359000,550146,
-1284,-1036,16588,-384,58,-89,-10000,7000,359000,550149,
-1200,-976,16508,-436,109,-1,-10000,7000,359000,550161,
-1092,-856,16596,-401,242,-24,-10000,7000,359000,550164,
-1124,-968,16548,-411,264,-18,-10000,7000,359000,550166,
-1068,-948,16732,-462,618,-21,-10000,7000,359000,550179,
-1128,-1052,16540,-438,608,-8,-10000,7000,359000,550181,
-1136,-1008,16660,-470,663,26,-10000,7000,359000,550184,
-1432,-1000,16784,-435,551,34,-10000,7000,359000,550196,
-1448,-932,16564,-465,533,37,-10000,7000,359000,550199,
-1412,-968,16768,-474,546,38,-10000,7000,359000,550201,
-1468,-952,16604,-482,325,-17,-10000,7000,359000,550214,
-1428,-916,16536,-496,304,-14,-10000,7000,359000,550216,
-1416,-888,16472,-432,242,-37,-10000,7000,359000,550218,
-1472,-1072,16356,-398,111,-40,-10000,7000,359000,550231,
-1460,-840,16596,-377,30,8,-10000,7000,359000,550233,
-1372,-928,16364,-422,22,3,-10000,7000,359000,550236,
-1320,-1036,16500,-426,64,8,-10000,7000,359000,550238,
-1220,-948,16548,-488,190,-6,-10000,7000,359000,550251,
-1116,-1108,16440,-463,282,-51,-10000,7000,359000,550253,
-1196,-996,16368,-430,263,-35,-10000,7000,359000,550255,
-1264,-1340,16592,-432,544,-40,-10000,7000,359000,550268,
-1284,-1308,16488,-400,503,7,-10000,7000,359000,550270,
-1404,-1248,16672,-409,543,53,-10000,7000,359000,550273,
-1576,-1344,16368,-408,580,115,-10000,7000,359000,550285,
-1516,-1248,16424,-433,548,116,-10000,7000,359000,550288,
-1524,-1204,16384,-414,540,84,-10000,7000,359000,550290,
-1632,-1232,16428,-403,327,105,-10000,7000,359000,550303,
-1616,-1208,16244,-366,326,84,-10000,7000,359000,550305,
-1664,-1104,16504,-358,282,114,-10000,7000,359000,550307,
-1596,-1124,16464,-338,216,107,-10000,7000,359000,550320,
-1556,-1136,16496,-345,148,137,-10000,7000,359000,550322,
-1564,-1132,16496,-368,143,161,-10000,7000,359000,550325,
-1464,-1116,16516,-385,97,205,-10000,7000,359000,550338,
-1524,-1136,16612,-402,104,191,-10000,7000,359000,550340,
-1572,-1132,16536,-409,119,198,-10000,7000,359000,550342,
-1488,-1132,16452,-401,-15,193,-10000,7000,359000,550355,
-1460,-1048,16548,-407,7,146,-10000,7000,359000,550357,
-1552,-1192,16596,-364,-81,196,-10000,7000,0,550360,
-1520,-1128,16524,-429,-118,175,-10000,7000,0,550362,
-1376,-1148,16508,-426,-257,268,-10000,7000,0,550375,
-1396,-1024,16716,-435,-244,262,-10000,7000,0,550377,
-1360,-1192,16596,-404,-239,207,-10000,7000,0,550380,
-1424,-1100,16672,-409,-254,198,-10000,7000,0,550392,
-1204,-1104,16632,-343,-304,213,-10000,7000,0,550395,
-1256,-1084,16704,-362,-303,238,-10000,7000,0,550397,
-1312,-1028,16704,-388,-300,263,-10000,7000,0,550399,
-1204,-976,16508,-401,-281,330,-10000,7000,0,550412,
-1060,-1068,16620,-388,-222,294,-10000,7000,0,550414,
-1024,-1028,16580,-365,-195,290,-10000,7000,0,550417,
-968,-936,16652,-365,56,205,-10000,7000,0,550429,
-1020,-932,16584,-313,29,203,-10000,7000,0,550432,
-992,-996,16808,-305,74,207,-10000,7000,0,550434,
-1056,-872,16740,-341,91,192,-10000,7000,0,550437,
-980,-840,16772,-368,152,155,-10000,7000,0,550449,
-1204,-936,16692,-356,184,112,-10000,7000,0,550452,
-1100,-864,16644,-340,194,119,-10000,7000,0,550454,
-1108,-868,16580,-361,161,119,-10000,7000,0,550456,
-1064,-896,16620,-272,187,82,-10000,7000,0,550469,
-1256,-720,16652,-294,188,120,-10000,7000,0,550471,
-1208,-684,16808,-309,172,120,-10000,7000,0,550474,
-1116,-664,16776,-268,162,94,-10000,7000,0,550476,
-1088,-712,16668,-355,118,84,-10000,7000,0,550489,
-1004,-644,16704,-315,111,77,-10000,7000,0,550491,
-1108,-712,16604,-355,132,81,-10000,7000,0,550493,
-1064,-788,16704,-259,277,-25,-10000,7000,0,550506,
-1076,-796,16672,-315,245,7,-10000,7000,0,550508,
-1076,-804,16684,-301,301,-11,-10000,7000,0,550511,
-1044,-748,16568,-390,274,-26,-10000,7000,0,550523,
-968,-692,16508,-401,352,-65,-10000,7000,0,550526,
-1084,-780,16404,-393,356,-92,-10000,7000,0,550528,
-996,-692,16584,-430,379,-68,-10000,7000,0,550531,
-1116,-720,16432,-356,492,-118,-10000,7000,0,550543,
-1132,-696,16540,-405,511,-110,-10000,7000,0,550545,
-1216,-772,16384,-421,541,-131,-10000,7000,0,550548,
-1180,-768,16476,-389,538,-144,-10000,7000,0,550550,
-1244,-748,16292,-511,613,-129,-10000,7000,0,550563,
-1288,-640,16380,-491,577,-100,-10000,7000,0,550565,
-1328,-708,16288,-526,529,-114,-10000,7000,0,550568,
-1308,-936,16504,-522,523,-144,-10000,7000,0,550580,
-1388,-808,16472,-555,549,-152,-10000,7000,0,550583,
-1420,-948,16324,-581,582,-188,-10000,7000,0,550585,
-1476,-908,16276,-556,521,-149,-10000,7000,0,550587,
-1408,-868,16348,-660,509,-154,-10000,7000,0,550600,
-1360,-904,16212,-642,483,-124,-10000,7000,0,550602,
-1468,-988,16252,-702,492,-121,-10000,7000,0,550605,
-1652,-1060,16392,-705,520,-78,-10000,7000,0,550617,
-1552,-992,16492,-720,495,-52,-10000,7000,0,550620,
-1552,-1044,16388,-738,527,-59,-10000,7000,0,550622,
-1576,-948,16580,-704,443,-28,-10000,7000,0,550624,
-1676,-1064,16612,-801,221,23,-10000,7000,0,550637,
-1604,-1252,16612,-778,137,74,-10000,7000,0,550639,
-1608,-996,16656,-838,100,77,-10000,7000,0,550642,
-1604,-1072,16548,-841,110,60,-10000,7000,0,550644,
-1572,-1180,16628,-830,-29,122,-10000,7000,0,550657,
-1584,-1084,16408,-801,-32,70,-10000,7000,0,550659,
-1620,-1104,16524,-765,-76,88,-10000,7000,0,550662,
-1556,-1184,16520,-769,-106,118,-10000,7000,0,550664,
-1444,-1168,16600,-722,-226,168,-10000,7000,0,550677,
-1456,-1176,16612,-742,-216,162,-10000,7000,0,550679,
-1424,-1088,16540,-712,-189,157,-10000,7000,0,550681,
-1272,-1116,16636,-748,-15,135,-10000,7000,0,550694,
-1300,-1060,16520,-709,49,88,-10000,7000,0,550696,
-1240,-1140,16680,-717,62,121,-10000,7000,0,550699,
-1164,-1204,16552,-724,127,132,-10000,7000,0,550701,
-1360,-1232,16572,-676,236,215,-10000,7000,0,550714,
-1456,-1156,16648,-696,258,233,-10000,7000,0,550716,
-1416,-1240,16672,-638,248,247,-10000,7000,0,550719,
-1412,-1148,16588,-669,216,229,-10000,7000,0,550721,
-1472,-1092,16664,-631,219,224,-10000,7000,0,550734,
-1480,-1084,16648,-643,216,221,-10000,7000,0,550736,
-1428,-1024,16556,-695,240,219,-10000,7000,0,550739,
-1348,-1188,16672,-645,256,212,-10000,7000,0,550751,
-1384,-1220,16824,-613,267,198,-10000,7000,0,550754,
-1460,-1152,16884,-596,238,216,-10000,7000,0,550756,
-1424,-1236,16564,-605,210,234,-10000,7000,0,550759,
-1440,-1192,16664,-570,74,271,-10000,7000,0,550771,
-1492,-1104,16752,-604,73,300,-10000,7000,0,550774,
-1488,-1020,16768,-623,65,296,-10000,7000,0,550776,
-1508,-1092,16580,-567,49,289,-10000,7000,0,550779,
-1376,-964,16428,-587,0,234,-10000,7000,0,550791,
-1296,-1032,16484,-573,-38,244,-10000,7000,0,550793,
-1308,-1064,16368,-589,-32,284,-10000,7000,0,550796,
-1264,-932,16324,-595,12,253,-10000,7000,0,550798,
-1132,-1100,16480,-613,133,225,-10000,7000,0,550811,
-1140,-1000,16384,-650,201,244,-10000,7000,0,550813,
-1188,-992,16432,-594,176,201,-10000,7000,0,550816,
-1088,-984,16432,-643,219,181,-10000,7000,0,550828,
-1192,-988,16220,-626,125,163,-10000,7000,0,550831,
-1240,-992,16388,-645,103,190,-10000,7000,0,550833,
-1268,-1036,16380,-679,109,185,-10000,7000,0,550835,
-1272,-988,16312,-698,-49,200,-10000,7000,0,550848,
-1112,-992,16384,-711,-44,163,-10000,7000,0,550850,
-1232,-920,16236,-657,-109,172,-10000,7000,0,550853,
-1204,-972,16352,-670,-155,188,-10000,7000,0,550855,
-980,-1044,16456,-657,-309,103,-10000,7000,0,550868,
-892,-1004,16488,-663,-282,90,-10000,7000,0,550870,
-848,-1000,16488,-732,-297,63,-10000,7000,0,550873,
-648,-996,16492,-750,-291,5,-10000,7000,0,550885,
-764,-964,16428,-734,-240,-28,-10000,7000,0,550887,
-664,-984,16528,-698,-282,-61,-10000,7000,0,550890,
-628,-956,16532,-756,-298,-69,-10000,7000,0,550892,
-588,-824,16536,-819,-420,-208,-10000,7000,0,550905,
-532,-860,16484,-874,-402,-235,-10000,7000,0,550907,
-488,-812,16588,-851,-406,-311,-10000,7000,0,550909,
-352,-840,16580,-824,-448,-364,-10000,7000,0,550912,
-264,-748,16520,-874,-613,-639,-10000,7000,0,550924,
-180,-800,16528,-843,-699,-660,-10000,7000,0,550927,
-108,-776,16500,-890,-717,-708,-10000,7000,0,550929,
132,-968,16664,-882,-836,-973,-10000,6000,0,550942,
372,-976,16780,-907,-862,-1044,-10000,6000,0,550944,
336,-1020,16836,-893,-834,-1116,-11000,6000,0,550946,
396,-980,16804,-851,-913,-1179,-11000,6000,0,550949,
504,-1204,17160,-862,-994,-1565,-11000,6000,0,550961,
552,-1112,17340,-882,-1014,-1623,-11000,6000,0,550964,
684,-1336,17204,-930,-1007,-1728,-11000,6000,0,550966,
1084,-1276,17604,-947,-1250,-2122,-11000,6000,0,550979,
1112,-1288,17428,-915,-1319,-2237,-11000,6000,0,550981,
1580,-924,17428,-1059,-1497,-2620,-11000,6000,359000,550994,
1692,-908,17572,-1056,-1451,-2724,-11000,6000,359000,550996,
1700,-824,17524,-1050,-1452,-2748,-11000,6000,359000,550999,
1984,-604,17844,-1319,-904,-3197,-11000,5000,359000,551011,
2148,-572,17772,-1348,-768,-3233,-11000,5000,359000,551014,
2164,-684,17756,-1427,-605,-3313,-11000,5000,359000,551016,
1940,-900,18288,-1571,126,-3714,-11000,5000,358000,551029,
1776,-968,18380,-1627,195,-3760,-11000,5000,358000,551031,
1788,-1008,18352,-1630,258,-3867,-11000,5000,358000,551033,
992,-1180,18792,-1677,26,-4020,-11000,5000,358000,551046,
980,-1296,18872,-1647,-62,-4115,-11000,5000,358000,551048,
940,-1356,18828,-1625,-235,-4136,-11000,5000,358000,551051,
252,-1412,19064,-1474,-1124,-4583,-11000,5000,357000,551063,
232,-1332,18992,-1410,-1370,-4671,-11000,5000,357000,551066,
144,-1316,19064,-1402,-1582,-4814,-11000,5000,357000,551068,
80,-1308,19224,-969,-2905,-5502,-12000,4000,357000,551081,
44,-1196,19332,-974,-3182,-5688,-12000,4000,357000,551083,
40,-1176,19116,-908,-3402,-5883,-12000,4000,357000,551085,
168,-1404,19180,-752,-4670,-6713,-12000,3000,356000,551098,
292,-1400,19128,-665,-4835,-6841,-12000,3000,356000,551100,
304,-1464,19212,-653,-5066,-6882,-12000,3000,356000,551103,
712,-1632,19484,-371,-5818,-7206,-12000,2000,355000,551115,
812,-1560,19448,-373,-5925,-7180,-12000,2000,355000,551118,
1064,-1564,19500,-358,-5925,-7220,-12000,2000,355000,551120,
1620,-1424,19776,-330,-5408,-7382,-12000,1000,355000,551133,
1724,-1424,19676,-338,-5152,-7479,-12000,1000,354000,551135,
1844,-1452,19820,-309,-4920,-7531,-12000,1000,354000,551137,
1800,-1412,19848,-426,-3192,-7772,-12000,1000,354000,551150,
1744,-1560,19632,-373,-2919,-7747,-12000,1000,353000,551152,
1592,-1644,19864,-402,-2608,-7665,-12000,0,353000,551155,
676,-2112,20108,-221,-1449,-7348,-12000,0,353000,551167,
452,-2296,20220,-150,-1371,-7257,-12000,0,353000,551170,
192,-2292,20308,-80,-1274,-7254,-12000,0,352000,551172,
-616,-2640,20396,416,-1586,-7172,-12000,0,352000,551185,
-684,-2700,20360,527,-1717,-7268,-12000,0,352000,551187,
-900,-2596,20236,640,-1978,-7291,-12000,0,352000,551190,
-1020,-2420,20368,1278,-3375,-7634,-11000,0,351000,551202,
-912,-2452,20220,1400,-3651,-7653,-11000,0,351000,551205,
-844,-2432,20224,1526,-3849,-7705,-11000,0,351000,551207,
-400,-2408,20248,2081,-4542,-7838,-11000,-1000,350000,551220,
-328,-2512,20408,2180,-4571,-7869,-11000,-1000,350000,551222,
-352,-2616,20280,2304,-4518,-7899,-11000,-1000,350000,551224,
-120,-2808,20156,2878,-4145,-7703,-11000,-1000,349000,551237,
-200,-2916,20252,3003,-3993,-7683,-11000,-1000,349000,551239,
-84,-2948,19992,3078,-3907,-7571,-11000,-2000,349000,551242,
-12,-2920,19884,3671,-3308,-7300,-10000,-2000,348000,551254,
-28,-2756,19928,3778,-3218,-7196,-10000,-2000,348000,551257,
-156,-3004,20040,3890,-3148,-7127,-10000,-2000,348000,551259,
-316,-2928,19988,4425,-2382,-6688,-10000,-2000,347000,551272,
-260,-2964,19992,4529,-2205,-6623,-9000,-2000,347000,551274,
-324,-2952,19868,4675,-2068,-6591,-9000,-3000,347000,551277,
-708,-3048,19804,5202,-1346,-6175,-9000,-3000,347000,551289,
-808,-3024,19828,5331,-1229,-6147,-9000,-3000,347000,551292,
-824,-2992,19872,5422,-1198,-5988,-9000,-3000,346000,551294,
-956,-2824,19524,6127,-1028,-5581,-8000,-3000,346000,551307,
-876,-2796,19572,6233,-1049,-5433,-8000,-3000,346000,551309,
-992,-2888,19504,6309,-1001,-5342,-8000,-3000,346000,551311,
-1148,-2668,19284,6786,-732,-4808,-7000,-3000,345000,551324,
-1176,-2652,19376,6853,-651,-4702,-7000,-3000,345000,551326,
-1144,-2580,19192,6982,-531,-4622,-7000,-3000,345000,551329,
-1396,-2428,19124,7373,-322,-3905,-6000,-3000,345000,551341,
-1408,-2360,18740,7511,-268,-3783,-6000,-3000,345000,551344,
-1364,-2236,18756,7498,-307,-3642,-6000,-3000,345000,551346,
-1532,-1936,18564,7862,-432,-3123,-5000,-3000,344000,551359,
-1544,-1840,18572,7875,-476,-2958,-5000,-3000,344000,551361,
-1564,-1672,18528,7958,-468,-2918,-5000,-3000,344000,551364,
-1828,-1308,18448,8247,-909,-2327,-4000,-3000,344000,551377,
-1796,-1276,18404,8372,-1006,-2249,-4000,-3000,344000,551379,
-1812,-1188,18436,8395,-1182,-2117,-4000,-3000,344000,551381,
-1936,-860,18300,8696,-1673,-1541,-3000,-3000,344000,551394,
-1836,-732,18016,8712,-1848,-1430,-3000,-3000,344000,551397,
-1704,-796,18084,8743,-1908,-1311,-2000,-3000,344000,551399,
-1628,-656,18024,8976,-2370,-919,-1000,-4000,344000,551412,
-1612,-660,18112,9048,-2398,-798,-1000,-4000,344000,551414,
-1440,-748,18000,9131,-2378,-721,-1000,-4000,344000,551417,
-1372,-380,17976,9282,-2365,-52,0,-4000,344000,551429,
-1320,-244,17688,9361,-2341,6,0,-4000,344000,551431,
-1172,-116,17796,9380,-2359,127,0,-4000,344000,551434,
-1136,-224,17580,9405,-2342,250,0,-4000,344000,551436,
-796,468,17432,9512,-2447,703,0,-4000,344000,551449,
-900,408,17560,9578,-2455,760,0,-4000,344000,551451,
-1000,524,17376,9645,-2459,829,1000,-4000,344000,551454,
-896,660,17128,9757,-2468,1221,1000,-4000,344000,551466,
-776,732,17180,9833,-2497,1283,2000,-4000,344000,551469,
-772,672,17064,9806,-2507,1353,2000,-4000,344000,551471,
-464,1200,16716,10030,-2709,1850,3000,-5000,344000,551487,
-336,1348,16524,10090,-2778,1951,3000,-5000,344000,551490,
-184,1432,16392,10074,-2844,2002,3000,-5000,344000,551492,
-16,1708,16308,10146,-2911,2422,4000,-5000,344000,551505,
-120,1764,16208,10071,-2864,2539,5000,-5000,344000,551507,
-140,1752,16248,10057,-2813,2607,5000,-5000,344000,551509,
-32,1908,15852,9999,-2580,2992,6000,-5000,345000,551522,
-24,1984,15912,10009,-2564,3042,6000,-5000,345000,551524,
140,1956,15872,10085,-2550,3101,6000,-6000,345000,551527,
224,2016,15536,10217,-2693,3467,7000,-6000,345000,551539,
184,2212,15560,10267,-2732,3526,7000,-6000,345000,551542,
204,2224,15448,10214,-2790,3567,7000,-6000,345000,551544,
564,2624,14932,10201,-2935,3868,8000,-6000,346000,551557,
532,2704,14804,10082,-2962,3949,9000,-6000,346000,551559,
608,2784,14736,10090,-2947,3990,9000,-6000,346000,551562,
816,3184,14368,9966,-2752,4346,10000,-7000,346000,551574,
956,3216,14304,9874,-2702,4394,10000,-7000,346000,551577,
968,3256,14424,9897,-2628,4451,10000,-7000,346000,551579,
1112,3544,14120,9642,-2472,4791,11000,-7000,347000,551592,
1008,3576,14040,9681,-2481,4845,11000,-7000,347000,551594,
1092,3568,14208,9589,-2447,4889,11000,-7000,347000,551596,
1172,3900,13728,9454,-2450,5153,12000,-7000,347000,551609,
1196,3800,13532,9369,-2451,5259,12000,-8000,347000,551611,
1076,3948,13608,9309,-2442,5308,12000,-8000,347000,551614,
1280,3912,12948,9208,-2601,5542,13000,-8000,348000,551627,
1356,4004,12900,9196,-2617,5608,13000,-8000,348000,551629,
1444,4100,12892,9232,-2687,5626,14000,-8000,348000,551631,
1724,4340,12404,8946,-2725,5759,14000,-8000,348000,551644,
1808,4344,12332,8951,-2690,5773,15000,-9000,349000,551646,
1940,4556,12400,8846,-2656,5819,15000,-9000,349000,551649,
2244,4780,12068,8624,-2303,6143,16000,-9000,349000,551661,
2328,4860,12208,8518,-2171,6211,16000,-9000,349000,551664,
2420,4932,12028,8484,-2062,6275,16000,-9000,349000,551666,
2684,5272,11912,8119,-1437,6548,17000,-9000,350000,551679,
2640,5460,11820,8037,-1277,6580,17000,-10000,350000,551681,
2704,5432,11844,7981,-1193,6600,17000,-10000,350000,551683,
2700,5332,11920,7520,-741,6817,17000,-10000,351000,551696,
2776,5340,11904,7494,-726,6822,18000,-10000,351000,551698,
2728,5416,12036,7380,-707,6880,18000,-10000,351000,551701,
2768,5224,11940,7166,-807,7111,18000,-10000,352000,551713,
2856,5168,12000,7079,-828,7191,18000,-10000,352000,551716,
2868,5272,12004,7052,-821,7238,19000,-10000,352000,551718,
2924,5476,11596,6687,-1172,7631,19000,-11000,352000,551730,
2916,5524,11480,6666,-1224,7724,19000,-11000,353000,551733,
2948,5672,11332,6662,-1311,7823,19000,-11000,353000,551735,
3160,5924,11080,6415,-1556,8318,20000,-11000,353000,551748,
3280,5968,10992,6374,-1584,8408,20000,-11000,354000,551750,
3244,5904,11080,6260,-1570,8455,20000,-11000,354000,551753,
3600,5948,10812,5948,-1290,8668,20000,-12000,354000,551765,
3700,6016,10576,5856,-1181,8657,21000,-12000,355000,551768,
3692,6020,10568,5831,-1038,8680,21000,-12000,355000,551770,
4092,5972,10504,5461,-536,8671,21000,-12000,355000,551783,
4244,6052,10444,5427,-398,8701,21000,-13000,356000,551785,
4248,6060,10588,5376,-319,8708,21000,-13000,356000,551787,
4428,5964,10720,5066,364,8947,22000,-13000,357000,551800,
4364,5864,10740,5014,472,8990,22000,-13000,357000,551802,
4436,5940,10788,4919,635,9123,22000,-13000,357000,551805,
4308,5972,10888,4685,1305,9532,22000,-13000,358000,551817,
4444,6020,10828,4642,1390,9676,22000,-13000,358000,551820,
4372,6056,10780,4629,1457,9730,22000,-13000,358000,551822,
4412,6072,10716,4265,1412,10180,22000,-14000,359000,551834,
4416,6040,10784,4250,1441,10248,22000,-14000,359000,551837,
4452,6072,10740,4158,1380,10307,22000,-14000,0,551839,
4672,6244,10340,3923,1400,10615,23000,-14000,1000,551852,
4784,6236,10300,3853,1342,10601,23000,-14000,1000,551854,
5040,6248,10232,3795,1321,10667,23000,-14000,1000,551856,
5680,6504,10288,3615,897,10626,23000,-15000,2000,551869,
5656,6536,10236,3543,856,10644,23000,-15000,2000,551871,
5816,6508,10188,3511,799,10621,23000,-15000,2000,551874,
6104,6876,10224,3068,689,10598,23000,-15000,3000,551886,
6144,6816,10048,3000,746,10605,23000,-15000,3000,551889,
6080,6948,9912,2883,775,10599,23000,-15000,4000,551891,
6344,7364,9984,2178,1220,10800,23000,-16000,5000,551907,
6360,7176,9936,2113,1247,10796,23000,-16000,5000,551910,
6396,7332,9828,1967,1235,10839,23000,-16000,5000,551912,
6468,7320,9752,1339,1304,10774,23000,-16000,6000,551925,
6396,7336,9848,1240,1288,10740,23000,-16000,7000,551927,
6348,7252,9756,1120,1323,10711,23000,-17000,7000,551929,
6264,7272,9924,606,1363,10630,23000,-17000,8000,551942,
6292,7328,9912,472,1345,10654,23000,-17000,8000,551944,
6308,7248,9904,393,1295,10675,22000,-17000,8000,551947,
6864,7172,10160,-122,616,10621,22000,-17000,9000,551959,
6812,7288,10132,-192,434,10629,22000,-17000,9000,551962,
7000,7112,10048,-289,263,10579,22000,-18000,10000,551964,
7448,7076,9976,-640,-383,10454,22000,-18000,10000,551977,
7548,6856,10080,-689,-466,10410,22000,-18000,11000,551979,
7580,6732,10108,-717,-497,10375,22000,-18000,11000,551981,
7996,6608,10240,-1030,-440,10107,21000,-19000,12000,551994,
7980,6608,10444,-1129,-369,10072,21000,-19000,12000,551996,
8028,6688,10328,-1213,-321,10037,21000,-19000,12000,551999,
8240,6660,10436,-1787,302,10066,21000,-19000,13000,552011,
8132,6576,10680,-1893,482,10103,21000,-19000,13000,552014,
8164,6596,10532,-1985,578,10133,21000,-20000,13000,552016,
8324,6760,10596,-2650,1119,10253,20000,-20000,14000,552029,
8388,6764,10624,-2803,1176,10253,20000,-20000,15000,552031,
8372,6812,10572,-2939,1305,10243,20000,-20000,15000,552033,
8588,6760,10280,-3497,1763,9762,19000,-20000,16000,552046,
8596,6636,10244,-3612,1871,9681,19000,-20000,16000,552048,
8452,6704,10252,-3616,1905,9549,19000,-20000,16000,552051,
8288,6316,10308,-4110,2141,9165,18000,-21000,17000,552063,
8280,6312,10428,-4103,2159,9112,18000,-21000,17000,552066,
8256,6364,10468,-4189,2180,9086,18000,-21000,17000,552068,
8196,6144,11332,-4404,2064,8999,17000,-21000,18000,552081,
8228,6068,11448,-4467,1979,8997,17000,-21000,19000,552083,
8212,6112,11640,-4526,1919,8981,17000,-21000,19000,552085,
8340,5800,11712,-4713,1460,8901,16000,-21000,20000,552098,
8436,5948,11872,-4753,1432,8882,16000,-21000,20000,552100,
8624,5844,11932,-4742,1346,8864,16000,-21000,20000,552103,
8616,5420,11688,-4916,1346,8620,15000,-21000,21000,552115,
8592,5376,11604,-4912,1360,8589,15000,-21000,21000,552118,
8668,5344,11760,-4962,1442,8503,15000,-21000,21000,552120,
8868,5188,12124,-5020,1965,8029,14000,-21000,22000,552133,
8852,5016,12276,-5036,2032,7960,14000,-21000,22000,552135,
9000,5088,12220,-5042,2142,7854,14000,-21000,22000,552137,
9460,5168,12544,-5030,2321,7334,13000,-21000,23000,552150,
9660,5316,12600,-5063,2419,7247,13000,-21000,23000,552152,
9576,5324,12652,-5085,2435,7151,13000,-21000,23000,552154,
9940,5376,12708,-5463,3242,6803,12000,-21000,24000,552167,
9864,5384,12512,-5465,3372,6759,12000,-21000,24000,552169,
9948,5348,12628,-5562,3593,6711,12000,-21000,24000,552172,
9800,5088,13116,-5809,4648,6242,11000,-21000,25000,552184,
9836,4904,13088,-5890,4790,6173,11000,-21000,25000,552187,
9808,4836,13228,-5919,4970,6034,11000,-21000,25000,552189,
9164,4340,13200,-6056,5431,5560,10000,-21000,26000,552202,
9188,4260,13404,-5996,5464,5424,10000,-21000,26000,552204,
9164,4220,13400,-5957,5477,5360,10000,-21000,26000,552206,
8996,3976,13500,-5896,5407,4919,9000,-20000,27000,552219,
9060,3896,13436,-5909,5377,4841,9000,-20000,27000,552221,
9044,4016,13632,-5914,5356,4742,9000,-20000,27000,552224,
9148,3972,14280,-5773,5117,4294,8000,-20000,28000,552236,
8996,3980,14384,-5771,5116,4185,8000,-20000,28000,552239,
8988,3860,14488,-5700,5083,4162,8000,-20000,28000,552241,
8892,3844,15052,-5880,5130,3796,7000,-19000,28000,552254,
8932,3844,15148,-5868,5139,3745,7000,-19000,28000,552256,
8864,3804,15176,-5942,5150,3668,7000,-19000,28000,552259,
8832,3604,14900,-6064,5253,3111,6000,-19000,29000,552271,
8700,3576,14736,-6105,5254,2983,6000,-19000,29000,552273,
8740,3412,14612,-6160,5354,2836,6000,-19000,29000,552276,
8676,3248,14248,-6262,5536,2045,5000,-18000,29000,552288,
8608,3156,14100,-6313,5616,1876,5000,-18000,29000,552291,
8692,3244,14176,-6335,5626,1759,5000,-18000,29000,552293,
9040,3440,14024,-6808,6090,1098,4000,-17000,29000,552306,
9204,3500,14244,-6856,6184,986,4000,-17000,29000,552308,
9340,3540,14312,-6952,6263,897,4000,-17000,29000,552310,
9660,3800,14860,-7360,6940,567,3000,-17000,29000,552323,
9724,3664,14984,-7535,7144,520,3000,-17000,30000,552325,
9592,3696,15032,-7658,7472,434,3000,-16000,30000,552328,
8908,3260,15472,-8276,9071,91,2000,-16000,30000,552340,
8764,3172,15712,-8375,9400,-38,2000,-15000,30000,552343,
8688,3136,15952,-8408,9575,-95,2000,-15000,30000,552345,
7708,2280,16900,-8787,10380,-448,1000,-14000,30000,552358,
7796,2504,16732,-8531,9982,-556,1000,-14000,30000,552360,
7308,2084,16636,-8427,8127,-1458,0,-13000,29000,552373,
7116,2092,16760,-8347,7616,-1620,0,-13000,29000,552375,
7044,2004,16564,-8359,7318,-1771,0,-13000,29000,552377,
6528,2096,16384,-8067,6512,-2372,0,-13000,29000,552390,
6672,1940,16392,-8078,6533,-2473,0,-13000,29000,552392,
6796,2100,16372,-8044,6557,-2659,0,-12000,29000,552395,
7584,2092,16348,-8157,6135,-3609,0,-12000,29000,552407,
7684,2176,16364,-8148,6093,-3821,-1000,-12000,29000,552410,
7740,2036,16488,-8144,6067,-3962,-1000,-12000,28000,552412,
7392,1636,16696,-8116,6973,-4656,-1000,-11000,28000,552425,
7412,1544,16744,-8113,7182,-4671,-2000,-11000,28000,552427,
7324,1612,16956,-8160,7486,-4749,-2000,-11000,28000,552430,
6904,1144,17760,-8196,8489,-5082,-2000,-10000,27000,552442,
6716,1004,18000,-8157,8685,-5202,-2000,-10000,27000,552445,
6696,956,17964,-8099,8763,-5236,-3000,-10000,27000,552447,
5864,332,18488,-7814,8986,-5649,-3000,-9000,26000,552460,
5672,276,18488,-7700,8932,-5695,-3000,-9000,26000,552462,
5540,224,18592,-7631,8914,-5759,-3000,-9000,26000,552465,
4960,104,18420,-7218,8532,-6112,-4000,-8000,26000,552477,
4848,-8,18276,-7143,8438,-6164,-4000,-8000,25000,552479,
4872,72,18272,-7117,8362,-6280,-4000,-8000,25000,552482,
4564,96,17488,-6792,7795,-6574,-5000,-7000,25000,552494,
4568,228,17336,-6736,7786,-6674,-5000,-7000,24000,552497,
4520,52,17380,-6635,7649,-6714,-5000,-7000,24000,552499,
4412,140,17436,-6261,7383,-7103,-5000,-6000,24000,552512,
4536,76,17560,-6173,7240,-7138,-5000,-6000,23000,552514,
4424,208,17572,-6126,7202,-7211,-6000,-6000,23000,552516,
4208,-68,18144,-5803,6949,-7614,-6000,-6000,22000,552529,
4004,-192,18188,-5772,6960,-7694,-6000,-5000,22000,552531,
3936,-232,18180,-5725,7019,-7820,-6000,-5000,22000,552534,
3752,-380,18644,-5411,7142,-8109,-7000,-5000,21000,552546,
3716,-440,18616,-5344,7108,-8209,-7000,-5000,21000,552549,
3648,-456,18624,-5266,7032,-8214,-7000,-5000,21000,552551,
3400,-748,18624,-4886,6437,-8573,-7000,-4000,20000,552564,
3300,-868,18552,-4814,6261,-8546,-7000,-4000,20000,552566,
3184,-916,18532,-4780,6199,-8635,-7000,-4000,20000,552569,
2888,-880,18272,-4416,5587,-8614,-8000,-4000,19000,552581,
2852,-928,18152,-4368,5504,-8666,-8000,-3000,19000,552583,
2660,-968,18264,-4282,5390,-8696,-8000,-3000,18000,552586,
2324,-1100,18432,-4119,5090,-8790,-8000,-3000,18000,552598,
2328,-1076,18340,-4056,5117,-8823,-8000,-3000,17000,552601,
2268,-1068,18380,-4044,5093,-8821,-8000,-3000,17000,552603,
2192,-1080,18324,-3918,5090,-9004,-8000,-3000,16000,552616,
2188,-1112,18388,-3902,5022,-8998,-8000,-3000,16000,552618,
2152,-1148,18404,-3887,5015,-9057,-8000,-2000,16000,552620,
2032,-1300,18804,-3655,4766,-9131,-9000,-2000,15000,552633,
2060,-1308,19012,-3607,4838,-9207,-9000,-2000,15000,552635,
1872,-1460,19000,-3533,4799,-9187,-9000,-2000,15000,552638,
1880,-1728,18792,-3381,4813,-9419,-9000,-2000,14000,552650,
1904,-1728,18848,-3251,4665,-9390,-9000,-2000,13000,552653,
1844,-1748,18812,-3213,4551,-9422,-9000,-2000,13000,552655,
1488,-1780,18400,-2859,3889,-9391,-9000,-1000,12000,552668,
1576,-1620,18424,-2845,3830,-9373,-9000,-1000,12000,552670,
1516,-1600,18368,-2806,3794,-9417,-9000,-1000,12000,552673,
1524,-1444,18000,-2670,3389,-9323,-10000,-1000,11000,552685,
1544,-1468,17992,-2607,3342,-9381,-10000,-1000,11000,552688,
1560,-1456,17976,-2544,3256,-9327,-10000,-1000,11000,552690,
1348,-1516,17760,-2484,3454,-9312,-10000,-1000,10000,552703,
1356,-1468,17708,-2523,3536,-9235,-10000,-1000,10000,552705,
1312,-1632,17636,-2578,3729,-9206,-10000,-1000,9000,552707,
800,-2004,17688,-2507,4815,-8892,-10000,-1000,8000,552720,
816,-2084,17560,-2521,5013,-8820,-10000,-1000,8000,552722,
580,-2284,17736,-2474,5252,-8827,-10000,-1000,8000,552725,
188,-2528,17992,-2222,5371,-8676,-10000,0,7000,552737,
176,-2360,17872,-2110,5353,-8722,-10000,0,7000,552740,
108,-2364,17972,-2088,5163,-8648,-11000,0,7000,552742,
48,-2256,17956,-2053,5057,-8640,-11000,0,7000,552745,
-44,-2060,17940,-1823,4153,-8626,-11000,0,6000,552757,
20,-1992,17852,-1788,4018,-8623,-11000,0,6000,552760,
-72,-2016,17968,-1696,3894,-8674,-11000,0,5000,552762,
-108,-2100,17524,-1414,3328,-8615,-11000,0,5000,552775,
-92,-2084,17572,-1280,3239,-8617,-11000,0,4000,552777,
-136,-2028,17468,-1261,3056,-8534,-11000,0,4000,552779,
-44,-2164,17616,-865,2406,-8306,-11000,0,3000,552796,
-20,-2124,17612,-840,2463,-8314,-11000,0,3000,552798,
-28,-2304,17700,-799,2519,-8259,-11000,0,3000,552800,
-88,-2312,17776,-834,2591,-8136,-11000,0,3000,552803,
-244,-2556,17464,-869,3415,-7785,-11000,0,2000,552815,
-348,-2468,17516,-921,3587,-7658,-11000,0,2000,552818,
-388,-2572,17500,-925,3756,-7560,-11000,0,2000,552820,
-960,-2668,17124,-702,4088,-7113,-11000,0,1000,552833,
-1220,-2652,17104,-666,4062,-7052,-11000,0,1000,552835,
-1080,-2672,16916,-586,4016,-7018,-11000,0,1000,552837,
-1136,-2512,16820,-627,3843,-6891,-11000,0,0,552840,
-1324,-2080,16616,-430,3163,-6759,-11000,0,0,552852,
-1324,-2096,16768,-437,3002,-6709,-11000,1000,0,552855,
-1264,-1960,16804,-374,2881,-6714,-11000,1000,359000,552857,
-1240,-2012,16816,-247,2504,-6575,-11000,1000,359000,552870,
-1196,-2064,16760,-225,2506,-6593,-11000,1000,359000,552873,
-1304,-2144,16952,-155,2490,-6540,-11000,1000,358000,552875,
-1164,-2424,17016,-136,2696,-6196,-11000,1000,358000,552888,
-1128,-2352,17056,-69,2731,-6079,-11000,1000,358000,552890,
-1108,-2328,17164,-104,2796,-5947,-11000,1000,358000,552892,
-1204,-2372,16888,-122,3275,-5366,-11000,1000,357000,552905,
-1236,-2276,16952,-135,3338,-5263,-11000,1000,357000,552908,
-1308,-2272,16876,-88,3396,-5229,-11000,1000,357000,552910,
-1424,-2284,16996,105,3067,-4871,-11000,1000,356000,552923,
-1680,-2340,16832,140,3066,-4859,-11000,2000,356000,552925,
-1632,-2168,16804,172,2974,-4738,-11000,2000,356000,552927,
-1956,-2196,16604,224,3015,-4507,-11000,2000,356000,552940,
-1892,-2204,16544,204,2946,-4416,-11000,2000,356000,552943,
-1956,-2180,16544,176,2953,-4372,-11000,2000,355000,552945,
-1864,-1984,16268,192,2758,-4074,-11000,2000,355000,552958,
-1828,-1824,16400,191,2723,-4027,-11000,2000,355000,552960,
-1792,-1892,16476,236,2704,-3961,-11000,2000,355000,552962,
-1772,-1872,16392,62,2714,-3567,-11000,2000,354000,552975,
-1756,-1788,16440,79,2722,-3525,-11000,2000,354000,552977,
-1748,-1792,16436,5,2759,-3441,-11000,2000,354000,552980,
-1584,-1836,16576,126,2697,-3207,-11000,3000,354000,552992,
-1640,-1736,16396,111,2648,-3110,-11000,3000,354000,552995,
-1756,-1804,16540,139,2671,-3025,-11000,3000,354000,552997,
-2008,-1716,16632,159,2559,-2692,-11000,3000,354000,553010,
-1856,-1764,16400,155,2618,-2621,-11000,3000,353000,553012,
-1956,-1716,16436,199,2599,-2581,-11000,3000,353000,553015,
-2112,-1696,16404,190,2652,-2281,-11000,3000,353000,553027,
-1932,-1736,16236,216,2601,-2192,-11000,3000,353000,553030,
-2140,-1716,16228,186,2586,-2130,-11000,3000,353000,553032,
-2060,-1504,15944,167,2469,-1830,-11000,4000,353000,553045,
-2048,-1424,16228,108,2417,-1797,-11000,4000,353000,553047,
-2044,-1420,16112,87,2413,-1755,-11000,4000,353000,553050,
-2020,-1424,16336,144,2229,-1477,-11000,4000,353000,553062,
-2060,-1352,16308,163,2253,-1461,-11000,4000,353000,553065,
-2036,-1428,16256,139,2197,-1381,-11000,4000,352000,553067,
-2144,-1460,16256,68,2284,-1171,-11000,4000,352000,553080,
-2200,-1392,16300,60,2240,-1080,-11000,4000,352000,553082,
-2148,-1356,16420,18,2274,-1027,-11000,4000,352000,553085,
-2100,-1124,16572,-88,2201,-773,-11000,4000,352000,553097,
-2136,-1208,16664,-113,2229,-769,-11000,4000,352000,553100,
-2112,-1104,16500,-103,2194,-745,-11000,5000,352000,553102,
-2084,-1228,16848,-281,1979,-570,-11000,5000,352000,553115,
-2112,-1184,16832,-267,1883,-521,-11000,5000,352000,553117,
-2180,-1220,16852,-329,1767,-494,-11000,5000,352000,553120,
-2212,-1348,17020,-359,1322,-261,-11000,5000,352000,553132,
-2264,-1420,16916,-409,1226,-212,-11000,5000,352000,553135,
-2248,-1336,17052,-478,1202,-174,-11000,5000,352000,553137,
-2128,-1192,17408,-719,855,42,-11000,5000,352000,553154,
-2092,-1104,17236,-713,727,104,-11000,5000,352000,553156,
-2100,-1132,17232,-783,632,163,-11000,5000,352000,553158,
-2044,-1200,17380,-916,33,342,-11000,5000,352000,553171,
-2048,-1280,17264,-951,-78,372,-11000,5000,352000,553174,
-2004,-1200,17372,-923,-165,385,-11000,5000,352000,553176,
-2100,-1448,17380,-979,-667,519,-11000,5000,352000,553188,
-2020,-1568,17280,-947,-695,523,-11000,5000,352000,553191,
-1888,-1592,17280,-985,-814,540,-11000,5000,352000,553193,
-1780,-1352,17220,-939,-1095,659,-11000,5000,352000,553206,
-1648,-1408,17184,-994,-1160,698,-11000,5000,352000,553208,
-1588,-1336,17172,-985,-1179,754,-11000,5000,352000,553211,
-1388,-1176,17048,-1064,-1169,887,-11000,5000,352000,553223,
-1180,-1140,16976,-1037,-1131,885,-11000,5000,352000,553226,
-1288,-1264,16876,-1049,-1107,907,-11000,5000,352000,553228,
-1172,-1200,16480,-1116,-797,905,-11000,5000,352000,553241,
-1172,-1232,16552,-1133,-790,943,-11000,5000,352000,553243,
