Ax,Ay,Az,Gx,Gy,Gz,Roll,Pitch,Yaw,Timestamp,Target
-48,-1176,16956,-457,-16,217,-10000,3000,14000,608600,
-204,-1176,16900,-471,-12,226,-10000,3000,14000,608602,
-156,-1236,16812,-439,33,193,-10000,3000,14000,608604,
-244,-1180,16780,-390,-133,208,-10000,3000,14000,608617,
-120,-1180,16912,-383,-110,210,-10000,3000,14000,608619,
-28,-1120,16856,-356,-170,194,-10000,3000,14000,608622,
-52,-1140,16900,-332,-212,199,-10000,3000,14000,608638,
-80,-1176,17000,-319,-219,175,-10000,3000,14000,608640,
-116,-1172,16896,-312,-200,173,-10000,3000,14000,608643,
12,-1156,16892,-287,-209,168,-10000,3000,14000,608655,
8,-1136,16884,-220,-210,175,-10000,3000,14000,608658,
-28,-1180,16836,-262,-191,210,-10000,3000,14000,608660,
-28,-1140,16840,-245,-189,215,-10000,3000,14000,608663,
28,-1088,16756,-257,-104,240,-10000,3000,14000,608675,
64,-1140,16832,-255,-58,186,-10000,3000,14000,608678,
60,-1148,16772,-201,-50,198,-10000,3000,14000,608680,
32,-1080,16760,-247,-72,143,-10000,3000,14000,608693,
132,-960,16528,-157,-124,129,-10000,3000,14000,608695,
36,-924,16660,-212,-126,162,-10000,3000,14000,608697,
80,-1000,16732,-211,-93,127,-10000,3000,14000,608700,
48,-1052,16648,-233,-149,129,-10000,2000,14000,608712,
196,-1056,16556,-246,-121,111,-10000,2000,14000,608715,
148,-1092,16624,-177,-127,99,-10000,2000,14000,608717,
196,-936,16480,-308,-82,102,-10000,2000,14000,608730,
296,-904,16544,-237,-55,89,-10000,2000,14000,608732,
220,-980,16492,-275,-98,106,-10000,2000,14000,608734,
160,-900,16572,-287,-29,93,-10000,2000,14000,608737,
176,-924,16496,-362,7,98,-10000,2000,14000,608749,
240,-908,16552,-355,84,62,-10000,2000,14000,608752,
324,-840,16528,-354,52,75,-10000,2000,14000,608754,
372,-840,16572,-415,120,58,-10000,2000,14000,608757,
304,-988,16404,-425,174,19,-10000,2000,14000,608769,
256,-952,16436,-442,207,2,-10000,2000,14000,608772,
300,-1024,16464,-460,217,1,-10000,2000,14000,608774,
136,-932,16452,-563,127,-2,-10000,2000,14000,608787,
100,-864,16552,-557,134,-30,-10000,2000,14000,608789,
248,-792,16488,-572,147,-10,-10000,2000,14000,608791,
336,-892,16452,-610,168,-31,-10000,2000,14000,608794,
288,-960,16508,-575,252,-41,-10000,2000,14000,608806,
168,-880,16496,-602,229,-33,-10000,2000,14000,608809,
204,-896,16448,-600,266,-60,-10000,2000,14000,608811,
180,-996,16748,-670,245,-6,-10000,2000,14000,608824,
232,-956,16600,-658,294,-39,-10000,2000,14000,608826,
196,-904,16676,-673,257,-16,-10000,2000,14000,608828,
140,-972,16700,-698,307,-15,-10000,2000,14000,608831,
180,-980,16760,-697,367,-102,-10000,2000,14000,608843,
168,-896,16708,-718,418,-90,-10000,2000,14000,608846,
132,-924,16648,-691,448,-114,-10000,2000,14000,608848,
56,-996,16788,-675,462,-27,-10000,2000,14000,608861,
104,-1032,16796,-682,477,-45,-10000,2000,14000,608863,
88,-1008,16776,-672,425,-43,-10000,2000,14000,608865,
72,-1052,16776,-710,434,-6,-10000,2000,14000,608868,
0,-1096,16700,-671,512,-61,-10000,2000,14000,608880,
-112,-1192,16828,-670,540,-55,-10000,2000,14000,608883,
68,-1000,16836,-682,557,-76,-10000,2000,14000,608885,
20,-1096,16736,-634,422,-5,-10000,2000,14000,608898,
-64,-1172,16852,-611,489,-25,-10000,3000,14000,608900,
-36,-1108,16820,-636,412,17,-10000,3000,14000,608903,
-72,-1192,16732,-635,419,-6,-10000,3000,14000,608905,
12,-1184,16744,-604,442,35,-10000,3000,14000,608918,
-20,-1084,16716,-636,494,9,-10000,3000,14000,608920,
92,-1008,16828,-633,546,-2,-10000,3000,14000,608922,
-96,-1140,16792,-623,520,24,-10000,3000,14000,608935,
-20,-1184,16756,-587,528,-12,-10000,3000,14000,608937,
-68,-1124,16788,-583,497,25,-10000,3000,14000,608940,
-88,-1232,16580,-597,513,30,-10000,3000,14000,608942,
-216,-1152,16540,-581,463,39,-10000,3000,14000,608955,
-108,-1172,16668,-601,507,30,-10000,3000,14000,608957,
-76,-1176,16500,-573,460,1,-10000,3000,14000,608960,
-172,-1136,16760,-561,299,42,-10000,3000,14000,608976,
-288,-1204,16536,-559,320,44,-10000,3000,14000,608978,
-228,-1060,16688,-559,231,40,-10000,3000,14000,608981,
-288,-1220,16740,-590,192,34,-10000,3000,14000,608983,
-112,-1212,16672,-572,105,-2,-10000,3000,14000,608996,
-184,-1252,16596,-597,134,17,-10000,3000,14000,608998,
-224,-1292,16696,-593,195,-8,-10000,3000,14000,609000,
-204,-1336,16656,-571,239,80,-10000,3000,14000,609013,
-288,-1368,16728,-551,240,78,-10000,3000,14000,609015,
-260,-1400,16688,-523,225,117,-10000,3000,14000,609017,
-248,-1364,16924,-520,146,159,-10000,3000,14000,609030,
-200,-1264,16840,-481,112,177,-10000,3000,14000,609032,
-148,-1304,16788,-510,83,193,-10000,3000,14000,609035,
-248,-1300,16876,-497,110,164,-10000,3000,14000,609037,
-212,-1280,16864,-487,66,205,-10000,3000,14000,609050,
-232,-1180,16712,-470,102,169,-10000,3000,14000,609052,
-212,-1276,16704,-426,30,178,-10000,3000,14000,609055,
-156,-1236,16848,-409,19,190,-10000,3000,14000,609067,
-80,-1292,16864,-356,-67,218,-10000,3000,14000,609070,
-164,-1192,16876,-364,-63,205,-10000,3000,14000,609072,
-56,-1104,16816,-329,-105,221,-10000,3000,14000,609084,
-24,-1124,16796,-343,-86,245,-10000,3000,14000,609087,
-124,-1112,16732,-340,-45,186,-10000,3000,14000,609089,
64,-1052,16692,-371,-146,221,-10000,3000,14000,609102,
-4,-1020,16824,-348,-130,223,-10000,3000,14000,609104,
52,-1052,16748,-295,-221,234,-10000,3000,14000,609106,
-116,-968,16732,-369,-200,219,-10000,3000,14000,609109,
108,-972,16700,-328,-192,240,-10000,3000,14000,609121,
52,-1044,16656,-329,-167,239,-10000,3000,14000,609124,
156,-1148,16620,-319,-119,240,-10000,3000,14000,609126,
244,-992,16488,-383,-60,262,-10000,2000,14000,609139,
220,-1008,16512,-374,-29,246,-10000,2000,14000,609141,
252,-968,16692,-415,-74,256,-10000,2000,14000,609143,
208,-976,16500,-405,-58,244,-10000,2000,14000,609146,
200,-912,16708,-417,-59,262,-10000,2000,15000,609158,
140,-964,16648,-425,-37,226,-10000,2000,15000,609161,
136,-984,16608,-455,8,205,-10000,2000,15000,609163,
260,-860,16576,-506,-104,185,-10000,2000,15000,609176,
72,-940,16516,-460,-62,183,-10000,2000,15000,609178,
96,-932,16412,-538,-127,193,-10000,2000,15000,609180,
172,-800,16512,-545,-106,201,-10000,2000,15000,609183,
100,-928,16392,-532,-222,145,-10000,2000,15000,609195,
256,-936,16560,-568,-235,130,-10000,2000,15000,609198,
156,-1048,16552,-561,-207,124,-10000,2000,15000,609200,
132,-936,16688,-555,-179,126,-10000,2000,15000,609213,
188,-1052,16660,-532,-118,81,-10000,2000,15000,609215,
252,-996,16740,-563,-134,98,-10000,2000,15000,609217,
240,-956,16628,-594,-57,87,-10000,2000,15000,609220,
336,-1024,16708,-629,55,75,-10000,2000,15000,609232,
220,-1092,16812,-602,107,54,-10000,2000,15000,609235,
224,-1008,16708,-557,124,65,-10000,2000,15000,609237,
140,-1072,16744,-631,163,75,-10000,2000,15000,609250,
128,-972,16752,-601,172,45,-10000,2000,15000,609252,
124,-1048,16756,-633,149,52,-10000,2000,15000,609255,
28,-1064,16728,-652,187,22,-10000,2000,15000,609257,
276,-1096,16620,-591,196,26,-10000,2000,15000,609270,
104,-1104,16540,-599,211,28,-10000,2000,15000,609272,
156,-1152,16688,-589,248,-4,-10000,2000,15000,609274,
188,-1068,16648,-652,231,66,-10000,2000,15000,609287,
168,-980,16732,-632,257,41,-10000,2000,15000,609289,
128,-1144,16808,-603,194,63,-10000,2000,15000,609292,
216,-956,16740,-613,227,49,-10000,2000,15000,609294,
252,-1124,16652,-638,325,13,-10000,2000,15000,609306,
216,-1044,16708,-637,368,9,-10000,2000,15000,609309,
132,-964,16628,-628,398,-11,-10000,2000,15000,609311,
104,-1044,16724,-605,357,31,-10000,2000,15000,609324,
136,-1056,16680,-562,374,-5,-11000,2000,15000,609326,
220,-1132,16700,-573,357,25,-11000,2000,15000,609328,
160,-1052,16760,-615,353,16,-11000,2000,15000,609331,
244,-1148,16816,-622,427,-21,-11000,2000,15000,609343,
308,-1028,16724,-623,462,-33,-11000,2000,15000,609346,
208,-1056,16696,-577,453,-43,-11000,2000,15000,609348,
200,-1032,16740,-628,558,-29,-11000,2000,15000,609361,
200,-1212,16644,-625,565,-54,-11000,2000,15000,609363,
156,-1120,16716,-632,572,-31,-11000,2000,15000,609366,
216,-1084,16752,-660,656,-27,-11000,2000,15000,609368,
80,-1164,16592,-634,731,-43,-11000,2000,15000,609381,
108,-1344,16544,-632,792,-52,-11000,2000,15000,609383,
4,-1272,16676,-581,739,-41,-11000,2000,15000,609385,
-64,-1304,16584,-660,733,-17,-11000,2000,15000,609398,
-52,-1188,16612,-623,690,2,-11000,3000,15000,609400,
-92,-1372,16504,-672,687,3,-11000,3000,15000,609402,
-20,-1232,16644,-689,670,-42,-11000,3000,15000,609405,
-116,-1240,16728,-662,475,-26,-11000,3000,15000,609417,
-184,-1252,16764,-632,491,-56,-11000,3000,15000,609420,
-92,-1252,16752,-602,408,-26,-11000,3000,15000,609422,
-268,-1228,16624,-649,329,10,-11000,3000,15000,609435,
-264,-1360,16600,-629,280,38,-11000,3000,15000,609437,
-252,-1384,16704,-652,255,60,-11000,3000,15000,609439,
-208,-1428,16744,-548,154,66,-11000,3000,15000,609452,
-244,-1464,16840,-585,159,105,-11000,3000,15000,609454,
-296,-1436,16692,-593,170,95,-11000,3000,15000,609457,
-232,-1432,16660,-560,71,181,-11000,3000,15000,609469,
-272,-1336,16940,-529,119,170,-11000,3000,15000,609472,
-292,-1476,16744,-495,54,185,-11000,3000,15000,609474,
-184,-1464,16832,-469,1,212,-11000,3000,15000,609487,
-268,-1364,16868,-434,-50,248,-11000,3000,15000,609489,
-252,-1376,16940,-444,-79,246,-11000,3000,15000,609491,
-252,-1348,16840,-461,-43,244,-11000,3000,15000,609494,
-52,-1388,16868,-372,-148,298,-11000,3000,15000,609506,
-88,-1348,16996,-354,-142,264,-11000,3000,15000,609509,
-64,-1360,16988,-323,-206,285,-11000,3000,15000,609511,
-112,-1216,16704,-331,-192,251,-11000,2000,15000,609524,
-4,-1252,16788,-319,-205,239,-11000,2000,15000,609526,
-20,-1212,16788,-340,-190,240,-11000,2000,15000,609528,
24,-1280,16832,-255,-215,214,-11000,2000,15000,609541,
-36,-1076,16844,-245,-197,225,-11000,2000,15000,609543,
68,-1232,16756,-218,-174,200,-11000,2000,15000,609546,
112,-1180,16768,-277,-156,210,-11000,2000,15000,609558,
144,-1140,16680,-239,-158,178,-11000,2000,15000,609561,
144,-1048,16608,-284,-196,178,-11000,2000,15000,609563,
168,-1192,16764,-202,-144,138,-11000,2000,15000,609576,
192,-1208,16676,-237,-171,159,-11000,2000,15000,609578,
140,-1092,16652,-270,-125,175,-11000,2000,15000,609580,
368,-1108,16524,-300,-34,159,-11000,2000,15000,609593,
260,-1060,16636,-288,-15,127,-11000,2000,15000,609595,
356,-968,16720,-288,22,89,-11000,2000,15000,609597,
328,-1020,16616,-269,-12,119,-11000,2000,15000,609600,
300,-1012,16840,-331,111,33,-11000,2000,15000,609612,
288,-1188,16968,-283,54,43,-11000,2000,15000,609615,
228,-1120,16516,-254,99,38,-11000,2000,15000,609617,
208,-996,16988,-315,213,42,-11000,2000,15000,609630,
372,-1052,16716,-257,216,21,-11000,2000,15000,609632,
348,-1124,16596,-278,223,-33,-11000,2000,15000,609634,
284,-1148,16548,-387,137,-28,-11000,2000,15000,609637,
-20,-1000,16544,-437,158,-32,-11000,2000,15000,609649,
52,-968,16596,-446,137,8,-11000,2000,15000,609652,
100,-1092,16808,-427,140,-9,-11000,2000,15000,609654,
140,-976,16644,-489,34,-24,-10000,2000,15000,609667,
224,-848,16668,-559,7,-40,-11000,2000,15000,609669,
156,-896,16708,-535,25,-63,-11000,2000,15000,609671,
264,-928,16516,-534,-26,-50,-11000,2000,15000,609674,
352,-1228,16688,-462,123,-136,-11000,2000,15000,609686,
320,-1092,16696,-480,112,-116,-11000,2000,15000,609689,
284,-1088,16692,-496,145,-118,-11000,2000,15000,609691,
240,-1240,16852,-509,169,-86,-11000,2000,15000,609704,
236,-1320,16792,-510,198,-92,-11000,2000,15000,609706,
164,-1212,16868,-442,239,-105,-11000,2000,15000,609709,
212,-1152,16920,-483,171,-101,-11000,2000,15000,609711,
308,-1204,16908,-434,141,-157,-11000,2000,15000,609724,
296,-1220,16916,-416,107,-116,-11000,2000,15000,609726,
240,-1336,16948,-427,55,-118,-11000,2000,15000,609728,
268,-1348,16924,-403,18,-153,-11000,2000,15000,609741,
336,-1268,16916,-415,10,-137,-11000,2000,15000,609743,
200,-1280,16784,-382,12,-190,-11000,2000,15000,609746,
456,-1284,17036,-345,5,-219,-11000,2000,15000,609758,
392,-1292,16968,-252,12,-218,-10000,2000,15000,609760,
452,-1320,17024,-285,26,-192,-10000,2000,15000,609763,
468,-1344,17088,-296,87,-208,-10000,2000,15000,609765,
604,-1268,17056,-227,77,-170,-10000,2000,15000,609778,
668,-1160,17020,-241,104,-171,-10000,2000,15000,609780,
556,-1208,17012,-198,69,-151,-10000,2000,15000,609783,
744,-1132,16992,-171,226,-142,-10000,2000,15000,609795,
708,-1116,17112,-123,196,-142,-10000,2000,15000,609798,
748,-1132,16956,-106,236,-124,-10000,2000,15000,609800,
584,-1224,16956,-27,358,-262,-10000,2000,15000,609812,
656,-1240,17088,-56,400,-273,-10000,2000,15000,609815,
660,-1172,17160,-36,475,-297,-10000,2000,15000,609817,
688,-1136,17224,-16,421,-292,-10000,2000,15000,609820,
652,-1056,17188,98,592,-386,-10000,2000,15000,609832,
620,-1208,17204,138,579,-335,-10000,2000,15000,609835,
656,-1148,17340,113,647,-343,-10000,2000,15000,609837,
656,-1376,17248,251,831,-381,-10000,2000,15000,609850,
640,-1348,17168,237,862,-360,-10000,2000,15000,609852,
628,-1248,17340,276,899,-388,-10000,2000,15000,609854,
620,-1372,17196,343,904,-351,-10000,2000,14000,609857,
404,-1560,17204,426,836,-179,-10000,2000,14000,609869,
316,-1616,17084,460,757,-103,-10000,2000,14000,609872,
304,-1580,17148,445,733,-84,-10000,2000,14000,609874,
344,-1540,17448,595,455,-10,-10000,2000,14000,609887,
360,-1600,17360,589,378,22,-10000,2000,14000,609889,
296,-1628,17492,606,374,45,-10000,2000,14000,609892,
276,-1564,17620,658,239,39,-10000,2000,14000,609894,
480,-1420,17608,860,-73,89,-10000,2000,14000,609906,
484,-1356,17652,890,-147,128,-10000,2000,14000,609909,
588,-1332,17744,905,-221,125,-10000,2000,14000,609911,
916,-1116,17588,1091,-521,58,-10000,2000,14000,609924,
896,-1216,17676,1109,-589,44,-10000,2000,14000,609926,
920,-1068,17632,1168,-635,2,-10000,2000,14000,609929,
1072,-1088,17572,1240,-734,-56,-10000,2000,14000,609931,
1264,-876,17428,1397,-1163,-504,-9000,2000,14000,609945,
1328,-1088,17248,1377,-1276,-557,-9000,2000,14000,609947,
1772,-1232,17428,1498,-1706,-1027,-9000,2000,14000,609960,
1888,-1252,17308,1446,-1718,-1099,-9000,2000,14000,609962,
2000,-1184,17216,1441,-1722,-1198,-9000,2000,14000,609964,
2572,-636,16964,1242,-1571,-1622,-9000,1000,14000,609977,
2728,-400,17148,1198,-1497,-1751,-9000,1000,14000,609979,
2924,-340,17372,1223,-1407,-1871,-9000,1000,14000,609982,
3204,-160,17336,1109,-587,-2471,-9000,1000,14000,609994,
3460,-128,17464,1153,-459,-2594,-9000,1000,14000,609997,
3368,-100,17348,1105,-339,-2674,-9000,1000,14000,609999,
2940,-384,17636,1149,-212,-3296,-8000,1000,14000,610012,
2872,-384,17716,1144,-299,-3389,-8000,1000,13000,610014,
2708,-484,17692,1145,-394,-3501,-8000,1000,13000,610017,
2108,-628,17532,1094,-1373,-4007,-8000,1000,13000,610029,
2144,-648,17604,1080,-1550,-4145,-8000,0,13000,610032,
2016,-464,17364,1092,-1878,-4256,-8000,0,13000,610034,
2192,-348,17228,891,-3246,-5133,-8000,0,12000,610046,
2464,-244,17200,864,-3523,-5307,-8000,0,12000,610049,
2556,-244,17152,796,-3762,-5445,-8000,0,12000,610051,
2712,-92,17288,743,-3959,-5682,-8000,0,12000,610054,
3472,-28,17244,493,-4672,-6458,-8000,0,12000,610066,
3660,-68,17004,466,-4630,-6610,-8000,0,12000,610069,
3680,-188,17244,428,-4654,-6718,-8000,0,11000,610071,
4212,-276,17404,-34,-4067,-7225,-8000,-1000,11000,610084,
4084,-172,17392,-86,-3940,-7229,-8000,-1000,11000,610086,
4304,-240,17420,-189,-3747,-7298,-8000,-1000,11000,610089,
4044,-404,17716,-442,-2738,-7578,-8000,-1000,10000,610101,
4100,-340,17560,-525,-2565,-7654,-8000,-1000,10000,610103,
3916,-332,17604,-594,-2412,-7738,-8000,-1000,10000,610106,
3452,-392,17844,-860,-2074,-8134,-8000,-2000,9000,610118,
3388,-388,17792,-918,-2042,-8253,-8000,-2000,9000,610121,
3296,-332,17604,-928,-2086,-8312,-8000,-2000,9000,610123,
2832,-208,17924,-1148,-2272,-8785,-8000,-2000,8000,610136,
2888,-284,18040,-1152,-2353,-8827,-8000,-2000,8000,610138,
2760,-216,18036,-1193,-2406,-8891,-8000,-3000,7000,610140,
2896,-484,18508,-1205,-2441,-9422,-8000,-3000,7000,610153,
2960,-472,18512,-1293,-2370,-9528,-8000,-3000,6000,610155,
2876,-432,18580,-1296,-2317,-9662,-8000,-3000,6000,610158,
2772,-528,19224,-1231,-1881,-10016,-8000,-3000,5000,610170,
2816,-500,19168,-1202,-1777,-10102,-8000,-3000,5000,610173,
2660,-624,19116,-1132,-1754,-10086,-8000,-4000,5000,610175,
2116,-1012,19508,-958,-1582,-10166,-8000,-4000,4000,610188,
1888,-972,19444,-875,-1650,-10127,-8000,-4000,4000,610190,
1812,-1120,19392,-838,-1719,-10116,-8000,-4000,4000,610192,
1224,-1368,19636,-411,-2184,-10248,-8000,-4000,3000,610205,
1176,-1336,19844,-370,-2342,-10303,-8000,-4000,3000,610207,
1180,-1412,19668,-281,-2444,-10420,-8000,-4000,2000,610210,
924,-1280,19828,109,-3149,-10563,-8000,-5000,1000,610222,
940,-1160,19868,164,-3248,-10628,-8000,-5000,1000,610225,
828,-1064,19844,237,-3324,-10602,-8000,-5000,1000,610227,
988,-1296,20008,543,-3360,-10634,-7000,-5000,0,610240,
1004,-1412,19988,636,-3361,-10576,-7000,-6000,0,610242,
1024,-1532,20028,990,-2902,-10404,-7000,-6000,359000,610255,
1008,-1656,20048,1102,-2832,-10308,-7000,-6000,359000,610257,
1056,-1596,20028,1169,-2697,-10268,-7000,-6000,359000,610259,
1084,-1696,20124,1604,-2087,-9877,-7000,-6000,358000,610272,
988,-1540,20008,1660,-1969,-9805,-7000,-6000,357000,610274,
984,-1520,20016,1765,-1861,-9787,-7000,-7000,357000,610277,
736,-1552,19848,2258,-1504,-9353,-6000,-7000,356000,610289,
520,-1472,19944,2356,-1395,-9306,-6000,-7000,356000,610292,
476,-1532,19796,2471,-1355,-9183,-6000,-7000,356000,610294,
-96,-1540,20016,2889,-1042,-8746,-6000,-7000,355000,610307,
-268,-1592,20136,2976,-1060,-8581,-6000,-7000,355000,610309,
-276,-1596,19964,3090,-1090,-8476,-6000,-7000,355000,610311,
-372,-1228,19888,3571,-1555,-8022,-5000,-7000,354000,610324,
-380,-1176,19972,3650,-1629,-7953,-5000,-7000,354000,610326,
-364,-1064,19892,3752,-1710,-7951,-5000,-7000,354000,610329,
-408,-996,19772,4204,-2070,-7622,-5000,-7000,353000,610341,
-516,-992,19696,4299,-2063,-7605,-4000,-8000,353000,610344,
-488,-1072,19712,4403,-2097,-7432,-4000,-8000,353000,610346,
-700,-1232,19496,4908,-1858,-6886,-4000,-8000,352000,610359,
-716,-1308,19728,5048,-1894,-6752,-4000,-8000,352000,610361,
-752,-1232,19728,5131,-1874,-6607,-4000,-8000,352000,610363,
-736,-1040,19604,5717,-1994,-6012,-3000,-8000,351000,610376,
-580,-948,19548,5799,-2004,-5892,-3000,-8000,351000,610378,
-712,-804,19616,5916,-1999,-5804,-3000,-8000,351000,610381,
-804,-476,19080,6354,-1823,-5250,-2000,-8000,351000,610393,
-748,-356,18836,6476,-1718,-5175,-2000,-8000,351000,610396,
-792,-432,18676,6532,-1666,-5047,-2000,-8000,351000,610398,
-784,-228,18468,6900,-1240,-4379,-1000,-8000,350000,610411,
-868,-172,18256,6932,-1194,-4240,-1000,-8000,350000,610413,
-964,-252,18432,7006,-1142,-4124,-1000,-8000,350000,610415,
-1096,-200,18116,7394,-954,-3464,0,-8000,350000,610428,
-1072,-216,18192,7453,-923,-3311,0,-8000,350000,610430,
-1140,-144,18260,7571,-875,-3195,0,-8000,349000,610433,
-944,112,18040,7981,-1023,-2622,0,-8000,349000,610446,
-972,88,17944,8167,-1048,-2516,0,-8000,349000,610448,
-1108,104,18076,8219,-1192,-2401,1000,-8000,349000,610450,
-1312,176,17840,8641,-1411,-1639,1000,-8000,349000,610463,
-1144,272,17800,8621,-1465,-1502,2000,-8000,349000,610465,
-1264,408,17800,8668,-1478,-1385,2000,-8000,349000,610468,
-896,732,17444,9177,-1708,-891,3000,-8000,349000,610480,
-740,884,17320,9275,-1790,-839,3000,-8000,349000,610483,
-716,976,17120,9342,-1802,-738,3000,-9000,349000,610485,
-144,1520,17052,9513,-1948,-261,4000,-9000,349000,610498,
-156,1444,17008,9599,-1940,-222,4000,-9000,349000,610500,
-4,1428,17068,9583,-1937,-130,4000,-9000,349000,610502,
184,1644,16844,9893,-1526,398,5000,-9000,349000,610515,
148,1520,16948,9850,-1465,522,5000,-9000,349000,610517,
240,1516,16772,9935,-1365,612,6000,-9000,349000,610520,
256,1876,16584,10015,-1059,1271,7000,-9000,349000,610532,
252,1928,16580,10023,-1034,1392,7000,-9000,349000,610535,
256,2064,16500,10113,-1015,1451,7000,-9000,349000,610537,
328,2532,16488,10062,-1133,2002,8000,-9000,349000,610550,
300,2516,16368,10162,-1184,2062,8000,-9000,349000,610552,
364,2568,16240,10128,-1307,2165,8000,-9000,349000,610554,
544,2860,16176,10188,-1688,2596,9000,-9000,349000,610567,
488,3004,16092,10156,-1792,2676,9000,-9000,349000,610569,
620,3048,16000,10150,-1871,2748,9000,-9000,349000,610572,
876,3176,15972,10250,-2225,3185,10000,-9000,350000,610584,
1008,3236,15808,10250,-2235,3257,11000,-9000,350000,610586,
1080,3396,15848,10281,-2222,3342,11000,-10000,350000,610589,
1152,3644,15668,10155,-2164,3689,12000,-10000,350000,610601,
1288,3684,15664,10181,-2100,3730,12000,-10000,350000,610604,
1384,3680,15672,10165,-2099,3810,12000,-10000,350000,610606,
1488,3908,15860,10091,-2124,4184,13000,-10000,351000,610619,
1492,3944,15912,10001,-2194,4326,13000,-10000,351000,610621,
1400,4132,15944,9943,-2202,4420,13000,-10000,351000,610624,
1216,4092,15712,9920,-2604,4957,14000,-11000,351000,610636,
1304,4364,15448,9910,-2625,5051,14000,-11000,351000,610639,
1312,4200,15548,9962,-2699,5117,15000,-11000,351000,610641,
1348,4452,15400,10161,-3214,5476,15000,-11000,352000,610654,
1316,4444,15396,10232,-3346,5487,16000,-11000,352000,610656,
1376,4612,15264,10243,-3500,5532,16000,-11000,352000,610658,
1972,4668,14556,10498,-4227,5486,17000,-12000,352000,610671,
2080,4684,14468,10447,-4362,5473,17000,-12000,352000,610673,
2144,4828,14480,10488,-4379,5494,17000,-12000,352000,610676,
3084,5164,13676,10733,-3923,5524,18000,-13000,353000,610692,
3188,5328,13516,10701,-3727,5563,18000,-13000,353000,610694,
3376,5392,13496,10675,-3499,5584,19000,-13000,353000,610697,
3584,5728,12692,10462,-1611,5760,20000,-13000,354000,610709,
3480,5768,12528,10395,-1192,5794,20000,-13000,354000,610712,
3584,5788,12480,10403,-787,5859,20000,-13000,354000,610714,
3664,6168,11952,9914,1141,6153,21000,-13000,354000,610727,
3632,6232,11892,9904,1501,6187,21000,-13000,355000,610729,
3548,6216,11852,9787,1732,6284,21000,-13000,355000,610731,
3248,6484,11188,9316,3072,6696,22000,-13000,355000,610744,
3064,6396,11360,9211,3211,6785,22000,-13000,355000,610746,
3076,6364,11388,9071,3396,6885,22000,-13000,356000,610749,
2708,6464,11076,8584,3908,7476,23000,-13000,356000,610761,
2544,6408,10972,8489,3939,7614,23000,-13000,357000,610764,
2524,6540,11228,8434,3970,7700,23000,-13000,357000,610766,
2280,6492,11304,8043,3595,8278,24000,-13000,358000,610779,
2356,6472,11268,8040,3515,8342,24000,-13000,358000,610781,
2120,6520,11140,7959,3306,8434,24000,-13000,358000,610783,
2324,6828,11160,7820,2190,8910,25000,-13000,359000,610796,
2220,6936,11132,7721,1874,9010,25000,-13000,359000,610798,
2228,7016,11104,7660,1648,9116,25000,-13000,359000,610801,
2392,7240,11212,7259,349,9550,25000,-14000,0,610813,
2532,7212,11212,7179,125,9641,25000,-14000,0,610816,
2676,7204,11312,7157,-151,9723,25000,-14000,0,610818,
2720,6912,11324,7042,-425,9786,26000,-14000,1000,610821,
3204,7108,10832,6766,-1836,10079,26000,-15000,1000,610833,
3176,7128,10660,6675,-2059,10115,26000,-15000,2000,610835,
3228,7164,10700,6646,-2235,10189,26000,-15000,2000,610838,
3444,7356,10124,6305,-3037,10422,27000,-16000,2000,610850,
3384,7372,10212,6253,-3113,10490,27000,-16000,3000,610853,
3528,7436,9964,6174,-3252,10537,27000,-16000,3000,610855,
4072,7612,9784,5587,-3803,10827,27000,-17000,3000,610868,
4220,7720,10060,5551,-3865,10797,27000,-17000,4000,610870,
4324,7712,9936,5416,-3922,10818,27000,-17000,4000,610872,
5148,7548,9512,4994,-3992,10773,28000,-18000,5000,610885,
5252,7584,9404,4866,-3954,10783,28000,-18000,5000,610887,
5328,7524,9468,4756,-3884,10825,28000,-18000,5000,610890,
6232,7588,8976,4235,-3302,10975,28000,-19000,6000,610902,
6160,7488,8800,4166,-3178,11034,28000,-19000,6000,610905,
6316,7536,8816,4129,-3011,11084,28000,-19000,6000,610907,
6824,7752,8700,3550,-2019,11333,28000,-20000,7000,610920,
6808,7756,8560,3456,-1846,11362,28000,-20000,7000,610922,
6860,7752,8560,3262,-1653,11419,28000,-20000,7000,610924,
7004,7536,8596,2642,-441,11637,28000,-21000,8000,610937,
6892,7492,8500,2502,-227,11680,28000,-21000,8000,610939,
7092,7424,8292,2383,14,11731,28000,-21000,9000,610942,
7120,7300,8008,1825,780,11839,28000,-22000,10000,610954,
7080,7288,8056,1759,877,11852,28000,-22000,10000,610957,
7144,7216,8064,1689,882,11856,28000,-22000,10000,610959,
7492,7140,8324,1298,782,11829,28000,-23000,11000,610972,
7396,6916,8472,1268,713,11780,28000,-23000,11000,610974,
7400,6872,8356,1191,716,11769,27000,-23000,12000,610976,
7804,6396,8356,943,574,11437,27000,-23000,13000,610989,
7780,6304,8352,869,559,11392,27000,-23000,13000,610991,
7988,6284,8280,851,555,11318,27000,-23000,13000,610994,
8236,6012,8372,813,305,11164,27000,-24000,14000,611006,
8148,5964,8084,807,268,11167,27000,-24000,14000,611009,
8296,5964,8256,785,198,11168,27000,-24000,15000,611011,
8620,6208,8028,627,80,11297,26000,-25000,16000,611024,
8700,6324,7864,641,65,11280,26000,-25000,16000,611026,
8820,6424,7632,565,96,11305,26000,-25000,16000,611028,
8824,6320,7752,489,171,11287,26000,-25000,16000,611031,
8948,6664,7492,191,664,11186,26000,-26000,17000,611043,
9216,6744,7348,120,854,11187,26000,-26000,17000,611046,
9076,6652,7276,56,981,11142,26000,-26000,18000,611048,
9412,7048,7656,-404,1703,11066,25000,-26000,19000,611061,
9436,7004,7640,-413,1770,11023,25000,-26000,19000,611063,
9504,7056,7816,-527,1836,11018,25000,-26000,19000,611065,
9804,6644,8108,-885,2524,11033,24000,-27000,20000,611078,
9824,6620,8144,-999,2621,11055,24000,-27000,21000,611080,
9784,6612,8168,-1055,2779,11052,24000,-27000,21000,611083,
9964,5812,8432,-1374,3243,10923,23000,-27000,22000,611096,
9992,5820,8488,-1405,3356,10902,23000,-27000,22000,611098,
10016,5640,8632,-1361,3359,10841,23000,-27000,22000,611100,
10472,5156,8980,-1172,3337,10548,23000,-27000,24000,611113,
10480,5332,8804,-1103,3208,10464,22000,-28000,24000,611115,
10404,5308,8876,-1103,3140,10415,22000,-28000,24000,611118,
10412,5772,8768,-1309,3232,10199,22000,-28000,25000,611130,
10368,5936,8628,-1404,3422,10203,22000,-28000,25000,611133,
10360,6004,8544,-1473,3575,10204,22000,-28000,26000,611135,
10672,6080,9320,-2037,4091,10158,21000,-28000,27000,611148,
10816,5896,9364,-2118,4198,10131,21000,-28000,27000,611150,
10700,5916,9524,-2224,4278,10060,21000,-28000,27000,611153,
10764,5164,9968,-2551,4938,9704,20000,-28000,28000,611165,
10664,5076,10040,-2545,5007,9630,20000,-28000,29000,611168,
10676,4896,10048,-2618,5157,9542,19000,-28000,29000,611170,
10728,4532,10252,-2627,5300,9077,19000,-28000,30000,611183,
10796,4368,10252,-2609,5286,8969,19000,-28000,30000,611185,
10872,4312,10236,-2567,5200,8886,18000,-28000,30000,611188,
11256,4296,10136,-2536,5095,8217,18000,-28000,31000,611200,
11328,4380,10064,-2501,5058,8065,18000,-28000,32000,611203,
11424,4376,10016,-2543,5018,7931,17000,-28000,32000,611205,
11724,4788,10240,-2603,5173,7318,17000,-27000,33000,611218,
11788,4948,10420,-2668,5301,7246,17000,-27000,33000,611220,
11752,4972,10524,-2766,5456,7166,16000,-27000,33000,611222,
11600,5308,10852,-3353,6414,6904,16000,-27000,34000,611235,
11436,5424,10884,-3534,6725,6843,16000,-27000,34000,611237,
11372,5364,10908,-3616,6874,6818,15000,-27000,34000,611240,
10832,4672,11260,-4193,8086,6430,15000,-26000,35000,611252,
10724,4524,11396,-4189,8140,6317,15000,-26000,35000,611255,
10072,3648,11820,-4131,8224,5509,14000,-26000,36000,611268,
9900,3612,11944,-4074,8015,5359,14000,-26000,36000,611270,
9704,3412,11852,-4111,7841,5245,14000,-26000,37000,611272,
9188,2876,12344,-3858,6670,4708,13000,-25000,37000,611285,
9256,2960,12396,-3874,6463,4622,13000,-25000,37000,611288,
9292,3016,12396,-3784,6228,4562,13000,-25000,37000,611290,
9964,3500,12976,-3696,5021,4283,12000,-25000,38000,611303,
10300,3704,12756,-3640,4928,4173,12000,-25000,38000,611305,
10436,3840,12928,-3694,4821,4101,12000,-25000,38000,611307,
10980,4860,12836,-4019,5709,3310,11000,-24000,39000,611320,
11028,5012,13068,-4147,6046,3127,11000,-24000,39000,611322,
11012,5160,13076,-4347,6533,2919,11000,-24000,39000,611325,
10980,5256,13316,-5213,8801,1884,10000,-23000,39000,611337,
10988,5088,13308,-5347,9204,1700,10000,-23000,39000,611340,
10792,5032,13452,-5388,9441,1518,10000,-23000,39000,611342,
10376,4076,14068,-5680,9901,822,10000,-22000,40000,611355,
10256,3900,14076,-5687,9834,743,9000,-22000,40000,611357,
10072,3768,14052,-5733,9782,618,9000,-22000,40000,611360,
9284,3244,14244,-5861,9285,55,9000,-21000,40000,611372,
9220,3308,14300,-5874,9160,-58,9000,-21000,40000,611375,
9148,3304,14568,-5891,9050,-191,9000,-21000,40000,611377,
8704,3660,14720,-5926,8159,-811,8000,-20000,40000,611389,
8644,3796,14628,-5974,8063,-941,8000,-20000,40000,611392,
8636,3844,14816,-5947,7895,-1041,8000,-20000,40000,611394,
8816,4496,15124,-6279,7608,-1602,7000,-19000,40000,611407,
8700,4600,15164,-6325,7482,-1669,7000,-19000,40000,611409,
8736,4764,15112,-6464,7502,-1758,7000,-19000,40000,611412,
8728,4580,15304,-6952,7858,-2399,6000,-18000,40000,611424,
8696,4332,15388,-7070,8049,-2561,6000,-18000,40000,611427,
8648,4184,15508,-7169,8284,-2712,6000,-18000,40000,611429,
8132,3252,16224,-7558,9039,-3282,6000,-17000,39000,611442,
8024,3300,16148,-7536,8966,-3491,5000,-17000,39000,611444,
8048,3280,16140,-7547,8997,-3570,5000,-17000,39000,611446,
7660,3100,16256,-7896,8511,-4032,5000,-16000,39000,611459,
7524,3264,16188,-7875,8319,-4025,5000,-16000,39000,611461,
7372,3208,16384,-7915,8218,-4042,4000,-15000,39000,611464,
7032,3476,16104,-8204,8002,-4170,4000,-15000,38000,611476,
7020,3544,16212,-8281,7972,-4259,4000,-15000,38000,611479,
7128,3668,16148,-8357,7958,-4376,4000,-14000,38000,611481,
6928,3396,16940,-8502,7272,-5028,3000,-14000,38000,611494,
6964,3388,17036,-8545,7140,-5185,3000,-14000,38000,611496,
6888,3148,17280,-8508,6976,-5283,3000,-14000,38000,611498,
6736,2560,18032,-8703,6487,-5690,2000,-13000,37000,611511,
6468,2464,18092,-8703,6368,-5685,2000,-13000,37000,611514,
6580,2468,18184,-8746,6360,-5679,2000,-13000,37000,611516,
6692,1920,18452,-8708,6232,-5604,1000,-12000,36000,611529,
6656,1984,18360,-8766,6244,-5574,1000,-12000,36000,611531,
6540,1888,18420,-8728,6308,-5590,1000,-12000,36000,611533,
6112,2052,18400,-8751,6776,-5614,0,-11000,36000,611546,
6100,1968,18524,-8784,6969,-5693,0,-11000,35000,611548,
5920,2156,18220,-8761,7041,-5698,0,-11000,35000,611551,
5736,2252,18480,-8803,7315,-6227,0,-10000,35000,611563,
5568,2196,18532,-8719,7164,-6258,0,-10000,35000,611566,
5564,2088,18788,-8720,7039,-6351,0,-10000,34000,611568,
5072,1400,18760,-8315,6153,-6471,-1000,-10000,34000,611580,
4976,1364,18920,-8261,6047,-6467,-1000,-9000,34000,611583,
4940,1388,18936,-8183,5978,-6476,-1000,-9000,34000,611585,
4560,1132,18612,-7797,5894,-6352,-2000,-9000,33000,611598,
4512,1156,18740,-7699,5843,-6341,-2000,-9000,33000,611600,
4444,1068,18468,-7685,5824,-6325,-2000,-9000,33000,611603,
4300,1312,18468,-7417,5536,-6564,-2000,-8000,32000,611615,
4244,1400,18224,-7440,5453,-6640,-3000,-8000,32000,611618,
4188,1264,18304,-7435,5395,-6723,-3000,-8000,32000,611620,
3852,1116,18400,-7277,5043,-6888,-3000,-8000,31000,611633,
3764,1160,18608,-7286,5004,-6948,-3000,-7000,31000,611635,
3768,1112,18588,-7197,4874,-7001,-3000,-7000,31000,611637,
3776,608,18920,-6902,4346,-7071,-4000,-7000,30000,611650,
3776,572,18832,-6786,4203,-7032,-4000,-7000,30000,611652,
3616,408,18868,-6764,4145,-7019,-4000,-7000,30000,611655,
3320,172,18452,-6292,4178,-6866,-5000,-7000,29000,611667,
3168,140,18376,-6260,4248,-6844,-5000,-7000,29000,611670,
3188,108,18340,-6181,4334,-6845,-5000,-6000,29000,611672,
3100,232,18280,-5922,3755,-6878,-5000,-6000,28000,611688,
3064,340,18428,-5900,3600,-6944,-5000,-6000,28000,611691,
3220,276,18300,-5895,3478,-7109,-6000,-6000,28000,611693,
2816,84,18640,-5781,2828,-7558,-6000,-6000,27000,611706,
2708,184,18792,-5746,2744,-7681,-6000,-6000,27000,611708,
2588,116,18772,-5707,2666,-7663,-6000,-6000,27000,611710,
2444,-368,18728,-5351,2417,-7808,-7000,-6000,26000,611723,
2340,-416,18748,-5265,2331,-7771,-7000,-6000,26000,611725,
2324,-580,18676,-5182,2216,-7786,-7000,-6000,26000,611728,
2364,-716,18500,-4714,1717,-7695,-7000,-6000,25000,611740,
2368,-628,18492,-4661,1696,-7711,-7000,-6000,25000,611743,
2488,-656,18612,-4546,1572,-7747,-7000,-6000,24000,611745,
2768,-672,18752,-4213,1488,-7581,-7000,-6000,24000,611758,
2724,-652,18796,-4119,1541,-7532,-8000,-5000,24000,611760,
2804,-740,18788,-4095,1564,-7509,-8000,-5000,23000,611762,
2800,-1024,19080,-3786,2330,-7535,-8000,-5000,23000,611775,
2676,-1164,19044,-3752,2471,-7534,-8000,-5000,23000,611777,
2688,-1304,19064,-3684,2646,-7556,-8000,-5000,22000,611780,
2488,-1364,18732,-3284,2998,-7533,-8000,-5000,22000,611792,
2288,-1380,18852,-3257,3082,-7518,-8000,-5000,21000,611795,
2340,-1312,18784,-3130,3092,-7475,-8000,-5000,21000,611797,
1460,-1364,18196,-2669,3386,-7147,-8000,-5000,21000,611810,
1444,-1568,18064,-2571,3435,-7065,-8000,-5000,20000,611812,
1356,-1592,18024,-2541,3486,-6948,-8000,-5000,20000,611815,
896,-1416,17472,-2109,3640,-6686,-9000,-5000,20000,611828,
936,-1508,17536,-2063,3635,-6606,-9000,-4000,19000,611830,
660,-1584,17460,-2032,3654,-6616,-9000,-4000,19000,611832,
500,-1628,17292,-1755,3762,-6359,-9000,-4000,19000,611845,
680,-1668,17508,-1719,3811,-6352,-9000,-4000,19000,611847,
744,-1676,17732,-1604,3812,-6283,-9000,-4000,18000,611850,
896,-1648,17728,-1395,3885,-6203,-9000,-4000,18000,611862,
984,-1620,17940,-1282,3917,-6139,-9000,-4000,18000,611864,
1080,-1512,17860,-1257,3906,-6032,-9000,-4000,18000,611867,
832,-1584,17844,-902,4297,-5515,-9000,-3000,17000,611880,
816,-1436,17916,-853,4362,-5402,-9000,-3000,17000,611882,
736,-1424,17872,-785,4431,-5307,-9000,-3000,17000,611884,
500,-1304,18000,-475,4377,-4764,-9000,-3000,16000,611897,
396,-1248,17948,-407,4413,-4723,-9000,-3000,16000,611899,
304,-1296,17908,-369,4370,-4633,-9000,-3000,16000,611902,
-320,-952,17696,-421,4401,-4261,-9000,-2000,16000,611914,
-356,-952,17512,-396,4313,-4166,-9000,-2000,15000,611917,
-440,-940,17560,-437,4333,-4081,-9000,-2000,15000,611919,
-816,-900,17372,-413,4065,-3722,-9000,-2000,15000,611932,
-976,-1064,17392,-442,3986,-3644,-9000,-2000,15000,611934,
-880,-960,17488,-434,3904,-3583,-9000,-2000,15000,611936,
-716,-844,17848,-473,3102,-3226,-9000,-1000,14000,611949,
-688,-852,17928,-447,2995,-3203,-9000,-1000,14000,611951,
-484,-860,18016,-471,2841,-3124,-9000,-1000,14000,611954,
-156,-788,18176,-545,2453,-2842,-9000,-1000,14000,611966,
-140,-812,18400,-566,2358,-2767,-9000,-1000,14000,611969,
8,-812,18220,-556,2376,-2730,-9000,-1000,14000,611971,
60,-956,18260,-433,2441,-2417,-9000,-1000,14000,611984,
24,-1040,17968,-424,2449,-2316,-9000,-1000,14000,611986,
92,-956,18040,-383,2525,-2253,-9000,-1000,14000,611988,
24,-1092,17788,-211,2336,-1823,-9000,-1000,13000,612001,
116,-860,17652,-154,2282,-1803,-9000,-1000,13000,612003,
8,-1008,17640,-103,2174,-1691,-9000,0,13000,612005,
-44,-964,17384,-67,2138,-1585,-9000,0,13000,612008,
32,-816,16888,139,2159,-1201,-9000,0,13000,612020,
-4,-756,16700,135,2234,-1125,-9000,0,13000,612023,
160,-740,16428,152,2355,-1063,-9000,0,13000,612025,
212,-636,16120,111,3022,-810,-9000,0,13000,612038,
356,-688,16032,117,3210,-797,-9000,0,13000,612040,
316,-804,16008,40,3309,-784,-9000,0,13000,612042,
260,-664,15880,4,3473,-745,-9000,0,13000,612045,
-64,-780,15988,-390,4195,-757,-9000,0,13000,612057,
-160,-716,15888,-510,4275,-777,-9000,0,13000,612060,
-216,-636,16012,-613,4394,-799,-9000,0,13000,612062,
-272,-568,16120,-720,4377,-781,-9000,0,13000,612064,
-676,-396,16920,-1112,4011,-904,-9000,0,12000,612077,
-568,-352,16992,-1142,3805,-891,-9000,0,12000,612079,
-704,-364,17052,-1158,3659,-934,-9000,0,12000,612082,
-1192,-784,16792,-999,2611,-907,-9000,1000,12000,612094,
-1104,-812,16752,-1006,2415,-840,-9000,1000,12000,612097,
-1116,-776,16804,-921,2223,-798,-9000,1000,12000,612099,
-1000,-724,16484,-824,806,-260,-9000,1000,12000,612112,
-960,-788,16264,-806,588,-199,-9000,1000,12000,612114,
-884,-624,16348,-822,366,-141,-9000,1000,12000,612116,
-716,-484,16400,-843,175,-88,-9000,1000,12000,612119,
-260,-408,16276,-924,-224,-124,-9000,1000,12000,612132,
-24,-360,16188,-982,-186,-154,-9000,1000,12000,612134,
-104,-440,16132,-1038,-98,-232,-9000,1000,12000,612136,
432,-604,16024,-1167,407,-335,-9000,1000,12000,612149,
564,-588,16308,-1198,592,-364,-9000,1000,12000,612151,
540,-760,16276,-1186,660,-339,-9000,1000,12000,612154,
304,-848,16636,-1333,1476,-263,-9000,1000,12000,612170,
268,-812,16604,-1383,1672,-250,-9000,1000,12000,612172,
136,-812,16576,-1368,1754,-232,-9000,1000,12000,612175,
0,-676,16628,-1432,2022,-271,-9000,1000,12000,612187,
-144,-684,16616,-1407,1946,-256,-9000,1000,12000,612189,
-100,-556,16500,-1447,1866,-256,-9000,1000,12000,612192,
-352,-552,16564,-1421,1198,-242,-9000,1000,12000,612204,
-464,-548,16624,-1446,1100,-229,-9000,1000,12000,612207,
-536,-560,16616,-1418,1008,-206,-9000,1000,12000,612209,
-516,-656,16696,-1476,639,-18,-9000,1000,12000,612222,
-504,-756,16740,-1452,550,9,-9000,1000,12000,612224,
-580,-724,16852,-1479,478,67,-9000,2000,12000,612226,
-340,-696,16888,-1498,503,46,-9000,2000,12000,612229,
-112,-700,16816,-1439,273,208,-10000,2000,12000,612241,
16,-724,16828,-1443,263,272,-10000,2000,12000,612244,
144,-632,16900,-1411,235,286,-10000,2000,12000,612246,
296,-624,16892,-1475,338,474,-10000,2000,12000,612259,
324,-716,16880,-1447,377,513,-10000,2000,12000,612261,
348,-708,16924,-1489,424,530,-10000,2000,12000,612264,
532,-708,16876,-1518,534,562,-10000,2000,12000,612266,
384,-732,16812,-1528,826,612,-10000,2000,12000,612279,
484,-872,16688,-1541,922,615,-10000,2000,12000,612281,
424,-908,16636,-1496,908,655,-10000,2000,12000,612283,
264,-872,16616,-1558,1000,754,-10000,2000,12000,612296,
304,-936,16580,-1494,963,759,-10000,2000,12000,612298,
308,-976,16544,-1551,932,793,-10000,2000,12000,612301,
308,-920,16620,-1562,906,791,-10000,2000,12000,612303,
328,-1092,16728,-1629,910,758,-10000,2000,12000,612316,
308,-1128,16836,-1642,981,716,-10000,2000,12000,612318,
276,-1120,16896,-1587,963,720,-10000,2000,12000,612320,
260,-1412,17020,-1571,952,605,-10000,2000,12000,612333,
304,-1420,16880,-1517,927,608,-10000,2000,12000,612335,
184,-1344,16944,-1540,898,607,-10000,2000,12000,612338,
272,-1468,16916,-1460,889,624,-10000,2000,12000,612350,
260,-1560,17108,-1508,901,610,-10000,2000,12000,612353,
312,-1520,17104,-1470,942,604,-10000,2000,12000,612355,
60,-1732,17036,-1351,808,593,-11000,2000,12000,612368,
84,-1700,17124,-1334,809,573,-11000,2000,12000,612370,
-64,-1780,17092,-1258,739,568,-11000,2000,12000,612372,
24,-1756,17060,-1170,424,549,-11000,2000,12000,612385,
-16,-1640,17048,-1127,308,530,-11000,2000,12000,612387,
-20,-1736,17104,-1145,251,537,-11000,2000,12000,612390,
284,-1656,17216,-991,72,422,-11000,2000,12000,612402,
236,-1724,17100,-992,52,453,-11000,2000,12000,612405,
252,-1664,17008,-989,75,387,-11000,2000,12000,612407,
324,-1632,17276,-913,57,385,-11000,2000,13000,612409,
384,-1708,17264,-744,109,404,-11000,2000,13000,612422,
348,-1680,17116,-699,125,375,-11000,2000,13000,612424,
428,-1784,17052,-719,158,404,-11000,2000,13000,612426,
344,-1660,17240,-569,360,342,-11000,2000,13000,612439,
308,-1620,17220,-585,370,361,-11000,2000,13000,612442,
