Ax,Ay,Az,Gx,Gy,Gz,Roll,Pitch,Yaw,Timestamp,Target
200,-1060,16824,-496,233,27,-9000,1000,159000,214808,
352,-1016,16596,-464,231,29,-9000,1000,159000,214852,
396,-968,16752,-445,175,19,-9000,1000,159000,214854,
284,-1028,16680,-505,184,43,-9000,1000,159000,214857,
232,-1020,16780,-477,230,1,-9000,1000,159000,214859,
336,-1128,16760,-490,217,45,-9000,1000,159000,214871,
400,-1044,16640,-449,232,25,-9000,1000,159000,214873,
280,-1016,16672,-439,193,46,-9000,1000,159000,214876,
184,-1092,16808,-459,158,50,-9000,1000,159000,214888,
240,-1096,16636,-435,134,71,-9000,1000,159000,214890,
220,-1128,16496,-456,159,108,-9000,1000,159000,214892,
272,-1044,16768,-445,189,70,-9000,1000,159000,214905,
296,-1028,16808,-472,207,73,-9000,1000,159000,214907,
380,-1028,16772,-472,241,45,-9000,1000,159000,214909,
268,-1080,16612,-424,168,56,-9000,1000,159000,214911,
272,-1056,16672,-449,200,66,-9000,1000,159000,214924,
320,-1036,16528,-407,167,94,-9000,1000,159000,214926,
256,-1000,16760,-463,168,79,-9000,1000,159000,214928,
336,-1092,16600,-399,235,90,-9000,1000,159000,214941,
304,-1052,16632,-411,192,95,-9000,1000,159000,214943,
384,-1012,16776,-407,265,91,-9000,1000,159000,214945,
540,-1084,16768,-357,221,25,-9000,1000,159000,214992,
444,-1016,16832,-376,225,42,-9000,1000,159000,214994,
480,-1128,16704,-384,204,21,-9000,1000,159000,214997,
416,-956,16780,-392,145,48,-9000,1000,159000,214999,
232,-956,16720,-426,213,69,-9000,1000,159000,215011,
288,-924,16788,-459,201,49,-9000,1000,159000,215013,
120,-1000,16816,-479,195,35,-9000,1000,159000,215016,
96,-1100,16656,-428,149,41,-9000,1000,159000,215028,
136,-1104,16624,-418,170,40,-9000,1000,159000,215030,
156,-1136,16628,-376,140,17,-9000,1000,159000,215032,
312,-1064,16740,-402,138,91,-9000,1000,159000,215045,
316,-928,16716,-370,157,106,-9000,1000,159000,215047,
364,-940,16684,-416,147,116,-9000,1000,159000,215049,
388,-972,16808,-424,185,93,-9000,1000,159000,215051,
648,-988,16732,-429,194,92,-9000,1000,159000,215064,
456,-1008,16716,-428,216,66,-9000,1000,159000,215066,
556,-956,16820,-373,214,68,-9000,1000,159000,215068,
252,-1060,16708,-428,234,55,-9000,1000,159000,215081,
244,-1116,16692,-366,208,50,-9000,1000,159000,215083,
268,-1124,16620,-398,211,65,-9000,1000,159000,215085,
120,-1084,16764,-332,231,64,-9000,1000,159000,215098,
344,-920,16680,-393,273,121,-9000,1000,159000,215125,
388,-1008,16692,-365,250,113,-9000,1000,159000,215127,
360,-1048,16636,-393,261,134,-9000,1000,159000,215129,
372,-1024,16712,-395,272,107,-9000,1000,159000,215131,
260,-980,16676,-353,206,91,-9000,1000,159000,215144,
252,-992,16660,-413,210,94,-9000,1000,159000,215146,
112,-956,16816,-370,230,84,-9000,1000,159000,215148,
160,-1040,16716,-428,241,64,-9000,1000,159000,215161,
320,-1028,16656,-392,208,83,-9000,1000,159000,215163,
244,-980,16560,-427,249,99,-9000,1000,159000,215165,
412,-1068,16640,-375,256,66,-9000,1000,159000,215178,
424,-1080,16604,-430,248,73,-9000,1000,159000,215180,
320,-1040,16636,-418,291,40,-9000,1000,159000,215182,
396,-984,16660,-386,295,40,-9000,1000,159000,215184,
376,-1088,16864,-439,314,58,-9000,1000,159000,215197,
268,-1000,16704,-400,276,37,-9000,1000,159000,215199,
216,-1052,16848,-450,233,51,-9000,1000,159000,215201,
168,-1156,16728,-274,193,90,-9000,1000,159000,215214,
104,-1044,16684,-323,139,99,-9000,1000,159000,215216,
136,-1060,16468,-346,110,124,-9000,1000,159000,215218,
96,-924,16836,-372,104,133,-9000,1000,159000,215230,
540,-1000,16752,-434,269,4,-9000,1000,159000,215263,
536,-964,16584,-450,243,27,-9000,1000,159000,215266,
480,-940,16528,-456,249,22,-9000,1000,159000,215268,
368,-980,16648,-472,297,4,-9000,1000,159000,215270,
228,-936,16628,-507,317,55,-9000,1000,159000,215282,
224,-980,16624,-522,337,1,-9000,1000,159000,215285,
176,-1036,16720,-492,330,55,-9000,1000,159000,215287,
180,-972,16640,-499,379,23,-9000,1000,159000,215299,
232,-964,16668,-511,316,30,-9000,1000,159000,215301,
288,-1036,16704,-512,341,37,-9000,1000,159000,215304,
208,-1032,16768,-463,351,2,-9000,1000,159000,215306,
244,-912,16624,-581,368,-34,-9000,1000,159000,215318,
268,-832,16744,-579,413,-5,-9000,1000,159000,215320,
184,-948,16724,-573,361,-31,-9000,1000,159000,215323,
320,-892,16772,-582,393,-93,-9000,1000,159000,215335,
388,-976,16716,-637,393,-60,-9000,1000,159000,215337,
220,-916,16712,-647,374,-67,-9000,1000,159000,215339,
140,-1072,16776,-623,415,-51,-9000,1000,159000,215352,
100,-1060,16716,-635,414,-71,-9000,1000,159000,215354,
196,-1008,16564,-613,414,-87,-9000,1000,159000,215356,
68,-1096,16600,-638,406,-62,-9000,1000,159000,215369,
188,-1152,16628,-507,197,-10,-9000,1000,159000,215397,
172,-1160,16688,-419,159,-33,-9000,1000,159000,215399,
224,-1136,16768,-425,148,7,-9000,1000,159000,215402,
168,-980,16740,-384,73,50,-9000,1000,159000,215414,
176,-1056,16688,-400,65,32,-9000,1000,159000,215416,
184,-944,16620,-392,91,31,-9000,1000,159000,215418,
88,-960,16628,-363,73,39,-9000,1000,159000,215421,
156,-976,16620,-389,124,39,-9000,1000,159000,215433,
172,-1036,16572,-375,86,37,-9000,1000,159000,215435,
192,-1000,16616,-405,93,52,-9000,1000,159000,215437,
264,-952,16680,-406,104,46,-9000,1000,159000,215450,
416,-1044,16912,-413,116,60,-9000,1000,159000,215452,
376,-1024,16720,-388,176,13,-9000,1000,159000,215454,
356,-1004,16528,-400,173,57,-9000,1000,159000,215456,
420,-1076,16524,-444,281,1,-9000,1000,159000,215469,
412,-936,16536,-470,238,8,-9000,1000,159000,215471,
380,-1032,16732,-461,243,19,-9000,1000,159000,215473,
312,-884,16900,-446,170,53,-9000,1000,159000,215486,
280,-912,16904,-436,199,55,-9000,1000,159000,215488,
240,-848,16660,-478,263,74,-9000,1000,159000,215490,
32,-1176,16660,-416,158,-21,-9000,1000,159000,215543,
132,-1108,16664,-475,110,-6,-9000,1000,159000,215546,
92,-1208,16532,-493,121,0,-9000,1000,159000,215548,
-20,-1128,16516,-449,131,4,-9000,1000,159000,215550,
292,-1080,16740,-477,102,36,-9000,1000,159000,215563,
200,-1048,16696,-413,65,11,-9000,1000,159000,215565,
292,-980,16604,-414,82,47,-9000,1000,159000,215567,
428,-884,16944,-392,97,5,-9000,1000,159000,215579,
324,-860,16608,-442,71,49,-9000,1000,159000,215582,
436,-884,16660,-481,134,4,-9000,1000,159000,215584,
360,-908,16788,-483,113,11,-9000,1000,159000,215586,
312,-952,16652,-516,200,1,-9000,1000,159000,215598,
392,-812,16724,-511,225,14,-9000,1000,159000,215601,
488,-944,16732,-479,190,10,-9000,1000,159000,215603,
304,-1096,16740,-499,232,-18,-9000,1000,159000,215615,
288,-1056,16716,-517,225,22,-9000,1000,159000,215618,
300,-1088,16628,-528,235,17,-9000,1000,159000,215620,
232,-1024,16656,-527,241,4,-9000,1000,159000,215632,
264,-1116,16660,-545,259,4,-9000,1000,159000,215634,
212,-1128,16632,-496,240,-24,-9000,1000,159000,215637,
204,-904,16660,-470,170,47,-9000,1000,159000,215686,
180,-1056,16796,-425,172,13,-9000,1000,159000,215688,
180,-1032,16652,-435,146,26,-9000,1000,159000,215690,
156,-948,16700,-445,109,48,-9000,1000,159000,215693,
32,-1084,16612,-400,119,36,-9000,1000,159000,215705,
-12,-1140,16732,-418,107,57,-9000,1000,159000,215707,
20,-1080,16756,-398,123,52,-9000,1000,159000,215710,
252,-1128,16728,-411,89,71,-9000,1000,159000,215722,
300,-1052,16636,-341,79,68,-9000,1000,159000,215724,
272,-1184,16708,-368,26,77,-9000,1000,159000,215726,
288,-1156,16792,-414,66,53,-9000,1000,159000,215729,
484,-980,16780,-421,173,97,-9000,1000,159000,215741,
508,-1008,16640,-425,205,69,-9000,1000,159000,215743,
512,-968,16836,-368,203,81,-9000,1000,159000,215745,
676,-956,16744,-455,307,50,-9000,1000,159000,215758,
528,-876,16852,-440,279,61,-9000,1000,159000,215760,
488,-840,16800,-478,286,85,-9000,1000,159000,215762,
412,-836,16808,-510,363,28,-9000,1000,159000,215765,
288,-812,16696,-513,322,42,-9000,1000,159000,215777,
192,-940,16664,-502,372,21,-9000,1000,159000,215779,
456,-1104,16544,-498,291,-61,-9000,1000,159000,215823,
492,-1020,16704,-513,317,-57,-9000,1000,159000,215826,
476,-1076,16744,-533,334,-63,-9000,1000,159000,215828,
276,-976,16696,-510,262,-72,-9000,1000,159000,215840,
356,-1008,16604,-540,317,-92,-9000,1000,159000,215843,
316,-1068,16644,-483,311,-110,-9000,1000,159000,215845,
-72,-1080,16768,-485,239,-85,-9000,1000,159000,215857,
-12,-1080,16764,-398,225,-57,-9000,1000,159000,215859,
0,-1156,16600,-431,124,-17,-9000,1000,159000,215862,
-120,-1092,16532,-351,53,39,-9000,1000,159000,215874,
-60,-1128,16636,-353,31,77,-9000,1000,159000,215876,
-64,-1124,16796,-390,48,52,-9000,1000,159000,215878,
-20,-1124,16544,-345,50,78,-9000,1000,159000,215881,
372,-1064,16684,-384,34,55,-9000,1000,159000,215893,
488,-980,16748,-353,33,64,-9000,1000,159000,215895,
440,-868,16824,-404,66,89,-9000,1000,159000,215897,
456,-960,16700,-392,145,26,-9000,1000,159000,215910,
584,-888,16680,-499,154,13,-9000,1000,159000,215912,
632,-944,16660,-485,210,-23,-9000,1000,159000,215914,
636,-932,16800,-460,202,-27,-9000,1000,159000,215916,
-16,-1036,16832,-645,253,-2,-9000,1000,159000,215955,
52,-944,16796,-628,234,16,-9000,1000,159000,215957,
20,-1020,16772,-634,232,-12,-9000,1000,159000,215959,
-68,-996,17016,-651,196,-19,-9000,1000,159000,215961,
20,-864,16704,-738,202,-63,-9000,1000,159000,215974,
-36,-932,16948,-785,211,-63,-9000,1000,159000,215976,
16,-840,16832,-815,228,-68,-9000,1000,159000,215978,
216,-868,16684,-897,251,-164,-9000,1000,159000,215990,
204,-864,16660,-919,252,-160,-9000,1000,159000,215993,
128,-764,16924,-950,314,-185,-9000,1000,159000,215995,
340,-700,16776,-1139,398,-216,-9000,1000,159000,216007,
388,-784,16708,-1095,457,-248,-9000,1000,159000,216009,
328,-848,16792,-1153,389,-201,-9000,1000,159000,216012,
252,-928,17108,-1355,498,-232,-10000,1000,159000,216024,
348,-1072,16868,-1356,488,-202,-10000,1000,159000,216026,
352,-984,16704,-1474,534,-171,-10000,1000,159000,216028,
252,-1040,16744,-1729,618,-244,-10000,1000,159000,216041,
296,-1008,16932,-1824,663,-257,-10000,1000,159000,216043,
280,-960,16952,-1933,752,-242,-10000,1000,159000,216045,
360,-520,17156,-2440,1155,-232,-10000,2000,159000,216058,
292,-848,17212,-3865,1738,561,-11000,2000,159000,216103,
188,-976,17444,-3845,1770,599,-11000,2000,159000,216106,
248,-1152,17096,-3900,1795,641,-11000,2000,159000,216108,
-124,-1872,17104,-3604,2166,861,-12000,2000,159000,216120,
16,-1988,17084,-3625,2145,831,-12000,2000,159000,216122,
44,-2060,17256,-3570,2199,768,-12000,2000,159000,216125,
-156,-2096,17140,-3206,2368,405,-12000,3000,159000,216137,
-220,-2088,17040,-3138,2426,392,-12000,3000,159000,216139,
-312,-2108,16972,-3060,2302,380,-12000,3000,159000,216142,
-1080,-2052,17480,-2829,1162,763,-12000,3000,159000,216154,
-1228,-2028,17652,-2766,955,884,-12000,3000,159000,216156,
-1344,-2084,17852,-2721,852,979,-12000,3000,159000,216158,
-1520,-1968,18484,-2640,157,1162,-12000,3000,159000,216171,
-1512,-2012,18776,-2652,133,1175,-13000,3000,159000,216173,
-1592,-2060,18864,-2582,44,1153,-13000,3000,159000,216175,
-1532,-2276,19028,-2342,-882,1054,-13000,3000,159000,216188,
-1500,-2216,19164,-2259,-1141,1017,-13000,3000,159000,216190,
-1576,-2312,19276,-2261,-1403,999,-13000,3000,159000,216192,
-1932,-2208,19712,-1657,-3305,1101,-13000,3000,159000,216205,
-1872,-2164,19676,-1688,-3500,1164,-13000,3000,159000,216207,
-444,-2260,18896,-1365,-4047,1335,-13000,2000,160000,216232,
-408,-2340,19084,-1352,-4127,1351,-13000,2000,160000,216234,
-336,-2268,19068,-1381,-4106,1399,-13000,2000,160000,216237,
640,-2484,19048,-1507,-4267,1896,-13000,1000,160000,216249,
764,-2300,18916,-1367,-4236,1833,-13000,1000,160000,216251,
820,-2244,18764,-1224,-4161,1692,-13000,1000,160000,216253,
1468,-2112,18652,-871,-3083,1020,-13000,1000,160000,216266,
1604,-2120,18548,-729,-2797,889,-13000,1000,160000,216268,
1588,-2124,18612,-729,-2570,852,-13000,1000,160000,216270,
2024,-2316,18540,-327,-1214,493,-13000,1000,161000,216283,
1988,-2428,18392,-262,-1127,520,-13000,1000,161000,216285,
2004,-2364,18492,-220,-903,479,-13000,1000,161000,216287,
1488,-2776,18392,755,-293,472,-13000,1000,161000,216300,
1388,-2896,18064,901,-212,440,-13000,1000,161000,216302,
1284,-2864,18272,1023,-127,444,-13000,1000,161000,216304,
676,-2876,17636,1447,-215,320,-13000,1000,161000,216316,
520,-2788,17780,1524,-246,232,-13000,0,161000,216319,
452,-2724,17720,1623,-382,234,-13000,0,161000,216321,
-100,-2548,18060,2012,-1139,257,-13000,0,161000,216333,
-216,-2388,18116,2094,-1322,298,-13000,0,161000,216335,
-308,-2500,18208,2119,-1458,351,-13000,0,161000,216338,
1052,-2216,19404,3177,-1455,141,-12000,0,161000,216372,
912,-2200,19388,3228,-1462,140,-12000,0,161000,216374,
952,-2172,19452,3269,-1438,122,-11000,0,161000,216377,
948,-2060,19048,3365,-1535,222,-11000,0,161000,216389,
956,-2052,18996,3412,-1553,237,-11000,0,161000,216391,
860,-2016,18868,3413,-1636,274,-11000,0,161000,216393,
652,-1864,18732,3519,-1862,372,-11000,0,161000,216406,
812,-1780,18672,3499,-1942,413,-11000,0,161000,216408,
524,-1760,18688,3502,-1987,410,-11000,0,161000,216410,
828,-1876,18724,3664,-2326,292,-10000,0,161000,216423,
832,-1736,18948,3677,-2428,260,-10000,0,161000,216425,
828,-1772,18756,3756,-2510,208,-10000,0,161000,216427,
1068,-1756,18780,3914,-2983,54,-10000,0,161000,216440,
1068,-1724,18704,3980,-2998,33,-10000,0,161000,216442,
1168,-1660,18688,3991,-3064,37,-9000,0,161000,216444,
1336,-1584,18468,4095,-2816,-23,-9000,-1000,161000,216456,
1480,-1600,18488,4084,-2788,-10,-9000,-1000,161000,216459,
1556,-1528,18400,4058,-2656,-7,-9000,-1000,161000,216461,
1792,-1460,18296,4164,-2004,-70,-8000,-1000,161000,216473,
1828,-1388,18232,4156,-1836,-73,-8000,-1000,161000,216475,
1708,-1136,17984,4614,-463,-43,-7000,-1000,161000,216510,
1636,-1116,17816,4632,-412,-68,-7000,-1000,161000,216512,
1548,-1136,18004,4738,-315,-58,-7000,-1000,161000,216514,
1344,-980,17616,4849,-152,-77,-6000,-1000,161000,216527,
1216,-1024,17856,4920,-182,-113,-6000,-1000,161000,216529,
1276,-1096,17688,4948,-183,-87,-6000,-1000,161000,216531,
1140,-928,17756,5129,-250,-203,-6000,-1000,161000,216543,
1096,-948,17684,5107,-340,-181,-6000,-1000,161000,216545,
1144,-780,17796,5128,-368,-221,-6000,-1000,161000,216548,
1180,-712,17736,5258,-676,-259,-5000,-1000,161000,216560,
1216,-648,17676,5281,-710,-249,-5000,-1000,161000,216562,
1140,-616,17668,5306,-691,-286,-5000,-1000,161000,216564,
1268,-372,17312,5354,-755,-261,-4000,-1000,161000,216577,
1376,-328,17228,5373,-728,-273,-4000,-1000,161000,216579,
1336,-228,17356,5355,-736,-271,-4000,-1000,161000,216581,
1372,-84,17280,5376,-499,-273,-4000,-2000,161000,216594,
1432,-128,17172,5367,-499,-221,-3000,-2000,161000,216596,
1412,-96,17096,5347,-454,-226,-3000,-2000,161000,216598,
1376,48,17316,5357,-357,-180,-3000,-2000,161000,216611,
1456,16,17192,5334,-344,-148,-3000,-2000,161000,216613,
728,388,16636,5372,-1139,-46,-1000,-2000,161000,216662,
752,384,16708,5421,-1234,-79,-1000,-2000,161000,216664,
748,460,16876,5462,-1388,-76,0,-2000,161000,216667,
444,500,16704,5519,-1936,-95,0,-2000,161000,216679,
504,504,16704,5536,-2110,-81,0,-2000,161000,216681,
572,500,16556,5518,-2202,-37,0,-2000,161000,216683,
520,588,16592,5566,-2364,-68,0,-2000,161000,216686,
712,864,16588,5691,-3231,30,0,-3000,161000,216698,
744,1024,16476,5768,-3330,51,0,-3000,161000,216700,
796,1176,16368,5767,-3493,112,0,-3000,161000,216702,
940,1304,16420,5869,-4348,99,1000,-3000,161000,216715,
956,1236,16472,5917,-4468,143,1000,-3000,161000,216717,
1060,1340,16484,5888,-4634,146,1000,-3000,161000,216719,
1076,1416,16268,6006,-5247,102,2000,-4000,161000,216732,
1088,1336,16320,6055,-5295,108,2000,-4000,161000,216734,
1164,1400,16344,6082,-5396,133,2000,-4000,161000,216736,
1564,1648,16236,6154,-5617,151,2000,-5000,161000,216749,
1700,1724,16212,6163,-5657,152,2000,-5000,161000,216751,
1708,1804,16188,6115,-5663,190,3000,-5000,161000,216753,
2280,2168,16076,6122,-5555,184,3000,-5000,161000,216765,
3200,2884,15952,5633,-3360,271,5000,-7000,161000,216812,
3304,2924,15928,5645,-3329,240,5000,-7000,161000,216814,
3192,2932,15932,5622,-3205,276,6000,-7000,161000,216817,
3448,3064,15972,5689,-2858,241,6000,-7000,161000,216829,
3432,3220,15884,5682,-2810,245,6000,-7000,161000,216831,
3428,3160,15952,5699,-2696,214,6000,-7000,161000,216833,
3564,3424,15712,5736,-2466,196,7000,-7000,161000,216846,
3468,3504,15648,5746,-2403,173,7000,-8000,161000,216848,
3480,3632,15744,5802,-2427,185,7000,-8000,161000,216850,
3604,3828,15652,5742,-2082,144,8000,-8000,161000,216863,
3500,3884,15712,5768,-2073,145,8000,-8000,161000,216865,
3564,3872,15744,5719,-2056,118,8000,-8000,161000,216867,
3484,4056,15568,5649,-1930,39,8000,-8000,161000,216879,
3496,3960,15724,5653,-1971,-8,9000,-8000,161000,216882,
3500,4000,15884,5673,-1862,-36,9000,-8000,161000,216884,
3688,3928,15932,5727,-1944,-15,9000,-8000,161000,216896,
3832,4028,15952,5791,-1924,-27,9000,-8000,161000,216898,
3780,4056,16092,5868,-2008,-1,9000,-8000,161000,216901,
4220,4248,15940,6155,-2108,136,10000,-9000,161000,216913,
4360,4416,15972,6218,-2160,189,10000,-9000,161000,216915,
4152,4992,16012,6616,-1062,-201,12000,-9000,161000,216947,
4124,5000,15972,6652,-948,-252,12000,-9000,161000,216949,
4080,5020,16052,6666,-945,-294,12000,-9000,161000,216952,
3880,5044,15924,6711,-836,-458,13000,-9000,161000,216964,
3792,5048,16152,6706,-847,-470,13000,-9000,161000,216966,
3724,5068,16032,6694,-867,-458,13000,-9000,161000,216968,
3820,5076,16356,6760,-876,-482,14000,-9000,161000,216981,
3816,4948,16320,6698,-843,-520,14000,-9000,161000,216983,
3916,5052,16120,6685,-777,-514,14000,-9000,161000,216985,
4180,4852,15804,6599,-611,-639,15000,-9000,161000,216998,
4172,5036,15732,6583,-500,-702,15000,-9000,160000,217000,
4296,4948,15712,6655,-428,-717,15000,-9000,160000,217002,
4316,5120,15316,6603,136,-812,16000,-9000,160000,217014,
4308,5092,15196,6596,202,-773,16000,-9000,160000,217017,
4356,5068,15088,6550,292,-756,16000,-9000,160000,217019,
4152,5624,15000,6581,476,-712,16000,-9000,160000,217031,
4156,5604,14940,6521,479,-703,17000,-9000,160000,217034,
4092,5664,14972,6546,522,-747,17000,-9000,160000,217036,
3780,6020,14780,6434,374,-720,17000,-9000,160000,217048,
3644,6100,14900,6381,364,-718,17000,-9000,160000,217050,
2880,5764,14984,6276,-911,-958,19000,-9000,160000,217086,
2916,5848,15128,6344,-1031,-928,19000,-9000,160000,217088,
3024,5828,15028,6407,-1168,-897,19000,-9000,160000,217090,
3368,6148,14400,6549,-1802,-850,20000,-10000,160000,217103,
3276,6248,14412,6504,-1943,-829,20000,-10000,160000,217105,
3252,6240,14256,6513,-1996,-798,20000,-10000,160000,217107,
3540,6576,14272,6586,-2280,-811,21000,-10000,159000,217120,
3608,6776,14120,6560,-2277,-812,21000,-10000,159000,217122,
3672,6860,14076,6584,-2302,-834,21000,-10000,159000,217124,
3748,7204,14464,6463,-2623,-816,22000,-10000,159000,217137,
3708,7200,14252,6489,-2683,-799,22000,-10000,159000,217139,
3708,7120,14408,6441,-2780,-792,22000,-10000,159000,217141,
3688,7144,14308,6356,-3098,-693,23000,-10000,159000,217153,
3724,7200,14304,6301,-3135,-690,23000,-11000,159000,217156,
3908,7216,14488,6274,-3192,-693,23000,-11000,159000,217158,
4048,7064,14048,6368,-3240,-738,24000,-11000,159000,217170,
4060,6968,13972,6365,-3226,-719,24000,-11000,159000,217172,
4212,7060,13936,6400,-3136,-769,24000,-11000,159000,217175,
4404,7292,13584,6472,-2946,-878,25000,-11000,158000,217187,
4412,7384,13452,6541,-2889,-863,25000,-11000,158000,217189,
4328,7424,13608,6537,-2878,-848,25000,-11000,158000,217192,
4012,8460,13096,6379,-2830,-957,27000,-12000,158000,217226,
4000,8388,12788,6288,-2982,-1024,27000,-12000,158000,217228,
4024,8356,12892,6241,-2997,-1050,27000,-12000,158000,217230,
3552,8336,13060,6312,-3766,-1277,28000,-12000,157000,217243,
3644,8276,12884,6367,-3922,-1353,28000,-12000,157000,217245,
3584,8188,13032,6457,-4082,-1374,28000,-12000,157000,217247,
3472,8276,12512,6582,-5153,-1420,29000,-13000,157000,217260,
3444,8396,12628,6635,-5356,-1407,29000,-13000,157000,217262,
3448,8372,12460,6629,-5534,-1375,29000,-13000,157000,217264,
4008,8804,11932,6858,-6235,-1430,30000,-13000,156000,217276,
3900,8884,11704,6841,-6327,-1408,30000,-13000,156000,217279,
4124,8960,11608,6846,-6358,-1469,30000,-13000,156000,217281,
4572,9592,11312,6657,-6349,-1665,31000,-14000,156000,217293,
4672,9532,11356,6646,-6234,-1728,31000,-14000,156000,217296,
4932,9908,11240,6382,-5673,-1898,32000,-14000,155000,217308,
4956,9940,11280,6301,-5489,-1923,32000,-14000,155000,217310,
4976,10016,11436,6311,-5402,-1907,32000,-15000,155000,217312,
5128,10144,11136,6060,-4597,-1903,33000,-15000,155000,217325,
5168,10196,11088,6024,-4448,-1847,33000,-15000,155000,217327,
5256,10164,10864,5884,-4254,-1856,33000,-15000,154000,217329,
5148,10368,9616,5336,-527,-2010,35000,-15000,154000,217373,
5136,10500,9488,5329,-428,-2074,35000,-15000,154000,217376,
4932,10504,9416,5322,-347,-2051,36000,-15000,154000,217378,
4856,10960,8976,5201,333,-2155,36000,-15000,153000,217390,
4680,11060,8732,5095,378,-2066,36000,-15000,153000,217392,
4612,11060,8716,4953,459,-2054,36000,-15000,153000,217395,
4384,11108,8868,4568,694,-1771,37000,-14000,153000,217407,
4432,11212,8844,4516,797,-1743,37000,-14000,153000,217409,
4344,11188,8844,4462,685,-1829,37000,-14000,153000,217411,
3972,11248,8656,3971,481,-1635,38000,-14000,153000,217424,
4052,11176,8652,3922,455,-1656,38000,-14000,153000,217426,
4060,11224,8576,3833,376,-1614,38000,-14000,153000,217428,
3832,10832,8292,3504,368,-1511,38000,-14000,153000,217441,
3828,10740,8288,3434,323,-1456,38000,-14000,153000,217443,
3848,10816,8340,3386,290,-1415,38000,-14000,153000,217445,
3868,11040,8268,3432,-180,-1084,39000,-14000,153000,217458,
3912,10988,8000,3392,-206,-1045,39000,-14000,153000,217460,
3900,10968,7952,3405,-269,-999,39000,-14000,153000,217462,
4116,11484,7884,3187,-572,-503,39000,-14000,153000,217475,
4352,11612,7704,3155,-589,-547,40000,-14000,153000,217477,
4088,11492,7728,1611,-787,-817,40000,-14000,152000,217520,
4108,11480,7768,1516,-843,-791,41000,-14000,152000,217522,
3936,11460,7844,1487,-910,-757,41000,-14000,152000,217524,
3768,11252,7724,1408,-1499,-559,41000,-14000,152000,217537,
3820,11260,7672,1413,-1512,-525,41000,-14000,152000,217539,
3780,11292,7564,1448,-1678,-472,41000,-14000,152000,217541,
3608,11392,7168,1372,-1997,-374,41000,-14000,152000,217553,
3808,11516,7176,1319,-2086,-344,41000,-14000,152000,217556,
3640,11504,6908,1253,-2124,-326,41000,-14000,152000,217558,
3944,11780,6728,932,-2223,-260,42000,-15000,151000,217570,
3900,11892,6528,781,-2156,-263,42000,-15000,151000,217572,
3912,11944,6468,730,-2114,-224,42000,-15000,151000,217575,
4360,11960,6284,151,-1812,-134,42000,-15000,151000,217587,
4272,11948,6240,44,-1683,-164,42000,-15000,151000,217589,
4340,12016,6484,27,-1593,-87,42000,-15000,151000,217591,
4612,12164,6840,-415,-1080,37,42000,-15000,151000,217604,
4708,12148,6744,-431,-1030,89,42000,-15000,151000,217606,
4804,12192,6908,-557,-849,92,42000,-15000,151000,217608,
4908,12044,6548,-1004,14,122,42000,-15000,151000,217621,
4768,12144,6704,-1093,187,79,42000,-15000,151000,217623,
4284,11864,6176,-2248,2454,236,42000,-15000,151000,217660,
4108,11952,6140,-2296,2565,267,42000,-15000,151000,217662,
4248,11992,6376,-2358,2604,319,42000,-15000,152000,217664,
3912,12340,6452,-2733,2622,489,41000,-14000,152000,217676,
3804,12400,6456,-2809,2572,493,41000,-14000,152000,217679,
3660,12316,6564,-2919,2530,526,41000,-14000,152000,217681,
3428,12336,6640,-3431,2214,496,41000,-14000,152000,217693,
3340,12348,6572,-3507,2113,476,41000,-14000,152000,217695,
3408,12364,6788,-3602,2090,482,41000,-14000,152000,217698,
3084,11956,7036,-4117,1599,511,41000,-14000,152000,217710,
3096,11852,6904,-4150,1549,487,41000,-14000,152000,217712,
3140,11800,7028,-4220,1433,542,40000,-14000,152000,217715,
2976,11468,7152,-4519,899,763,40000,-14000,152000,217727,
3104,11400,7184,-4572,796,808,40000,-14000,152000,217729,
3096,11332,7108,-4615,737,898,40000,-14000,152000,217731,
3344,11088,6836,-4865,560,1209,40000,-14000,152000,217744,
3448,11160,6996,-4926,552,1269,40000,-14000,152000,217746,
3596,11104,7096,-4964,604,1310,39000,-14000,152000,217748,
3924,11104,6856,-5317,726,1532,39000,-14000,153000,217761,
3992,10988,6872,-5368,850,1506,39000,-14000,153000,217763,
3212,10020,8372,-5998,304,1345,37000,-14000,153000,217805,
2984,9944,8548,-5942,40,1364,37000,-14000,153000,217807,
2924,9868,8568,-5980,-188,1422,37000,-14000,153000,217809,
2444,9428,8268,-5914,-1438,1648,36000,-15000,153000,217822,
2280,9220,8300,-5978,-1633,1706,36000,-15000,153000,217824,
2184,9248,8204,-6012,-1801,1766,36000,-15000,153000,217826,
2260,8832,8316,-6171,-2639,2313,36000,-15000,153000,217838,
2244,8728,8184,-6241,-2708,2396,36000,-15000,153000,217841,
2148,8748,8164,-6251,-2805,2538,36000,-15000,153000,217843,
2816,8700,8688,-6418,-3006,3339,35000,-15000,153000,217855,
2780,8756,8772,-6396,-3033,3463,35000,-15000,153000,217857,
2992,8900,8912,-6466,-3043,3624,35000,-16000,153000,217860,
3824,9336,9604,-6421,-3154,4383,34000,-16000,153000,217872,
3996,9324,9632,-6478,-3185,4468,34000,-16000,153000,217874,
3988,9388,9684,-6525,-3152,4543,34000,-16000,153000,217877,
4844,9812,9676,-6926,-2911,4935,33000,-17000,154000,217889,
4968,9796,9680,-7048,-2765,4850,33000,-17000,154000,217891,
4952,9732,9960,-7110,-2673,4859,33000,-17000,154000,217893,
5220,9048,9840,-7763,-1803,4587,32000,-17000,154000,217906,
5352,8852,9880,-7823,-1630,4497,32000,-17000,154000,217908,
6596,7996,11032,-7347,1680,4738,29000,-18000,156000,217952,
6616,8188,11108,-7340,1923,4798,29000,-18000,156000,217954,
6660,8368,11160,-7368,2100,4844,29000,-18000,156000,217957,
7204,9200,10952,-8425,3502,4443,28000,-18000,156000,217969,
7180,9180,10960,-8594,3709,4257,28000,-18000,156000,217971,
7232,9228,11096,-8814,3914,4109,28000,-18000,157000,217973,
7160,8352,11664,-9795,5373,2829,27000,-18000,157000,217986,
7040,8040,11740,-9978,5673,2639,26000,-18000,157000,217988,
7008,7752,11776,-10105,5981,2480,26000,-17000,157000,217990,
6380,6516,12124,-10522,7331,2162,25000,-17000,158000,218003,
6340,6256,12208,-10586,7643,2151,25000,-17000,158000,218005,
6276,6088,12140,-10621,7809,2168,25000,-17000,158000,218007,
6012,5288,12164,-10705,8887,2437,23000,-16000,159000,218020,
5908,5332,12080,-10617,8992,2489,23000,-16000,159000,218022,
5912,5296,12100,-10644,9176,2529,23000,-16000,159000,218024,
5940,5768,12772,-10428,9504,2707,22000,-15000,159000,218037,
5932,6000,12828,-10410,9516,2717,22000,-15000,159000,218039,
5720,6648,13096,-10871,9945,2480,21000,-14000,160000,218051,
5620,6660,13216,-11017,10019,2415,20000,-14000,160000,218053,
5512,6684,13232,-11212,10144,2289,20000,-14000,160000,218056,
3912,1076,14528,-11663,9419,726,15000,-11000,162000,218105,
3960,856,14668,-11406,9510,839,15000,-11000,162000,218107,
3956,940,14720,-11147,9531,994,15000,-11000,162000,218109,
3984,2096,15380,-8989,9509,1861,14000,-10000,162000,218122,
3820,2600,15400,-8714,9396,1989,13000,-10000,162000,218124,
3688,3008,15492,-8467,9339,2078,13000,-9000,162000,218126,
2936,4904,16008,-7952,8297,1840,12000,-9000,163000,218138,
2732,5104,16076,-7999,8088,1641,12000,-9000,163000,218141,
2540,5308,16100,-8027,7787,1477,12000,-8000,163000,218143,
1552,5488,15972,-9269,5342,202,11000,-8000,163000,218155,
1340,5336,16004,-9485,4818,-41,11000,-8000,163000,218157,
1124,5068,16088,-9714,4254,-130,11000,-8000,163000,218160,
592,3096,16296,-10880,1745,-313,10000,-8000,163000,218172,
576,2884,16400,-11006,1376,-181,10000,-8000,163000,218174,
580,2564,16408,-11124,1089,-36,10000,-8000,163000,218177,
1064,1032,17292,-10932,-96,1191,9000,-8000,163000,218189,
1188,900,17408,-10767,-249,1443,8000,-8000,163000,218191,
1428,776,17584,-10508,-383,1590,8000,-8000,163000,218193,
2580,1268,18744,-9041,-1198,2155,7000,-8000,163000,218206,
2788,1544,18812,-8822,-1376,2189,7000,-8000,163000,218208,
3068,1792,18764,-8641,-1479,2213,7000,-8000,163000,218210,
4444,3988,19892,-9552,-1715,1606,5000,-8000,164000,218241,
4512,3912,19904,-9695,-1555,1551,5000,-8000,164000,218243,
4764,3688,20104,-9790,-1431,1522,4000,-8000,164000,218245,
5108,1868,20092,-10356,-95,1128,3000,-8000,164000,218258,
5156,1528,20044,-10234,119,1071,3000,-8000,164000,218260,
5136,1408,20096,-10212,429,1022,3000,-8000,164000,218262,
4820,120,20332,-9172,1891,877,2000,-8000,164000,218275,
4832,144,20304,-8971,2055,913,2000,-8000,164000,218277,
4624,104,20400,-8735,2275,920,2000,-8000,164000,218279,
4308,1004,20576,-7589,3141,1291,1000,-8000,164000,218291,
4128,1164,20596,-7525,3299,1322,1000,-8000,164000,218294,
4168,1548,20516,-7398,3319,1358,1000,-8000,164000,218296,
4060,2164,20832,-7347,3594,1213,0,-7000,164000,218308,
4040,2120,20840,-7351,3601,1125,0,-7000,164000,218310,
4108,2128,20800,-7419,3659,1015,0,-7000,164000,218313,
3904,1248,20840,-7480,3964,461,0,-7000,164000,218325,
3848,1116,20816,-7465,4041,348,0,-7000,164000,218327,
3848,852,20792,-7370,4153,289,0,-7000,164000,218329,
3692,532,20960,-7257,4169,291,0,-7000,164000,218332,
3572,-276,20668,-6445,4619,227,-1000,-6000,165000,218344,
3628,-304,20836,-6275,4654,295,-1000,-6000,165000,218346,
2888,1216,19088,-4955,5307,50,-2000,-5000,164000,218388,
2992,1128,19236,-5027,5289,6,-2000,-5000,164000,218391,
2912,1244,19260,-5058,5366,-67,-3000,-4000,164000,218393,
2564,660,19032,-4984,5327,-114,-3000,-4000,164000,218405,
2668,536,18900,-4951,5357,-124,-3000,-4000,164000,218408,
2512,468,18912,-4879,5282,-83,-3000,-4000,164000,218410,
