Ax,Ay,Az,Gx,Gy,Gz,Roll,Pitch,Yaw,Timestamp,Target
-8412,-4060,12728,-480,14,71,-24000,33000,158000,800840,
-8532,-4060,12784,-489,-77,95,-24000,33000,158000,800842,
-8440,-4044,12904,-582,-147,83,-24000,33000,158000,800855,
-8300,-4148,12904,-625,-144,93,-24000,33000,158000,800857,
-8336,-4132,12980,-656,-146,100,-24000,33000,158000,800860,
-8220,-4204,13016,-782,-37,144,-24000,33000,158000,800873,
-8116,-4184,13076,-784,41,130,-24000,33000,158000,800875,
-8220,-4256,12928,-758,41,138,-24000,33000,158000,800878,
-8280,-4220,13096,-848,276,200,-24000,33000,158000,800890,
-8264,-4300,12988,-842,267,203,-24000,33000,158000,800893,
-8136,-4400,13024,-869,281,236,-24000,33000,158000,800895,
-8348,-4324,13188,-883,240,255,-24000,33000,158000,800908,
-8456,-4300,13104,-910,219,220,-24000,33000,158000,800910,
-8444,-4328,13124,-872,170,229,-24000,33000,158000,800913,
-8476,-4340,13168,-922,-165,248,-24000,33000,158000,800925,
-8524,-4332,13028,-911,-244,203,-24000,33000,158000,800928,
-8436,-4284,13068,-938,-315,234,-24000,33000,158000,800930,
-8092,-4312,13120,-922,-530,177,-24000,33000,158000,800943,
-8132,-4304,13220,-961,-516,195,-24000,33000,158000,800946,
-8056,-4300,13304,-917,-490,159,-24000,33000,158000,800948,
-7792,-4416,13132,-981,-316,163,-24000,33000,158000,800961,
-7876,-4340,13328,-940,-299,134,-24000,33000,158000,800963,
-7816,-4316,13272,-967,-230,175,-24000,33000,158000,800966,
-7796,-4316,13316,-939,13,142,-24000,33000,158000,800979,
-7720,-4252,13272,-952,75,146,-24000,33000,158000,800981,
-7804,-4376,13472,-918,118,115,-24000,33000,158000,800984,
-8060,-4352,13376,-914,17,55,-24000,33000,158000,800996,
-8112,-4316,13420,-895,-50,39,-24000,33000,158000,800999,
-8028,-4392,13452,-930,-123,47,-24000,33000,158000,801001,
-7964,-4244,13508,-884,-456,-79,-25000,33000,159000,801014,
-7940,-4340,13292,-909,-471,-87,-25000,33000,159000,801017,
-8036,-4288,13376,-891,-498,-119,-25000,33000,159000,801019,
-7912,-4412,13456,-856,-600,-138,-25000,33000,159000,801032,
-7792,-4400,13448,-775,-639,-175,-25000,33000,159000,801034,
-7916,-4424,13528,-792,-639,-177,-25000,33000,159000,801037,
-7708,-4360,13780,-674,-536,-293,-25000,33000,159000,801049,
-7628,-4372,13568,-678,-481,-304,-25000,33000,159000,801052,
-7764,-4352,13572,-680,-448,-350,-25000,33000,159000,801054,
-7784,-4232,13552,-656,-348,-338,-25000,33000,159000,801067,
-7792,-4216,13584,-632,-338,-379,-25000,33000,159000,801070,
-7788,-4392,13632,-614,-421,-387,-25000,33000,159000,801072,
-8276,-4132,13508,-618,-1194,-493,-25000,32000,159000,801089,
-8324,-4164,13448,-591,-1444,-523,-25000,32000,159000,801091,
-8452,-4224,13480,-604,-1788,-580,-25000,32000,159000,801094,
-8912,-4260,13412,-503,-3751,-843,-25000,32000,159000,801106,
-8972,-4204,13416,-542,-4226,-878,-25000,32000,159000,801109,
-9068,-4080,13404,-540,-4672,-955,-25000,32000,159000,801111,
-8928,-4072,13440,-572,-7120,-1254,-24000,31000,159000,801124,
-8612,-4060,13420,-586,-7543,-1326,-24000,31000,159000,801126,
-8432,-4068,13412,-574,-7917,-1399,-24000,31000,159000,801129,
-7044,-4108,13860,-601,-8939,-1663,-24000,30000,159000,801142,
-6784,-4056,13836,-635,-8938,-1689,-24000,30000,160000,801144,
-6516,-4152,13988,-584,-8982,-1792,-24000,30000,160000,801147,
-5600,-4308,14408,-488,-8193,-1842,-24000,29000,160000,801159,
-5532,-4332,14352,-451,-7908,-1831,-24000,29000,160000,801162,
-5436,-4360,14512,-402,-7673,-1803,-24000,28000,160000,801164,
-5420,-4432,14744,-284,-6208,-1724,-24000,28000,160000,801177,
-5520,-4372,14532,-273,-5899,-1731,-24000,28000,160000,801180,
-5536,-4452,14552,-297,-5664,-1747,-24000,28000,160000,801182,
-5692,-4400,14316,-176,-4793,-1840,-24000,27000,160000,801195,
-5664,-4364,14448,-190,-4644,-1860,-24000,27000,160000,801197,
-5828,-4328,14412,-134,-4550,-1862,-24000,27000,160000,801199,
-5808,-4484,14520,-88,-3936,-1965,-24000,26000,160000,801212,
-5984,-4520,14632,-83,-3826,-1945,-24000,26000,160000,801215,
-5932,-4520,14376,-94,-3696,-1940,-24000,26000,160000,801217,
-5752,-4612,14600,13,-3047,-1884,-24000,26000,160000,801230,
-5904,-4556,14652,17,-2858,-1909,-24000,26000,160000,801232,
-5864,-4532,14656,70,-2747,-1924,-24000,26000,160000,801234,
-5952,-4812,14848,114,-1891,-1873,-24000,25000,160000,801247,
-6028,-4824,14892,149,-1729,-1882,-24000,25000,160000,801250,
-6016,-4900,14720,297,-807,-1801,-24000,25000,160000,801262,
-6132,-4912,14700,321,-690,-1750,-24000,25000,160000,801265,
-5924,-4972,14644,307,-525,-1727,-24000,25000,160000,801267,
-6324,-4972,14624,402,232,-1572,-24000,25000,160000,801280,
-6372,-5112,14704,395,384,-1560,-24000,25000,160000,801282,
-6436,-4876,14672,458,519,-1534,-24000,25000,160000,801285,
-6700,-4884,14524,496,1008,-1399,-24000,25000,159000,801297,
-6652,-4904,14520,542,1054,-1377,-24000,25000,159000,801300,
-6680,-4828,14376,502,1093,-1340,-24000,25000,159000,801302,
-6868,-4836,14468,523,1143,-1210,-24000,25000,159000,801315,
-6924,-4816,14396,466,1165,-1147,-24000,25000,159000,801317,
-6920,-4804,14280,481,1186,-1186,-24000,25000,159000,801320,
-7112,-4820,14336,438,1026,-1070,-24000,25000,159000,801332,
-7116,-4732,14148,449,971,-1040,-24000,25000,159000,801335,
-7124,-4688,13980,399,926,-986,-24000,25000,159000,801337,
-6988,-4624,14004,298,772,-893,-24000,25000,159000,801350,
-6932,-4600,13932,261,786,-869,-24000,25000,159000,801352,
-6916,-4588,13852,242,845,-853,-24000,25000,159000,801355,
-6900,-4500,13800,132,1071,-638,-24000,25000,159000,801367,
-6856,-4600,13788,134,1114,-618,-24000,25000,159000,801370,
-6864,-4592,14036,83,1117,-549,-24000,25000,159000,801372,
-6796,-4516,13784,-20,1303,-385,-24000,25000,159000,801385,
-6944,-4328,13756,-43,1275,-366,-24000,25000,159000,801387,
-6956,-4516,13824,-91,1306,-325,-24000,25000,159000,801390,
-7088,-4456,13568,-243,1173,-93,-24000,26000,159000,801402,
-7200,-4440,13672,-292,1181,-93,-24000,26000,159000,801405,
-7092,-4292,13612,-261,1106,-80,-24000,26000,159000,801407,
-6992,-4404,13660,-453,1009,106,-24000,26000,159000,801420,
-6888,-4308,13696,-449,941,155,-24000,26000,159000,801422,
-6936,-4372,13796,-590,862,282,-24000,26000,159000,801435,
-6924,-4288,13584,-616,812,346,-24000,26000,159000,801438,
-6840,-4344,13704,-652,772,352,-24000,26000,159000,801440,
-6916,-4352,13572,-736,528,469,-24000,26000,159000,801453,
-6976,-4400,13808,-780,488,489,-24000,26000,159000,801455,
-6908,-4244,13676,-747,464,479,-24000,26000,159000,801457,
-6728,-4252,13908,-847,271,528,-24000,26000,159000,801470,
-6716,-4260,13812,-848,250,553,-24000,26000,159000,801472,
-6616,-4312,13680,-891,208,572,-24000,26000,159000,801475,
-6472,-4336,13836,-910,137,574,-24000,26000,159000,801488,
-6444,-4204,14028,-934,145,619,-24000,26000,159000,801490,
-6564,-4344,14040,-977,188,600,-24000,26000,159000,801492,
-6424,-4400,14052,-1041,157,606,-24000,26000,159000,801505,
-6420,-4420,13980,-1013,186,592,-24000,26000,159000,801507,
-6400,-4312,13912,-1036,179,605,-24000,26000,159000,801510,
-6240,-4308,14032,-1091,363,584,-24000,26000,159000,801522,
-6136,-4292,14000,-1154,393,593,-24000,26000,159000,801525,
-6104,-4332,14208,-1160,437,590,-24000,26000,159000,801527,
-6364,-4488,14332,-1160,544,613,-24000,26000,159000,801540,
-6360,-4556,14304,-1139,616,612,-24000,26000,159000,801542,
-6488,-4456,14240,-1140,578,605,-24000,26000,159000,801545,
-6604,-4796,14476,-1077,493,622,-24000,26000,159000,801558,
-6616,-4640,14436,-1125,454,634,-24000,26000,159000,801560,
-6740,-4684,14428,-1085,457,602,-24000,26000,159000,801562,
-6628,-4668,14524,-1096,310,628,-24000,26000,159000,801575,
-6676,-4808,14544,-1097,302,610,-24000,26000,159000,801578,
-6660,-4752,14412,-1053,244,640,-24000,26000,159000,801580,
-6588,-4776,14576,-972,239,616,-24000,26000,159000,801593,
-6660,-4780,14616,-966,233,652,-24000,26000,159000,801595,
-6580,-4732,14664,-990,221,673,-24000,26000,159000,801597,
-6384,-4712,14524,-886,282,653,-24000,26000,159000,801610,
-6416,-4596,14584,-908,332,639,-24000,26000,159000,801612,
-6368,-4676,14564,-855,349,605,-24000,26000,159000,801615,
-6528,-4644,14592,-809,320,577,-24000,26000,160000,801628,
-6480,-4604,14472,-791,258,612,-24000,26000,160000,801630,
-6608,-4620,14636,-802,242,602,-24000,26000,160000,801632,
-6588,-4668,14696,-703,123,599,-24000,26000,160000,801645,
-6576,-4636,14504,-757,97,589,-24000,26000,160000,801647,
-6676,-4612,14448,-705,96,568,-24000,26000,160000,801650,
-6424,-4488,14288,-704,1,524,-24000,26000,160000,801663,
-6408,-4592,14392,-644,-32,543,-24000,26000,160000,801665,
-6420,-4592,14440,-690,-30,538,-24000,26000,160000,801667,
-6312,-4588,14524,-644,7,516,-24000,26000,160000,801680,
-6412,-4624,14416,-648,21,538,-24000,26000,160000,801682,
-6472,-4496,14348,-634,124,480,-24000,26000,160000,801685,
-6480,-4460,14340,-642,137,485,-24000,26000,160000,801697,
-6340,-4480,14300,-581,171,478,-24000,26000,160000,801700,
-6392,-4400,14208,-631,125,473,-24000,26000,160000,801702,
-6480,-4600,14428,-597,135,386,-24000,26000,160000,801715,
-6476,-4548,14324,-659,169,413,-24000,26000,160000,801717,
-6508,-4712,14396,-659,168,406,-24000,26000,160000,801720,
-6680,-4724,14472,-629,56,383,-24000,26000,160000,801733,
-6648,-4796,14380,-670,61,364,-24000,26000,160000,801735,
-6564,-4728,14304,-621,10,366,-24000,26000,160000,801737,
-6568,-4784,14212,-616,-37,364,-24000,26000,160000,801750,
-6524,-4748,14224,-601,-105,372,-24000,26000,160000,801752,
-6604,-4740,14164,-649,-84,381,-24000,26000,160000,801755,
-6548,-4808,14124,-611,-86,379,-24000,26000,160000,801767,
-6432,-4744,14284,-636,-49,362,-24000,26000,160000,801770,
-6556,-4764,14340,-599,-61,350,-24000,26000,160000,801772,
-6380,-4776,14076,-636,-62,336,-24000,26000,160000,801785,
-6532,-4688,14304,-588,-52,364,-24000,26000,160000,801787,
-6560,-4748,14228,-632,-70,359,-24000,26000,160000,801790,
-6484,-4752,14128,-622,-30,396,-24000,26000,160000,801802,
-6388,-4596,14156,-685,-21,382,-24000,26000,160000,801805,
-6420,-4648,14056,-676,13,384,-24000,26000,160000,801807,
-6368,-4676,14148,-713,52,360,-24000,26000,160000,801820,
-6380,-4684,14028,-697,92,337,-24000,26000,160000,801822,
-6396,-4656,13940,-694,58,365,-24000,26000,160000,801825,
-6464,-4740,13852,-757,145,324,-24000,26000,160000,801837,
-6384,-4708,13908,-738,83,345,-24000,26000,161000,801840,
-6452,-4768,13812,-759,62,336,-24000,26000,161000,801842,
-6452,-4712,13980,-797,-11,332,-24000,26000,161000,801855,
-6596,-4720,14064,-837,-1,333,-24000,26000,161000,801857,
-6576,-4608,14024,-784,-30,288,-24000,26000,161000,801859,
-6572,-4784,14152,-844,-70,249,-24000,26000,161000,801872,
-6448,-4832,14152,-839,-89,250,-24000,26000,161000,801875,
-6404,-4800,13996,-844,-79,251,-24000,26000,161000,801877,
-6324,-4724,13908,-833,65,249,-24000,26000,161000,801890,
-6336,-4756,14056,-842,111,271,-24000,26000,161000,801892,
-6300,-4784,14268,-812,308,276,-24000,26000,161000,801905,
-6328,-4748,14144,-829,366,268,-24000,26000,161000,801907,
-6332,-4800,14244,-768,377,238,-24000,26000,161000,801909,
-6480,-4764,14320,-817,448,255,-24000,26000,161000,801922,
-6480,-4760,14068,-805,395,260,-25000,26000,161000,801925,
-6552,-4728,14196,-816,386,238,-25000,26000,161000,801927,
-6504,-4676,14248,-759,333,236,-25000,26000,161000,801940,
-6516,-4568,14340,-810,333,246,-25000,26000,161000,801942,
-6596,-4632,14200,-750,332,236,-25000,26000,161000,801945,
-6716,-4648,14192,-784,289,233,-25000,26000,161000,801957,
-6576,-4620,14344,-722,233,240,-25000,26000,161000,801960,
-6640,-4704,14244,-784,206,273,-25000,26000,161000,801962,
-6644,-4800,14300,-665,98,298,-25000,26000,161000,801975,
-6660,-4784,14276,-704,107,267,-25000,26000,161000,801977,
-6600,-4640,14348,-686,131,272,-25000,26000,161000,801979,
-6464,-4572,14324,-641,108,282,-25000,26000,161000,801992,
-6416,-4576,14536,-639,137,280,-25000,26000,161000,801994,
-6336,-4612,14308,-604,145,294,-25000,26000,161000,801997,
-6304,-4604,14412,-565,365,311,-25000,26000,161000,802009,
-6420,-4700,14420,-548,395,347,-25000,26000,161000,802012,
-6316,-4640,14240,-563,443,322,-25000,26000,161000,802014,
-6380,-4612,14324,-498,514,319,-25000,26000,161000,802027,
-6504,-4484,14320,-472,546,292,-25000,26000,161000,802029,
-6424,-4428,14468,-456,492,315,-25000,26000,161000,802032,
-6600,-4544,14156,-434,422,242,-25000,27000,161000,802044,
-6616,-4556,14224,-413,321,230,-25000,27000,161000,802047,
-6556,-4512,14256,-414,301,239,-25000,27000,161000,802049,
-6500,-4592,14400,-386,226,228,-25000,27000,161000,802062,
-6580,-4464,14352,-378,248,206,-25000,27000,161000,802064,
-6532,-4624,14224,-349,276,186,-25000,27000,161000,802067,
-6284,-4560,14204,-315,342,180,-25000,27000,161000,802079,
-6408,-4556,14344,-256,328,171,-25000,27000,161000,802082,
-6476,-4700,14232,-321,286,181,-25000,27000,161000,802084,
-6656,-4680,14296,-194,349,148,-25000,27000,161000,802097,
-6568,-4696,14188,-261,325,157,-25000,27000,161000,802099,
-6504,-4580,14256,-221,372,137,-24000,27000,161000,802102,
-6612,-4636,14196,-220,294,154,-24000,27000,161000,802114,
-6572,-4644,14244,-195,336,112,-24000,27000,161000,802117,
-6588,-4720,14120,-205,290,164,-24000,27000,161000,802119,
-6364,-4660,14176,-192,332,93,-24000,27000,161000,802132,
-6492,-4712,14356,-212,334,104,-24000,27000,161000,802134,
-6464,-4580,14140,-242,357,116,-24000,27000,161000,802136,
-6484,-4592,13988,-249,377,94,-24000,27000,161000,802149,
-6536,-4604,13952,-217,419,78,-24000,27000,161000,802151,
-6508,-4672,13932,-192,369,103,-24000,27000,161000,802154,
-6620,-4720,14048,-206,360,72,-24000,27000,161000,802167,
-6620,-4800,14168,-238,276,82,-24000,27000,161000,802169,
-6660,-4768,14124,-219,299,75,-24000,27000,161000,802171,
-6496,-4764,13920,-234,293,60,-24000,27000,161000,802184,
-6604,-4684,14108,-263,308,73,-24000,27000,161000,802186,
-6456,-4732,14000,-220,305,69,-24000,27000,161000,802189,
-6472,-4836,14052,-284,487,72,-24000,27000,161000,802201,
-6496,-4620,14144,-235,436,37,-24000,27000,161000,802204,
-6436,-4724,13940,-296,464,74,-24000,27000,161000,802206,
-6608,-4676,14060,-307,424,35,-24000,27000,161000,802219,
-6588,-4672,14160,-337,445,47,-24000,27000,161000,802221,
-6524,-4720,14060,-325,443,-7,-24000,27000,161000,802224,
-6648,-4796,14008,-380,415,-2,-24000,27000,161000,802236,
-6596,-4716,13960,-342,371,-16,-24000,27000,161000,802239,
-6684,-4784,13992,-397,356,23,-24000,27000,161000,802241,
-6656,-4752,13980,-398,314,-26,-24000,27000,161000,802254,
-6660,-4804,13988,-428,321,-3,-24000,27000,161000,802256,
-6412,-4808,13868,-475,348,-18,-24000,27000,161000,802258,
-6528,-4652,13876,-516,307,-19,-24000,27000,161000,802271,
-6576,-4608,13940,-521,330,-53,-24000,27000,161000,802274,
-6460,-4760,13896,-524,332,-54,-24000,27000,161000,802276,
-6616,-4584,13852,-557,375,-66,-24000,27000,161000,802289,
-6496,-4732,13948,-580,357,-57,-24000,27000,161000,802291,
-6572,-4728,13892,-605,392,-69,-24000,27000,161000,802293,
-6436,-4652,13824,-650,418,-132,-24000,27000,161000,802306,
-6576,-4772,13936,-657,442,-128,-24000,27000,161000,802308,
-6540,-4732,13908,-622,464,-171,-24000,27000,161000,802311,
-6556,-4676,13924,-693,505,-203,-25000,27000,161000,802324,
-6680,-4620,14188,-706,514,-174,-25000,27000,161000,802326,
-6644,-4780,13976,-713,515,-199,-25000,27000,161000,802328,
-6724,-4700,13856,-724,516,-159,-25000,27000,161000,802341,
-6520,-4720,13924,-747,549,-188,-25000,27000,161000,802344,
-6460,-4736,13932,-712,544,-208,-25000,27000,161000,802346,
-6672,-4724,14052,-742,588,-211,-25000,27000,161000,802359,
-6616,-4572,14016,-694,549,-192,-25000,27000,161000,802361,
-6656,-4720,13996,-747,566,-191,-25000,27000,161000,802364,
-6524,-4668,14088,-702,597,-187,-25000,27000,161000,802376,
-6520,-4736,14096,-731,606,-176,-25000,27000,161000,802379,
-6524,-4724,14100,-695,655,-188,-25000,27000,161000,802381,
-6576,-4556,14044,-710,720,-163,-25000,27000,161000,802394,
-6584,-4664,14104,-688,720,-183,-25000,27000,161000,802396,
-6732,-4624,14124,-696,663,-205,-25000,27000,161000,802409,
-6564,-4656,14172,-675,624,-179,-25000,27000,161000,802411,
-6744,-4668,14036,-733,581,-188,-25000,27000,161000,802414,
-6728,-4692,14132,-677,460,-231,-25000,27000,161000,802426,
-6732,-4716,14076,-678,465,-245,-25000,27000,161000,802429,
-6676,-4748,14096,-651,463,-241,-25000,27000,161000,802431,
-6636,-4756,14156,-639,410,-258,-25000,27000,161000,802444,
-6620,-4684,14304,-624,373,-279,-25000,27000,161000,802446,
-6660,-4788,14272,-651,338,-261,-25000,27000,161000,802449,
-6724,-4752,14380,-558,357,-266,-25000,27000,161000,802461,
-6720,-4812,14324,-601,378,-284,-25000,27000,161000,802464,
-6784,-4772,14232,-554,431,-299,-25000,27000,161000,802466,
-6684,-4872,14224,-505,459,-254,-25000,27000,161000,802479,
-6716,-4844,14216,-454,463,-272,-25000,27000,161000,802481,
-6588,-4744,14260,-463,484,-259,-25000,27000,161000,802484,
-6624,-4696,14112,-410,544,-267,-25000,27000,161000,802496,
-6540,-4792,14220,-402,551,-274,-25000,27000,161000,802499,
-6672,-4768,14168,-375,569,-265,-25000,27000,161000,802501,
-6664,-4564,14056,-383,517,-269,-25000,27000,161000,802514,
-6796,-4740,14288,-365,481,-280,-25000,27000,161000,802516,
-6776,-4592,14096,-392,479,-286,-25000,27000,161000,802519,
-6760,-4640,14124,-395,412,-237,-25000,27000,161000,802531,
-6704,-4684,14168,-376,387,-239,-25000,27000,161000,802534,
-6740,-4640,13964,-377,376,-300,-25000,27000,161000,802536,
-6644,-4612,14240,-418,334,-357,-25000,27000,161000,802549,
-6704,-4604,14236,-358,368,-356,-25000,27000,161000,802551,
-6784,-4680,14144,-424,468,-308,-25000,27000,161000,802554,
-6600,-4808,14100,-360,643,-301,-25000,27000,161000,802566,
-6576,-4776,14168,-355,663,-302,-25000,27000,161000,802569,
-6536,-4736,14048,-329,682,-346,-25000,27000,161000,802571,
-6816,-4724,14112,-303,687,-287,-25000,27000,161000,802584,
-6880,-4724,14108,-241,640,-295,-25000,27000,161000,802586,
-6904,-4700,13960,-273,588,-276,-25000,27000,161000,802589,
-6976,-4756,14180,-203,402,-335,-25000,27000,161000,802601,
-6928,-4828,13972,-249,361,-325,-25000,27000,161000,802604,
-6880,-4808,14028,-218,332,-373,-25000,27000,161000,802606,
-6676,-4748,14052,-231,326,-363,-25000,27000,161000,802619,
-6664,-4692,14104,-186,371,-345,-25000,27000,161000,802621,
-6672,-4760,14112,-206,389,-306,-25000,27000,161000,802624,
-6716,-4756,14108,-156,619,-308,-25000,27000,161000,802636,
-6704,-4808,14212,-155,619,-299,-25000,27000,161000,802639,
-6844,-4796,14176,-162,628,-311,-25000,27000,161000,802641,
-6992,-4576,14304,-185,621,-267,-25000,27000,161000,802654,
-6956,-4756,14060,-199,634,-285,-25000,27000,161000,802656,
-7040,-4632,14232,-146,602,-287,-25000,27000,160000,802659,
-7040,-4664,14204,-220,436,-255,-25000,27000,160000,802672,
-7080,-4688,14004,-177,369,-255,-25000,27000,160000,802674,
-7096,-4632,14120,-214,337,-215,-25000,27000,160000,802676,
-6952,-4528,13996,-212,197,-194,-25000,27000,160000,802689,
-6888,-4576,13988,-217,229,-209,-25000,27000,160000,802692,
-6912,-4580,14160,-211,247,-194,-25000,27000,160000,802694,
-6944,-4524,14108,-193,288,-147,-25000,27000,160000,802707,
-6800,-4624,14240,-228,289,-129,-25000,27000,160000,802709,
-6948,-4568,14216,-167,291,-47,-25000,27000,160000,802722,
-7060,-4616,14144,-202,348,-54,-25000,27000,160000,802724,
-7140,-4600,14192,-164,330,-47,-25000,27000,160000,802727,
-7108,-4684,14104,-173,190,7,-25000,27000,160000,802739,
-7168,-4696,14140,-156,82,-7,-25000,27000,160000,802742,
-7136,-4616,14280,-192,39,26,-25000,27000,160000,802744,
-7280,-4732,14260,-145,-236,31,-25000,27000,161000,802757,
-7220,-4752,14260,-164,-272,48,-25000,27000,161000,802759,
-7208,-4788,14224,-145,-263,27,-25000,27000,161000,802761,
-6912,-4764,14156,-127,-330,104,-25000,27000,161000,802774,
-6940,-4748,13960,-73,-297,90,-25000,27000,161000,802776,
-6760,-4532,14112,-95,-292,124,-25000,27000,161000,802779,
-6732,-4512,14088,-59,-172,113,-25000,27000,161000,802791,
-6628,-4524,13992,-107,-184,121,-25000,27000,161000,802794,
-6844,-4544,14136,-111,-143,115,-25000,27000,161000,802796,
-6728,-4580,13892,-137,-100,114,-25000,27000,161000,802809,
-6796,-4592,13956,-102,-85,104,-25000,27000,161000,802811,
-6852,-4524,13932,-95,-108,139,-25000,27000,161000,802814,
-6788,-4684,13940,-103,-234,130,-25000,27000,161000,802826,
-6884,-4572,13856,-138,-289,154,-25000,27000,161000,802829,
-6740,-4596,13880,-172,-277,148,-25000,27000,161000,802831,
-6588,-4420,13832,-213,-483,150,-25000,27000,161000,802844,
-6728,-4568,13884,-212,-494,117,-25000,27000,161000,802846,
-6752,-4652,13816,-200,-503,135,-25000,27000,161000,802849,
-6512,-4644,13956,-237,-409,99,-25000,27000,161000,802861,
-6436,-4712,13832,-274,-424,110,-25000,27000,161000,802864,
-6380,-4584,13924,-303,-386,72,-25000,27000,161000,802866,
-6320,-4548,13812,-349,-293,75,-25000,27000,161000,802879,
-6308,-4568,13676,-386,-216,21,-25000,27000,161000,802881,
-6344,-4544,13772,-378,-208,37,-25000,27000,161000,802884,
-6380,-4528,13564,-485,-81,-86,-25000,27000,161000,802896,
-6452,-4444,13560,-479,-140,-82,-25000,27000,161000,802899,
-6356,-4492,13652,-533,-87,-106,-25000,27000,161000,802901,
-6308,-4316,13624,-624,-154,-235,-25000,27000,161000,802914,
-6316,-4356,13644,-666,-131,-258,-25000,27000,161000,802916,
-6400,-4176,13716,-663,-152,-276,-25000,27000,161000,802919,
-6312,-3924,13688,-919,-191,-319,-25000,27000,161000,802931,
-6308,-4036,13784,-926,-249,-357,-25000,27000,161000,802934,
-6288,-3876,13768,-1008,-267,-320,-25000,27000,161000,802936,
-6528,-3740,13824,-1311,-407,-374,-25000,27000,161000,802949,
-6532,-3728,13844,-1360,-419,-391,-25000,27000,161000,802951,
-6660,-3708,14068,-1409,-445,-390,-25000,27000,161000,802954,
-7056,-3964,14372,-1709,-700,-367,-25000,26000,161000,802966,
-7044,-3796,14244,-1708,-788,-324,-25000,26000,161000,802969,
-7060,-4048,14500,-1775,-848,-295,-25000,26000,161000,802971,
-7320,-4112,14652,-1929,-1212,-60,-25000,26000,161000,802984,
-7408,-4100,14872,-1975,-1282,-19,-25000,26000,161000,802986,
-7476,-4092,14892,-2007,-1366,17,-25000,26000,161000,802989,
-8000,-3892,15460,-2166,-1842,349,-25000,26000,161000,803002,
-8044,-4104,15540,-2145,-1954,395,-25000,26000,161000,803004,
-8028,-3936,15736,-2193,-2036,473,-25000,26000,161000,803006,
-7980,-3712,16740,-2220,-2212,854,-25000,26000,162000,803019,
-7916,-3720,16848,-2223,-2222,939,-25000,26000,162000,803022,
-7984,-3648,17144,-2200,-2173,1006,-25000,26000,162000,803024,
-8200,-3240,18408,-1866,-2071,1645,-25000,26000,162000,803037,
-8200,-3228,18640,-1776,-2044,1752,-25000,26000,162000,803039,
-8296,-3224,18864,-1680,-2124,1915,-25000,26000,162000,803041,
-8196,-3060,20072,-1021,-2551,2455,-25000,26000,163000,803054,
-8108,-2980,20412,-897,-2678,2593,-25000,25000,163000,803057,
-8100,-2972,20652,-736,-2796,2744,-25000,25000,163000,803059,
-7912,-2284,22332,185,-3043,3464,-25000,25000,163000,803072,
-7900,-2204,22612,386,-3045,3550,-25000,25000,163000,803074,
-7944,-2088,22920,670,-3061,3650,-24000,25000,163000,803076,
-7496,-2588,24828,2118,-2954,3944,-24000,25000,164000,803089,
-8012,-2608,25480,2428,-2898,3984,-24000,25000,164000,803092,
-8276,-2548,25976,2677,-2675,4069,-24000,25000,164000,803094,
-9176,-2768,27268,4661,-2733,5198,-23000,25000,165000,803107,
-9404,-2728,27304,5035,-2713,5424,-23000,25000,165000,803109,
-9572,-2652,28116,7149,-2934,6184,-22000,25000,166000,803122,
-9688,-2712,28016,7583,-2973,6285,-21000,25000,166000,803124,
-9808,-2748,28024,8051,-3105,6416,-21000,25000,166000,803126,
-10424,-2856,27672,10288,-3754,7021,-20000,25000,167000,803139,
-10428,-2832,27568,10703,-3972,7150,-19000,25000,167000,803141,
-10516,-2900,27500,11081,-4152,7273,-19000,25000,167000,803144,
-10684,-2492,26948,13148,-5364,8010,-17000,24000,168000,803157,
-10716,-2340,26784,13514,-5580,8142,-17000,24000,169000,803159,
-10504,-2276,26712,13912,-5794,8246,-17000,24000,169000,803161,
-10208,-1832,26352,15505,-6744,8718,-15000,24000,170000,803174,
-10216,-1920,26332,15770,-6894,8803,-14000,24000,170000,803176,
-9340,-1960,25600,17617,-7604,9443,-11000,23000,172000,803193,
-9192,-1912,25524,17944,-7700,9573,-11000,23000,172000,803195,
-8944,-1852,25160,18166,-7808,9662,-10000,23000,172000,803198,
-8344,-1716,23856,19292,-8167,10142,-8000,22000,173000,803210,
-8152,-1564,23644,19401,-8199,10196,-8000,22000,174000,803213,
-8132,-1496,23416,19560,-8239,10308,-7000,22000,174000,803215,
-7628,-1208,22080,20154,-8796,10602,-5000,21000,175000,803228,
-7628,-1268,21892,20302,-8955,10670,-4000,21000,175000,803230,
-7544,-1168,21780,20429,-9225,10663,-4000,21000,175000,803233,
-7272,-1484,20744,20724,-10399,10709,-1000,20000,177000,803245,
-7212,-1560,20484,20783,-10694,10683,-1000,20000,177000,803248,
-6516,-1780,19296,20990,-11953,10579,0,19000,178000,803260,
-6332,-1776,19388,20955,-12117,10509,1000,18000,178000,803263,
-6228,-1880,19156,20984,-12300,10475,1000,18000,178000,803265,
-5408,-1904,18536,21097,-12594,10140,4000,17000,179000,803278,
-5308,-1900,18460,21136,-12558,10065,4000,17000,179000,803280,
-5060,-1940,18268,21242,-12529,9979,5000,16000,180000,803282,
-4448,-2016,17372,21327,-12127,9469,7000,15000,180000,803295,
-4264,-1964,17188,21379,-11997,9408,7000,15000,181000,803297,
-4196,-1800,16988,21299,-11873,9302,8000,15000,181000,803300,
-3676,-1516,16324,21306,-11041,8844,10000,13000,181000,803313,
-3728,-1540,16092,21242,-10884,8748,10000,13000,181000,803315,
-3752,-1456,15896,21244,-10709,8679,11000,13000,182000,803317,
-4016,-1632,14936,20976,-9989,8192,13000,12000,182000,803330,
-3960,-1704,14776,21048,-9862,8106,13000,12000,182000,803332,
-3936,-1648,14564,20948,-9794,8034,13000,11000,182000,803335,
-3776,-1332,13360,20724,-9540,7642,15000,10000,183000,803347,
-3784,-1220,13372,20572,-9537,7579,16000,10000,183000,803350,
-3652,-1108,13180,20491,-9496,7510,16000,10000,183000,803352,
-3356,-564,12476,19965,-9626,7089,18000,9000,183000,803365,
-3296,-552,12124,19962,-9518,6997,18000,9000,183000,803367,
-3248,-420,11812,19856,-9586,6909,19000,9000,183000,803370,
-2972,-188,11188,19392,-9386,6485,20000,8000,184000,803382,
-2884,-124,11196,19223,-9372,6408,21000,7000,184000,803385,
-2784,-156,10848,19118,-9328,6332,21000,7000,184000,803387,
-1904,540,9964,18502,-8948,5964,23000,6000,184000,803400,
-1992,608,10064,18449,-8822,5877,23000,6000,184000,803402,
-1740,820,9804,18288,-8700,5824,23000,6000,184000,803404,
-1148,1504,10036,17706,-7822,5432,25000,5000,184000,803417,
-1036,1804,9840,17524,-7663,5382,25000,5000,184000,803419,
-876,1772,9812,17358,-7520,5333,26000,5000,184000,803422,
-628,2164,9696,16712,-6328,4973,27000,4000,184000,803434,
-672,2264,9452,16680,-6050,4960,27000,4000,184000,803437,
-576,2292,9532,16589,-5851,4886,28000,4000,184000,803439,
-552,2944,8676,16029,-4801,4702,29000,3000,185000,803452,
-472,3084,8524,15895,-4696,4659,30000,3000,185000,803454,
-544,3396,8256,15687,-4517,4632,30000,3000,185000,803456,
-376,4180,7640,14910,-4387,4350,31000,2000,185000,803469,
-220,4408,7720,14753,-4353,4297,32000,2000,185000,803471,
-280,4588,7400,14672,-4346,4236,32000,2000,185000,803474,
-88,5396,6584,13560,-4191,3975,33000,1000,185000,803486,
-28,5472,6576,13462,-4152,3915,33000,1000,185000,803489,
-8,5656,6352,13195,-4128,3887,34000,1000,185000,803491,
136,6416,5856,12183,-3869,3604,35000,1000,185000,803504,
116,6356,5752,11914,-3811,3568,35000,0,185000,803506,
188,6368,5688,11713,-3750,3500,35000,0,185000,803508,
196,6520,5684,11542,-3744,3479,36000,0,185000,803511,
664,6988,5440,10366,-3574,3208,37000,0,185000,803523,
848,7156,5524,10119,-3594,3167,37000,0,185000,803526,
1020,7364,5608,9852,-3548,3136,37000,0,185000,803528,
1272,7492,5636,8694,-3090,3030,38000,0,185000,803541,
1384,7652,5780,8495,-2933,3021,38000,0,185000,803543,
1456,7608,5788,8351,-2816,3014,38000,0,185000,803545,
1428,7736,5976,8124,-2712,2986,39000,0,185000,803548,
1432,7992,5588,7164,-1978,2942,39000,0,185000,803560,
1420,8080,5812,6975,-1864,2919,39000,-1000,185000,803563,
1348,8124,5692,6775,-1708,2859,40000,-1000,185000,803565,
1152,8568,5160,5783,-1385,2735,40000,-1000,185000,803578,
1332,8616,5164,5596,-1361,2675,40000,-1000,186000,803580,
1268,8728,5148,5386,-1503,2690,41000,-1000,186000,803583,
1560,9300,5156,4278,-2223,2531,41000,-1000,186000,803595,
1640,9324,5360,4035,-2340,2503,41000,-1000,186000,803598,
1776,9416,5420,3796,-2423,2466,41000,-2000,186000,803600,
2516,9736,5388,2822,-2578,2204,42000,-2000,186000,803613,
2508,9736,5544,2636,-2531,2159,42000,-2000,186000,803615,
2680,9844,5812,2481,-2486,2078,42000,-2000,186000,803617,
3244,10012,6336,1575,-1999,1820,42000,-2000,186000,803630,
3212,10072,6280,1444,-1908,1788,42000,-2000,186000,803632,
3384,9972,6304,1297,-1729,1742,42000,-3000,186000,803635,
3364,9912,6788,822,-1124,1445,42000,-3000,186000,803647,
3348,9896,6864,698,-1013,1372,42000,-3000,186000,803650,
3288,9892,7112,639,-894,1266,42000,-3000,186000,803652,
3220,10364,7784,105,-274,821,42000,-3000,186000,803668,
3112,10436,7944,15,-170,753,42000,-3000,186000,803671,
3136,10628,7904,-79,-40,666,42000,-3000,186000,803673,
3156,10596,7988,-99,-29,603,42000,-3000,186000,803676,
3200,11096,8748,-377,321,230,42000,-3000,186000,803688,
3268,11116,8968,-418,292,192,42000,-3000,186000,803691,
3188,11240,9108,-497,323,106,42000,-3000,186000,803693,
3360,11444,9572,-628,474,-287,42000,-3000,186000,803706,
3312,11444,9520,-650,542,-363,42000,-3000,186000,803708,
3320,11528,9696,-617,521,-465,42000,-3000,186000,803710,
3032,11472,9700,-702,805,-916,42000,-3000,186000,803723,
2924,11428,9832,-694,839,-969,42000,-3000,186000,803725,
2904,11448,9616,-698,843,-1032,42000,-3000,186000,803728,
2592,11368,9492,-780,853,-1342,42000,-3000,186000,803740,
2436,11668,9304,-832,897,-1371,42000,-3000,186000,803743,
2328,11480,9176,-866,934,-1448,42000,-3000,186000,803745,
2392,11692,9244,-1065,727,-1565,42000,-3000,186000,803758,
2328,11636,9468,-1069,628,-1589,42000,-3000,186000,803760,
2388,11676,9392,-1180,578,-1567,42000,-3000,186000,803763,
2048,11892,9516,-1428,867,-1473,42000,-3000,185000,803775,
1992,11956,9536,-1468,998,-1443,42000,-3000,185000,803778,
1932,12040,9616,-1513,1121,-1431,42000,-3000,185000,803780,
2016,12028,9636,-1839,1177,-1448,42000,-2000,185000,803792,
1996,12028,9960,-1851,1147,-1434,42000,-2000,185000,803795,
2028,11948,9996,-1956,1106,-1414,42000,-2000,185000,803797,
1672,11556,10308,-2133,1399,-1048,42000,-2000,185000,803810,
1744,11508,10360,-2196,1479,-979,42000,-2000,185000,803812,
1716,11552,10300,-2239,1644,-961,42000,-2000,185000,803815,
2168,11516,9900,-2382,1866,-935,42000,-2000,186000,803827,
2040,11592,9892,-2391,1925,-1010,42000,-2000,186000,803830,
2132,11680,9912,-2403,1909,-1024,41000,-2000,186000,803832,
2164,11644,9688,-2626,2027,-1287,41000,-2000,186000,803845,
2220,11572,9412,-2663,1965,-1255,41000,-2000,186000,803847,
2188,11648,9508,-2727,1976,-1342,41000,-2000,186000,803849,
2020,11428,9092,-2929,2028,-1592,41000,-2000,186000,803862,
2032,11476,8896,-3010,2059,-1674,41000,-1000,186000,803864,
2016,11344,8716,-3041,2009,-1730,41000,-1000,186000,803867,
1880,11248,8496,-3511,1761,-2005,41000,-1000,186000,803879,
1968,11124,8388,-3564,1659,-2021,41000,-1000,186000,803882,
1868,11060,8280,-3741,1653,-2049,41000,-1000,186000,803884,
2212,10896,7612,-4297,1840,-2262,40000,-1000,185000,803897,
2280,10792,7804,-4415,1872,-2294,40000,-1000,185000,803899,
2344,10732,8060,-4481,1878,-2362,40000,-1000,185000,803902,
1948,10152,9884,-4917,1739,-2535,40000,-1000,185000,803914,
1840,10132,10208,-4947,1844,-2571,40000,-1000,185000,803917,
1812,10056,10360,-5004,1974,-2555,39000,0,185000,803919,
1780,10088,10608,-4999,2604,-2583,39000,0,185000,803932,
1692,10036,10556,-5059,2660,-2577,39000,0,185000,803934,
1508,10128,10484,-5044,2749,-2640,39000,0,185000,803937,
1652,10340,10080,-5268,2995,-2727,38000,0,185000,803949,
1572,10332,9928,-5312,3080,-2833,38000,0,185000,803952,
1684,10316,9696,-5369,3067,-2879,38000,0,185000,803954,
1852,9612,9004,-5786,3387,-3526,38000,0,185000,803967,
1924,9412,8688,-5908,3485,-3659,38000,0,185000,803969,
1828,9224,8468,-5999,3640,-3837,37000,0,185000,803971,
1928,8964,8148,-6069,3797,-4009,37000,0,185000,803974,
1804,8060,6424,-6774,5262,-4940,37000,1000,185000,803986,
1648,7728,6100,-6889,5539,-5104,37000,1000,185000,803989,
1600,7544,5904,-7037,5837,-5223,37000,1000,185000,803991,
128,6196,3580,-8208,7729,-6001,36000,2000,185000,804008,
-244,6152,3592,-8342,7843,-6033,36000,2000,185000,804010,
-440,6036,3368,-8587,7996,-6051,35000,3000,185000,804012,
-1872,5376,2540,-9899,7722,-6119,35000,4000,185000,804025,
-1900,5232,2660,-10270,7511,-6101,35000,4000,185000,804027,
-2272,5072,2564,-10636,7304,-6096,34000,4000,185000,804030,
-2880,4484,2676,-12649,5563,-5518,33000,5000,185000,804042,
-2864,4384,2864,-13071,5326,-5398,33000,5000,185000,804045,
-2796,4456,2904,-13378,5014,-5200,33000,5000,185000,804047,
-1592,4584,3320,-15489,4189,-4701,31000,6000,185000,804060,
-1280,4648,3212,-15812,4074,-4644,31000,6000,185000,804062,
-1004,4684,3388,-16267,4106,-4690,31000,6000,185000,804064,
628,4812,4192,-18185,4902,-5326,29000,7000,184000,804077,
680,4848,4404,-18491,5178,-5496,29000,7000,184000,804079,
1052,4732,4656,-18769,5466,-5696,29000,7000,184000,804082,
1468,3748,5116,-20232,7688,-6780,27000,8000,184000,804094,
1348,3536,5572,-20369,8141,-6950,26000,8000,184000,804097,
1372,3528,5884,-20550,8504,-7128,26000,8000,184000,804099,
40,2672,7884,-21353,10277,-7955,24000,9000,184000,804112,
-400,2564,8196,-21543,10577,-8102,23000,10000,184000,804114,
-992,2368,8404,-21740,10882,-8205,23000,10000,184000,804117,
-2108,2220,8856,-22603,11089,-8524,21000,11000,183000,804129,
-2364,2176,9028,-22815,11000,-8609,20000,11000,183000,804132,
-2504,2128,9064,-22990,10846,-8593,20000,12000,183000,804134,
-2992,2276,9156,-23921,10047,-8854,17000,13000,183000,804147,
-3160,2308,9132,-24057,9822,-8889,17000,13000,182000,804149,
-3108,2140,9440,-24241,9677,-8992,16000,13000,182000,804151,
-3684,1344,10492,-24814,8281,-9611,14000,14000,182000,804164,
-3820,1196,10648,-25029,8170,-9848,13000,14000,182000,804166,
-4016,1004,10900,-25090,7971,-9948,13000,15000,181000,804169,
-4900,184,12152,-25549,6699,-10690,10000,16000,180000,804181,
-5096,0,12436,-25531,6413,-10724,9000,16000,180000,804184,
-5256,-68,12776,-25615,6289,-10763,9000,16000,180000,804186,
-5732,-476,15912,-25896,5388,-10964,6000,17000,179000,804199,
-5584,-632,16224,-25959,5309,-11031,5000,17000,179000,804201,
-5600,-796,17080,-25957,5296,-11100,5000,17000,179000,804203,
-4844,-960,18168,-25826,5313,-11127,2000,17000,178000,804216,
-4580,-968,18300,-25726,5400,-11089,1000,17000,177000,804218,
-4456,-916,18732,-25670,5518,-11093,1000,18000,177000,804221,
-4208,-632,20072,-25116,6897,-10985,-1000,18000,176000,804233,
-4340,-556,20124,-25036,7232,-10988,-1000,18000,176000,804236,
-4428,-656,20236,-24943,7567,-11032,-2000,18000,176000,804238,
-5680,-1408,20208,-24236,7998,-10980,-5000,19000,174000,804251,
-5880,-1360,20044,-24111,7828,-11025,-5000,19000,174000,804253,
-7728,-2096,20852,-23694,6443,-10869,-8000,20000,173000,804266,
-8020,-2184,21180,-23573,6057,-10782,-8000,20000,173000,804268,
-8344,-2372,21320,-23495,5633,-10678,-9000,20000,172000,804271,
-9188,-3784,22632,-23015,3383,-10004,-11000,20000,171000,804283,
-9204,-4000,22936,-22957,2907,-9892,-12000,20000,171000,804286,
-9184,-4152,23264,-22892,2562,-9778,-12000,20000,171000,804288,
-8996,-5320,24636,-21811,791,-8697,-15000,20000,170000,804301,
-9032,-5388,24880,-21598,598,-8500,-15000,20000,170000,804303,
-8752,-5588,25324,-21260,363,-8236,-16000,20000,170000,804306,
-7792,-6136,26916,-19754,186,-7197,-18000,20000,169000,804318,
-7596,-6188,26844,-19416,298,-7001,-18000,20000,169000,804321,
-6620,-6276,26716,-17584,1316,-6242,-20000,19000,168000,804333,
-6548,-6164,26660,-17259,1540,-6121,-21000,19000,168000,804336,
-6420,-6224,26732,-16925,1852,-6063,-21000,19000,168000,804338,
-6460,-6240,26120,-15102,3100,-5701,-23000,19000,167000,804351,
-6588,-6292,26040,-14732,3203,-5677,-23000,19000,167000,804353,
-6768,-6384,26208,-14364,3283,-5631,-23000,19000,167000,804356,
-7860,-7020,26288,-12473,3014,-5531,-24000,19000,167000,804368,
-8136,-7284,26128,-12151,2866,-5497,-25000,19000,166000,804371,
-8232,-7396,26032,-11843,2741,-5482,-25000,19000,166000,804373,
-8872,-7904,25328,-10008,1491,-4897,-26000,19000,166000,804386,
-8752,-7816,25208,-9717,1351,-4811,-26000,19000,166000,804388,
-8156,-7640,24860,-8115,740,-4054,-27000,19000,165000,804401,
-7856,-7700,24684,-7788,688,-3924,-27000,19000,165000,804403,
-7796,-7736,24536,-7486,669,-3754,-27000,19000,165000,804406,
-7392,-7900,23312,-5575,1290,-2564,-28000,19000,165000,804422,
-7352,-7736,22980,-5312,1444,-2389,-28000,19000,165000,804424,
-7176,-7900,22852,-5001,1479,-2147,-28000,19000,165000,804427,
-6768,-7316,22004,-3690,1892,-1345,-29000,19000,165000,804440,
-6752,-7264,22032,-3512,2007,-1209,-29000,19000,165000,804442,
-6792,-7148,21720,-3272,2129,-1125,-29000,19000,164000,804444,
-6864,-6980,21016,-2183,2406,-423,-29000,19000,164000,804457,
-6596,-6904,20760,-1930,2354,-346,-29000,19000,164000,804460,
-6580,-6860,20596,-1761,2298,-206,-29000,20000,164000,804462,
-6004,-6404,19712,-794,1848,92,-29000,20000,164000,804475,
-5988,-6224,19232,-659,1801,135,-29000,20000,164000,804477,
-5908,-6084,19156,-512,1795,117,-29000,20000,164000,804480,
-5272,-5712,18328,193,1589,80,-29000,20000,164000,804492,
-5176,-5712,18144,357,1554,8,-29000,20000,164000,804495,
-5240,-5668,17968,472,1539,15,-29000,20000,164000,804497,
-5052,-5516,17248,1013,1390,-169,-29000,20000,164000,804510,
-5048,-5564,17092,1031,1364,-176,-29000,20000,164000,804512,
-4988,-5508,16920,1103,1361,-215,-29000,20000,164000,804515,
-4784,-5424,16280,1437,1253,-321,-29000,20000,164000,804527,
-4720,-5340,16200,1507,1291,-338,-29000,20000,164000,804530,
-4752,-5364,16068,1563,1255,-367,-29000,20000,164000,804532,
-5060,-5504,15696,1739,1338,-382,-28000,20000,164000,804545,
-5152,-5488,15484,1720,1330,-356,-28000,20000,164000,804547,
-5204,-5456,15456,1732,1351,-337,-28000,20000,164000,804549,
-5332,-5616,14912,1741,1216,-209,-28000,20000,164000,804562,
-5228,-5600,14804,1756,1235,-214,-28000,20000,164000,804565,
-5288,-5680,14668,1790,1203,-186,-28000,20000,164000,804567,
-5280,-5696,14500,1684,1263,-71,-28000,20000,164000,804580,
-5304,-5548,14360,1707,1274,-17,-28000,20000,164000,804582,
-5296,-5576,14264,1654,1288,41,-28000,20000,164000,804584,
-5288,-5616,14220,1545,1283,261,-28000,21000,164000,804597,
-5388,-5636,14132,1515,1319,301,-28000,21000,164000,804600,
-5292,-5680,14044,1501,1345,308,-28000,21000,164000,804602,
-5376,-5688,13968,1353,1376,479,-27000,21000,164000,804615,
-5368,-5548,13976,1376,1386,469,-27000,21000,164000,804617,
-5408,-5548,14032,1298,1377,515,-27000,21000,164000,804620,
-5272,-5532,14012,1228,1362,519,-27000,21000,164000,804632,
-5236,-5348,13980,1164,1395,539,-27000,21000,164000,804635,
-5264,-5304,14012,1156,1378,514,-27000,21000,164000,804637,
-5076,-5264,13828,1040,1259,398,-27000,21000,164000,804650,
-5208,-5152,13704,1059,1218,392,-27000,21000,164000,804652,
-5288,-5204,13724,1003,1185,360,-27000,21000,164000,804655,
-5200,-4956,13768,886,1153,228,-27000,21000,164000,804667,
-5228,-5044,13812,843,1130,190,-27000,21000,164000,804670,
-5136,-4868,13684,806,1157,150,-27000,21000,164000,804672,
-5060,-4932,13684,656,1100,32,-27000,21000,164000,804685,
-5204,-5008,13708,661,1142,-18,-27000,21000,164000,804687,
-5032,-5068,13692,685,1094,-12,-27000,21000,164000,804689,
-5160,-5036,13756,548,1210,-80,-27000,21000,164000,804702,
-5240,-5076,13892,518,1170,-90,-27000,21000,164000,804705,
-5248,-5044,14004,488,1165,-73,-27000,21000,164000,804707,
-5300,-4964,13836,354,1334,-107,-27000,22000,163000,804720,
-5424,-5036,13776,312,1395,-113,-27000,22000,163000,804722,
-5368,-5128,13748,361,1444,-137,-27000,22000,163000,804725,
-5480,-5108,13896,214,1398,-149,-26000,22000,163000,804737,
-5524,-5180,13936,259,1352,-152,-26000,22000,163000,804740,
-5648,-5288,13980,191,1340,-130,-26000,22000,163000,804742,
-6112,-5456,13744,129,1194,-12,-26000,22000,163000,804755,
-6132,-5624,13964,100,1182,8,-26000,22000,163000,804757,
-6156,-5516,13952,75,1168,15,-26000,22000,163000,804760,
-6152,-5616,13884,-6,800,102,-26000,22000,163000,804772,
-6260,-5640,14116,-36,807,93,-26000,22000,163000,804775,
-6128,-5584,14100,-44,752,122,-26000,22000,163000,804777,
-6112,-5732,13936,-97,702,269,-26000,22000,163000,804790,
-6024,-5560,13908,-142,674,319,-26000,22000,163000,804792,
-5964,-5752,14024,-175,704,351,-26000,22000,163000,804794,
-5960,-5692,14160,-235,773,556,-26000,22000,163000,804807,
-5984,-5636,13948,-275,841,552,-26000,22000,163000,804810,
-6048,-5584,14116,-261,797,615,-26000,22000,163000,804812,
-5868,-5548,14044,-327,822,693,-26000,22000,163000,804825,
-5860,-5540,13996,-356,750,730,-26000,22000,163000,804827,
-5876,-5548,13916,-381,774,703,-26000,22000,163000,804829,
-5868,-5248,13948,-477,650,789,-26000,22000,163000,804842,
-5960,-5148,13960,-497,676,735,-26000,22000,163000,804844,
-5872,-5220,14088,-488,567,771,-26000,22000,163000,804847,
-5824,-5164,14016,-596,518,695,-26000,22000,164000,804859,
-5824,-5104,14084,-630,482,704,-26000,22000,164000,804862,
-5804,-5088,13992,-675,486,684,-26000,23000,164000,804864,
-5544,-4988,14124,-733,450,663,-26000,23000,164000,804877,
-5592,-5060,13980,-754,465,629,-26000,23000,164000,804880,
-5548,-5108,13984,-719,476,638,-26000,23000,164000,804882,
-5440,-4884,14032,-782,559,535,-26000,23000,164000,804895,
-5432,-4940,14080,-778,525,540,-26000,23000,164000,804897,
-5432,-4924,13960,-813,577,513,-26000,23000,164000,804899,
-5480,-5008,14040,-888,603,447,-26000,23000,164000,804912,
-5528,-4924,14176,-893,635,400,-26000,23000,164000,804914,
-5588,-4908,14024,-888,647,362,-26000,23000,164000,804917,
-5420,-5052,14052,-903,734,293,-26000,23000,164000,804930,
-5424,-5064,14300,-884,712,274,-26000,23000,164000,804932,
-5480,-5044,14428,-909,754,252,-26000,23000,164000,804934,
-5352,-4960,14228,-908,1114,155,-27000,23000,164000,804951,
-5224,-4948,14360,-873,1154,127,-27000,23000,164000,804953,
-5340,-4836,14304,-924,1209,133,-27000,23000,164000,804956,
-5352,-4888,14252,-873,1409,52,-27000,23000,164000,804968,
