Ax,Ay,Az,Gx,Gy,Gz,Roll,Pitch,Yaw,Timestamp,Target
1848,-700,15820,-291,-71,-379,-9000,-5000,124000,316732,
2028,-680,15848,-344,-71,-396,-9000,-5000,124000,316734,
1944,-644,15988,-279,54,-293,-9000,-5000,124000,316747,
2012,-660,15744,-321,20,-270,-9000,-5000,124000,316749,
1940,-672,15872,-290,132,-279,-9000,-5000,124000,316752,
1772,-564,15884,-364,161,-224,-9000,-5000,124000,316764,
1828,-656,15808,-292,205,-202,-9000,-5000,124000,316767,
1904,-604,15816,-343,222,-191,-9000,-5000,124000,316769,
1892,-644,15732,-313,279,-66,-9000,-5000,124000,316781,
1904,-628,15824,-359,261,-90,-9000,-5000,124000,316783,
1868,-576,15756,-326,246,-83,-9000,-5000,124000,316786,
1732,-580,15756,-407,168,-54,-9000,-5000,124000,316798,
1772,-524,15880,-373,65,-29,-9000,-5000,124000,316801,
1732,-616,15856,-420,51,-33,-9000,-5000,124000,316803,
2136,-592,15812,-399,-27,51,-9000,-5000,124000,316815,
2020,-508,15812,-462,-7,58,-9000,-5000,124000,316818,
2048,-524,15848,-432,-45,68,-9000,-5000,124000,316820,
2268,-552,15720,-503,113,30,-9000,-5000,124000,316832,
2236,-480,15644,-502,127,24,-9000,-5000,124000,316835,
2412,-512,15784,-546,133,24,-9000,-5000,124000,316837,
2240,-576,15736,-498,229,-22,-9000,-5000,124000,316849,
2264,-768,15872,-550,251,12,-9000,-5000,124000,316852,
2312,-704,15812,-556,172,-17,-9000,-5000,124000,316854,
1988,-740,15880,-603,100,-19,-9000,-5000,124000,316866,
2056,-780,15908,-537,49,-26,-9000,-5000,124000,316869,
1964,-764,15976,-603,57,-8,-9000,-5000,124000,316871,
2152,-836,16048,-578,-91,-5,-9000,-5000,124000,316883,
2220,-844,16088,-648,-133,-14,-9000,-5000,124000,316886,
2312,-816,16120,-575,-121,-9,-9000,-5000,124000,316888,
2496,-848,15968,-589,73,-102,-9000,-5000,124000,316900,
2532,-812,15988,-565,77,-94,-9000,-5000,124000,316903,
2600,-776,16052,-562,185,-150,-9000,-5000,124000,316905,
2424,-868,15824,-506,297,-176,-9000,-5000,124000,316917,
2424,-884,15880,-476,360,-179,-9000,-5000,124000,316920,
2488,-804,15988,-502,301,-199,-9000,-5000,124000,316922,
2408,-760,15812,-375,414,-196,-9000,-5000,124000,316934,
2356,-760,16108,-428,359,-245,-9000,-5000,124000,316937,
2300,-764,15960,-362,370,-234,-9000,-5000,124000,316939,
2212,-528,15920,-396,238,-345,-9000,-5000,124000,316952,
2200,-556,16052,-447,199,-345,-9000,-5000,124000,316954,
2156,-628,16092,-416,179,-319,-9000,-5000,124000,316956,
2268,-656,16088,-532,16,-396,-9000,-5000,124000,316968,
2348,-620,16236,-483,85,-407,-9000,-5000,124000,316971,
2180,-688,16008,-549,39,-427,-9000,-5000,124000,316973,
2100,-668,16168,-568,-51,-483,-9000,-5000,124000,316985,
2120,-808,16084,-586,-60,-489,-9000,-5000,124000,316988,
2028,-820,15960,-557,-90,-486,-9000,-5000,124000,316990,
2148,-1020,15984,-526,-105,-458,-9000,-5000,124000,317002,
2196,-1024,16024,-507,-124,-436,-9000,-5000,124000,317005,
2160,-984,15948,-499,-80,-445,-9000,-5000,124000,317007,
2216,-936,15888,-349,7,-401,-9000,-5000,124000,317020,
2272,-980,15872,-313,129,-415,-9000,-5000,124000,317022,
2212,-876,15848,-371,101,-390,-9000,-5000,124000,317024,
2136,-776,16120,-221,343,-363,-9000,-5000,124000,317037,
2124,-788,16008,-263,318,-336,-9000,-5000,124000,317039,
2088,-836,16032,-199,356,-332,-9000,-5000,124000,317041,
2116,-736,15952,-232,422,-391,-9000,-5000,124000,317054,
2080,-676,16028,-205,388,-406,-9000,-5000,124000,317056,
2076,-692,15952,-202,434,-404,-9000,-5000,124000,317058,
2024,-664,15920,-230,343,-375,-9000,-5000,124000,317071,
2036,-632,15776,-233,416,-364,-9000,-5000,124000,317073,
2124,-596,15760,-284,280,-390,-9000,-5000,124000,317075,
2096,-488,15844,-230,222,-389,-9000,-5000,124000,317087,
2060,-500,15724,-259,115,-380,-9000,-5000,124000,317090,
2192,-468,15712,-233,193,-363,-9000,-5000,124000,317092,
2096,-560,15800,-275,102,-380,-9000,-5000,124000,317104,
2072,-556,15864,-308,145,-388,-9000,-5000,124000,317107,
2084,-572,15772,-304,88,-366,-9000,-5000,124000,317109,
1928,-684,15944,-364,82,-358,-9000,-5000,124000,317122,
2100,-660,16000,-386,-26,-341,-9000,-5000,124000,317124,
1960,-764,16020,-385,23,-361,-9000,-5000,124000,317126,
2220,-700,16076,-402,71,-311,-9000,-5000,124000,317139,
2116,-712,15912,-382,135,-308,-9000,-5000,124000,317141,
2060,-724,15952,-409,124,-364,-9000,-5000,124000,317143,
1916,-772,15728,-350,248,-343,-9000,-5000,123000,317155,
2096,-720,15820,-402,160,-338,-9000,-5000,123000,317158,
2056,-748,15692,-311,218,-320,-9000,-5000,123000,317160,
2064,-540,15896,-361,138,-314,-9000,-5000,123000,317172,
2136,-596,15828,-324,239,-315,-9000,-5000,123000,317175,
2080,-568,15852,-389,157,-288,-9000,-5000,123000,317177,
2168,-552,15980,-376,268,-277,-9000,-5000,123000,317189,
2096,-604,16104,-429,203,-274,-9000,-5000,123000,317192,
2096,-536,16108,-366,254,-270,-9000,-5000,123000,317194,
2036,-596,16104,-421,203,-320,-9000,-5000,123000,317207,
2124,-580,16024,-399,189,-292,-9000,-5000,123000,317209,
2068,-580,16092,-392,221,-291,-9000,-5000,123000,317211,
2084,-632,16068,-372,138,-305,-9000,-5000,123000,317223,
2240,-500,15836,-359,212,-320,-9000,-5000,123000,317226,
2176,-592,15864,-366,165,-317,-9000,-5000,123000,317228,
2112,-556,15784,-301,227,-305,-9000,-5000,123000,317240,
2148,-596,15928,-293,176,-358,-9000,-5000,123000,317243,
2120,-588,15936,-273,199,-361,-9000,-5000,123000,317245,
2140,-652,16092,-260,94,-362,-8000,-5000,123000,317257,
2060,-652,16140,-228,171,-328,-8000,-5000,123000,317260,
2096,-676,16120,-279,84,-349,-8000,-5000,123000,317262,
2144,-716,16156,-240,108,-393,-8000,-5000,123000,317275,
2140,-688,16064,-293,19,-404,-8000,-5000,123000,317277,
2156,-644,16196,-261,91,-405,-8000,-5000,123000,317279,
2188,-688,16140,-316,20,-453,-8000,-5000,123000,317292,
2016,-720,16064,-252,37,-441,-8000,-5000,123000,317294,
2068,-708,16100,-258,66,-423,-8000,-5000,123000,317296,
2052,-664,16004,-224,72,-369,-8000,-5000,123000,317309,
2124,-780,16012,-257,134,-392,-8000,-5000,123000,317311,
2040,-876,15980,-222,97,-386,-8000,-5000,123000,317313,
2104,-684,15996,-183,159,-402,-8000,-5000,123000,317326,
2092,-784,15924,-172,97,-392,-8000,-5000,123000,317328,
2044,-656,15968,-158,183,-408,-8000,-5000,123000,317330,
2212,-640,16020,-172,129,-359,-8000,-5000,123000,317343,
2048,-576,16020,-145,212,-349,-8000,-5000,123000,317345,
2096,-572,15936,-213,150,-355,-8000,-5000,123000,317347,
2128,-460,15872,-158,251,-418,-8000,-5000,123000,317360,
2132,-476,16076,-246,205,-424,-8000,-5000,123000,317362,
2080,-592,15912,-196,198,-409,-8000,-5000,123000,317364,
2052,-624,15860,-238,160,-405,-8000,-5000,123000,317377,
1992,-624,15832,-224,63,-413,-8000,-5000,123000,317379,
2076,-536,15884,-232,93,-409,-8000,-5000,123000,317381,
2048,-496,15636,-243,-25,-381,-8000,-5000,123000,317394,
2028,-448,15656,-286,-39,-358,-8000,-5000,123000,317396,
2056,-532,15596,-242,-11,-347,-8000,-5000,123000,317399,
2184,-544,15632,-298,11,-316,-8000,-5000,123000,317411,
2156,-452,15812,-241,98,-269,-8000,-5000,123000,317414,
2164,-392,15784,-301,127,-282,-8000,-5000,123000,317416,
2096,-272,15756,-322,310,-291,-8000,-5000,123000,317428,
2156,-288,15764,-379,359,-295,-8000,-5000,123000,317431,
2132,-432,15780,-350,332,-308,-8000,-5000,123000,317433,
2024,-464,15748,-399,417,-298,-8000,-5000,123000,317445,
1860,-452,15744,-433,370,-277,-8000,-5000,123000,317448,
1868,-404,15812,-407,419,-288,-8000,-5000,123000,317450,
1768,-516,15704,-524,113,-233,-8000,-5000,123000,317462,
1688,-368,15816,-521,132,-229,-8000,-5000,123000,317465,
1568,-400,15880,-528,46,-233,-8000,-5000,122000,317467,
2052,-528,15732,-601,-113,-132,-8000,-5000,122000,317480,
1896,-556,15716,-544,-64,-114,-8000,-5000,122000,317482,
2024,-408,15836,-595,-84,-92,-8000,-5000,122000,317484,
2168,-428,15848,-563,29,-47,-8000,-5000,122000,317497,
2240,-520,15596,-585,56,-58,-8000,-5000,122000,317499,
2232,-452,15668,-554,74,-57,-8000,-5000,122000,317501,
2108,-428,15872,-557,164,-57,-8000,-5000,122000,317514,
2032,-500,15976,-574,180,-65,-8000,-5000,122000,317516,
1928,-464,15884,-583,220,-69,-8000,-5000,122000,317518,
2088,-364,16140,-615,113,-89,-8000,-5000,122000,317531,
1960,-460,16068,-633,126,-87,-8000,-5000,122000,317533,
1944,-476,15984,-633,74,-42,-8000,-5000,122000,317535,
1964,-512,16124,-686,68,-92,-8000,-5000,122000,317547,
1984,-392,16120,-667,17,-96,-8000,-5000,122000,317550,
1900,-444,16180,-666,72,-93,-8000,-5000,122000,317552,
1972,-692,16172,-632,-35,-58,-8000,-5000,122000,317564,
1896,-640,16160,-654,-60,-48,-8000,-5000,122000,317567,
1888,-712,16172,-609,-115,-62,-8000,-5000,122000,317569,
1976,-576,16124,-550,-146,-5,-8000,-5000,122000,317582,
1912,-604,16164,-536,-181,18,-8000,-5000,122000,317584,
1956,-644,16224,-491,-108,38,-8000,-5000,122000,317586,
2088,-580,16036,-464,-20,81,-8000,-5000,122000,317599,
2028,-660,16020,-406,-8,81,-8000,-5000,122000,317601,
2028,-576,16012,-426,58,76,-8000,-5000,122000,317603,
2036,-628,16020,-422,23,95,-8000,-5000,122000,317605,
2028,-560,15940,-373,245,70,-8000,-5000,122000,317618,
2016,-512,15912,-369,171,78,-8000,-5000,122000,317620,
1956,-524,15964,-356,252,92,-8000,-5000,122000,317622,
1704,-664,15684,-366,141,207,-8000,-5000,122000,317635,
1792,-620,15832,-303,170,185,-8000,-5000,122000,317637,
1760,-556,15940,-365,105,229,-8000,-5000,122000,317639,
1972,-548,15664,-354,8,279,-8000,-5000,122000,317652,
1928,-464,15676,-421,-29,307,-8000,-5000,122000,317654,
1944,-560,15660,-380,-22,267,-8000,-5000,122000,317656,
2280,-464,15720,-519,-115,310,-8000,-5000,122000,317669,
2380,-304,15784,-498,-25,317,-8000,-5000,122000,317671,
2392,-408,15700,-559,-31,301,-8000,-5000,122000,317673,
2452,-432,15708,-570,104,216,-8000,-5000,122000,317686,
2404,-444,15824,-609,87,202,-8000,-5000,123000,317688,
2428,-380,15780,-595,91,149,-8000,-5000,123000,317690,
2256,-524,15808,-674,-111,87,-8000,-5000,123000,317703,
2320,-568,15868,-619,-148,89,-8000,-5000,123000,317705,
2304,-572,15832,-646,-128,62,-8000,-5000,123000,317707,
2372,-620,16036,-664,-391,39,-8000,-5000,123000,317720,
2276,-592,15980,-678,-349,18,-8000,-5000,123000,317722,
2344,-680,15988,-682,-430,55,-8000,-5000,123000,317725,
2476,-744,16132,-620,-402,-57,-8000,-6000,123000,317737,
2476,-792,16068,-661,-451,-92,-8000,-6000,123000,317739,
2552,-840,15996,-583,-373,-70,-8000,-6000,123000,317742,
2592,-788,16164,-599,-364,-137,-8000,-6000,123000,317754,
2512,-804,15900,-516,-258,-126,-8000,-6000,122000,317756,
2712,-684,16012,-556,-260,-130,-8000,-6000,122000,317759,
2896,-712,15948,-448,12,-295,-8000,-6000,122000,317771,
2976,-580,16044,-471,25,-342,-8000,-6000,122000,317773,
2996,-596,15936,-406,81,-353,-8000,-6000,122000,317776,
3128,-408,16140,-361,257,-556,-8000,-6000,122000,317788,
3176,-280,15952,-450,244,-559,-8000,-6000,122000,317790,
3164,-272,16144,-397,286,-618,-8000,-6000,122000,317793,
3420,44,16020,-448,171,-810,-8000,-6000,122000,317805,
3508,-20,16116,-389,130,-856,-8000,-6000,122000,317807,
3652,60,16084,-400,119,-904,-8000,-6000,122000,317810,
4292,156,16328,-295,-280,-1294,-8000,-6000,122000,317822,
4524,172,16336,-255,-249,-1352,-8000,-6000,122000,317824,
4596,72,16408,-250,-366,-1456,-8000,-6000,122000,317827,
5568,244,16560,-184,-341,-1892,-8000,-6000,122000,317839,
5780,296,16620,-190,-374,-1956,-8000,-6000,122000,317841,
6004,300,16500,-156,-221,-1986,-8000,-6000,122000,317844,
7564,508,15824,9,429,-2533,-8000,-6000,122000,317856,
7724,476,16008,36,782,-2691,-8000,-6000,122000,317858,
8084,508,16004,-90,908,-2849,-8000,-6000,121000,317861,
9328,692,15876,198,1798,-4068,-8000,-6000,121000,317873,
9628,608,16168,126,1946,-4308,-8000,-6000,121000,317876,
9812,588,15896,177,2195,-4533,-8000,-6000,121000,317878,
10560,120,16336,230,3015,-6222,-8000,-6000,120000,317890,
10592,84,16328,350,3162,-6531,-8000,-6000,120000,317893,
10400,-180,16376,360,3162,-6891,-8000,-6000,120000,317895,
9848,-1356,16800,344,3589,-8458,-8000,-6000,119000,317908,
9888,-1348,16880,284,3328,-8859,-8000,-6000,119000,317910,
9804,-1632,16960,378,3037,-9220,-8000,-6000,119000,317912,
8148,-3112,17456,672,1157,-11430,-7000,-6000,118000,317925,
8036,-3316,17776,700,575,-11867,-7000,-6000,117000,317927,
7712,-3640,17668,773,64,-12269,-7000,-6000,117000,317929,
7276,-4464,18824,682,-3025,-14258,-7000,-7000,116000,317942,
7312,-4524,18768,716,-3368,-14590,-7000,-7000,116000,317944,
7344,-4800,18996,682,-3916,-14975,-7000,-7000,115000,317946,
8176,-5240,18520,915,-5908,-16949,-7000,-8000,114000,317959,
8156,-5280,18236,933,-6212,-17393,-7000,-8000,114000,317961,
8244,-5384,18252,1040,-6360,-17717,-7000,-8000,113000,317964,
9280,-5608,17372,1586,-6573,-19470,-6000,-9000,112000,317976,
9472,-5728,17216,1704,-6358,-19721,-6000,-9000,111000,317978,
9608,-5752,17056,1786,-6169,-20118,-6000,-10000,111000,317981,
9816,-6416,16932,2537,-3995,-21488,-6000,-10000,109000,317993,
9668,-6464,17032,2628,-3500,-21766,-5000,-10000,108000,317996,
9600,-6540,17140,2733,-2959,-21877,-5000,-11000,108000,317998,
8796,-7084,17656,3308,-450,-22896,-5000,-11000,106000,318010,
8684,-7228,17604,3424,89,-22968,-5000,-11000,105000,318013,
8052,-7440,17540,3957,2523,-23875,-4000,-11000,103000,318025,
7792,-7392,17516,4121,2904,-23944,-4000,-11000,103000,318028,
7612,-7412,17672,4171,3146,-24163,-4000,-11000,102000,318030,
5800,-7104,17688,4602,4392,-24966,-3000,-11000,100000,318042,
5552,-7084,17524,4676,4539,-25158,-3000,-11000,99000,318045,
5256,-7092,17252,4853,4618,-25339,-2000,-11000,99000,318047,
3200,-6764,17084,5459,4061,-26333,-2000,-10000,96000,318059,
2908,-6668,17068,5553,3819,-26562,-1000,-10000,96000,318062,
2700,-6644,16816,5622,3724,-26655,-1000,-10000,95000,318064,
2008,-5800,15872,6175,2642,-27542,0,-10000,93000,318076,
2012,-5756,15664,6209,2341,-27748,0,-10000,92000,318079,
1868,-5528,15688,6267,2176,-27797,0,-10000,92000,318081,
1296,-4920,15032,6249,847,-28514,0,-10000,89000,318094,
1224,-4924,14920,6230,648,-28579,0,-10000,89000,318096,
1260,-4908,14984,6188,403,-28768,0,-10000,88000,318098,
1056,-4252,14196,5995,-299,-29138,1000,-10000,85000,318110,
1096,-4124,14268,5939,-364,-29205,2000,-10000,85000,318113,
984,-4116,14228,5846,-319,-29065,2000,-10000,84000,318115,
252,-3724,14528,5381,-538,-28600,3000,-10000,81000,318128,
288,-3660,14228,5223,-454,-28467,3000,-9000,81000,318130,
84,-3532,14348,5108,-406,-28392,3000,-9000,80000,318132,
-548,-2608,14300,4628,-664,-27770,4000,-9000,78000,318144,
-584,-2604,14428,4439,-695,-27795,4000,-9000,77000,318147,
-628,-2400,14520,4259,-627,-27593,4000,-9000,77000,318149,
-1044,-2040,14560,3544,-498,-26984,5000,-9000,74000,318161,
-1672,-2052,14500,3414,-419,-26838,5000,-9000,74000,318164,
-2092,-2008,14400,3183,-443,-26767,5000,-9000,73000,318166,
-4908,-1224,13888,3053,-574,-25353,6000,-8000,71000,318179,
-5032,-1056,13852,2933,-830,-25126,6000,-8000,70000,318181,
-5376,-812,13872,2907,-987,-24736,6000,-8000,70000,318183,
-5144,312,14096,2528,-1567,-22765,6000,-8000,68000,318196,
-5220,496,14204,2536,-1534,-22344,6000,-8000,67000,318198,
-5052,620,14108,2462,-1586,-22137,7000,-8000,67000,318200,
-5940,1580,14440,2324,-861,-20642,7000,-8000,65000,318213,
-6216,1660,14516,2273,-635,-20440,7000,-8000,65000,318215,
-5884,1732,14264,2140,-466,-20288,7000,-7000,64000,318217,
-8408,2268,14560,1651,451,-17738,8000,-7000,63000,318230,
-8268,3000,13676,1562,355,-17335,8000,-7000,62000,318232,
-8152,2636,14192,1548,518,-17008,8000,-7000,62000,318235,
-6828,3296,13896,1499,1128,-15040,8000,-6000,61000,318247,
-8084,2860,14148,1495,1434,-14570,8000,-6000,60000,318249,
-7744,3368,14588,1599,1416,-14277,8000,-6000,60000,318252,
-7920,3708,14188,1393,1591,-12769,9000,-6000,59000,318264,
-8184,3876,14256,1332,1643,-12407,9000,-5000,59000,318266,
-8196,3856,14132,1245,1604,-12172,9000,-5000,58000,318269,
-8676,4396,14084,1082,1390,-10363,9000,-5000,57000,318281,
-8752,4452,14248,1007,1202,-10098,9000,-5000,57000,318283,
-8824,4596,14240,1006,1144,-9805,9000,-5000,57000,318286,
-9224,4736,14420,670,509,-8251,9000,-4000,56000,318298,
-9296,4740,14624,729,573,-7864,9000,-4000,56000,318300,
-9172,4596,14680,667,550,-7563,9000,-4000,56000,318303,
-9228,5404,14424,331,496,-5392,9000,-4000,56000,318315,
-9208,5572,14484,231,407,-5096,9000,-4000,55000,318318,
-9148,5704,14612,224,446,-4729,9000,-4000,55000,318320,
-8680,6120,14396,-225,128,-3282,9000,-3000,55000,318332,
-8660,6160,14268,-286,10,-3086,9000,-3000,55000,318335,
-8316,6224,14624,-349,-107,-2946,9000,-3000,55000,318337,
-8536,6240,14352,-779,-288,-2505,9000,-3000,55000,318349,
-8784,6236,14344,-806,-244,-2198,9000,-3000,55000,318352,
-8984,6148,14372,-843,-282,-1822,9000,-3000,55000,318354,
-9448,6016,14060,-1197,-677,649,9000,-3000,55000,318366,
-9556,5924,14148,-1281,-802,1053,9000,-3000,55000,318369,
-9384,5860,14280,-1324,-877,1391,9000,-3000,55000,318371,
-8952,5800,14084,-1708,-1657,2840,9000,-3000,55000,318384,
-8676,5748,14068,-1754,-1749,3035,9000,-3000,55000,318386,
-8632,5668,14112,-1782,-1858,3272,9000,-3000,55000,318388,
-8024,5176,14192,-2139,-1921,4504,9000,-3000,55000,318401,
-7840,5092,14244,-2087,-1816,4706,9000,-3000,56000,318403,
-7796,4920,14108,-2156,-1752,4935,9000,-3000,56000,318405,
-7320,4324,13948,-2234,-1257,6162,9000,-3000,56000,318418,
-7240,4236,14052,-2329,-1267,6402,9000,-3000,56000,318420,
-7200,4356,14160,-2263,-1194,6639,9000,-3000,56000,318422,
-6704,3920,14096,-2466,-834,8021,8000,-3000,57000,318435,
-6624,3916,14096,-2443,-651,8256,8000,-3000,57000,318437,
-6468,3968,13996,-2539,-584,8477,8000,-3000,57000,318439,
-5552,3844,14212,-2677,80,9706,8000,-3000,58000,318452,
-5424,3748,14368,-2732,205,9886,8000,-3000,59000,318454,
-5308,3756,14244,-2748,265,10088,8000,-3000,59000,318456,
-4932,3552,14060,-2806,722,10704,8000,-3000,60000,318469,
-4736,3428,14072,-2787,843,10746,8000,-3000,60000,318471,
-4892,3276,14104,-2847,873,10821,8000,-3000,60000,318473,
-5140,2960,14092,-3076,999,11299,7000,-3000,61000,318486,
-5184,2908,13916,-3114,1017,11418,7000,-3000,61000,318488,
-5224,2748,14000,-3141,976,11598,7000,-3000,62000,318490,
-5232,2220,13844,-3433,722,12300,7000,-3000,63000,318503,
-5424,2004,13912,-3482,650,12294,7000,-3000,63000,318505,
-5416,1904,14036,-3567,502,12405,7000,-3000,63000,318507,
-5088,1120,14148,-3811,117,13361,6000,-3000,64000,318520,
-5048,1020,14260,-3806,39,13518,6000,-3000,65000,318522,
-4960,932,14176,-3847,-29,13770,6000,-3000,65000,318524,
-4228,600,14660,-3986,-324,14964,6000,-3000,66000,318537,
-4040,528,14836,-3977,-316,15200,5000,-3000,67000,318539,
-3840,416,14644,-4028,-220,15454,5000,-3000,67000,318541,
-2660,612,14860,-4260,-20,16858,5000,-3000,68000,318554,
-2464,452,14852,-4284,39,16990,5000,-3000,69000,318556,
-2452,468,14744,-4459,-31,17191,5000,-3000,69000,318558,
-2360,112,14676,-5027,-32,18238,4000,-3000,71000,318571,
-2448,80,14504,-5191,-95,18533,4000,-3000,71000,318573,
-2488,-76,14956,-5107,-187,18734,4000,-3000,71000,318575,
-2456,-1028,14800,-5608,-1431,20064,3000,-3000,73000,318588,
-2416,-1260,15068,-5602,-1544,20203,3000,-3000,74000,318590,
-2392,-1440,15072,-5790,-1688,20472,3000,-3000,74000,318593,
-1988,-2408,15568,-5810,-2853,21832,2000,-4000,76000,318605,
-1748,-2748,15900,-5793,-3257,22068,2000,-4000,77000,318607,
-1552,-2776,15644,-5693,-3446,22321,2000,-4000,77000,318610,
48,-3120,16180,-5445,-4481,23471,1000,-4000,79000,318622,
500,-3092,16388,-5409,-4573,23615,1000,-4000,80000,318625,
728,-3188,16392,-5396,-4625,23846,1000,-4000,80000,318627,
1848,-2648,16180,-5310,-4034,23896,0,-5000,82000,318639,
1828,-2632,16372,-5310,-4092,23896,0,-5000,83000,318642,
1880,-2492,16008,-5312,-3852,23782,0,-5000,83000,318644,
1444,-2524,15860,-5515,-3564,23666,0,-5000,85000,318657,
1496,-2628,15788,-5502,-3664,23796,0,-5000,86000,318659,
1504,-2700,15900,-5380,-3714,23738,-1000,-5000,86000,318661,
2300,-3048,16192,-5061,-4114,24205,-1000,-6000,89000,318674,
2404,-3184,16440,-4926,-3987,24197,-1000,-6000,89000,318676,
2620,-3112,16028,-4911,-3921,24243,-2000,-6000,90000,318678,
2888,-3192,16264,-4482,-3615,24058,-2000,-6000,92000,318691,
2880,-3200,16220,-4461,-3535,24049,-2000,-6000,92000,318693,
2896,-3184,16136,-4354,-3431,24088,-3000,-6000,93000,318695,
2524,-3408,15504,-4189,-2850,24528,-3000,-6000,95000,318708,
2740,-3404,15592,-4144,-2865,24518,-3000,-6000,96000,318710,
2512,-3356,15436,-4150,-2945,24467,-4000,-6000,96000,318712,
2704,-3392,15572,-3847,-3416,24539,-4000,-7000,98000,318725,
2748,-3484,15896,-3840,-3410,24497,-4000,-7000,99000,318727,
2700,-3544,15796,-3816,-3481,24594,-5000,-7000,99000,318729,
3488,-3876,16552,-3660,-3394,24694,-5000,-7000,102000,318742,
3744,-3804,16500,-3644,-3327,24819,-5000,-7000,102000,318744,
4040,-3816,16432,-3628,-3324,24876,-6000,-7000,103000,318746,
5064,-4148,16548,-3421,-3251,24323,-6000,-7000,105000,318759,
5200,-4096,16512,-3377,-3167,24049,-6000,-7000,105000,318761,
5596,-4212,16484,-3301,-3093,23122,-7000,-7000,108000,318774,
5624,-4316,16444,-3231,-2983,22864,-7000,-7000,108000,318776,
5708,-4344,16236,-3230,-3015,22799,-7000,-7000,108000,318778,
5708,-4496,15460,-2727,-2615,21830,-8000,-7000,111000,318791,
5676,-4524,15408,-2699,-2733,21831,-8000,-7000,111000,318793,
5544,-4260,15344,-2707,-2769,21691,-8000,-7000,111000,318795,
5996,-4468,14872,-2360,-2423,21405,-9000,-7000,113000,318808,
5864,-4484,15040,-2414,-2354,21167,-9000,-7000,114000,318810,
5844,-4476,15220,-2485,-2480,21124,-9000,-7000,114000,318813,
7380,-4228,16212,-2414,-3257,20324,-9000,-7000,116000,318825,
7968,-4368,16396,-2425,-3389,20177,-9000,-7000,117000,318828,
8456,-4388,16480,-2386,-3383,19836,-10000,-7000,117000,318830,
10348,-4676,16968,-2139,-2825,17883,-10000,-7000,119000,318842,
10300,-4684,16884,-2094,-2526,17442,-10000,-7000,119000,318845,
9976,-4704,16096,-1816,-1303,15881,-10000,-7000,121000,318857,
9952,-4740,16192,-1690,-1035,15580,-11000,-7000,121000,318860,
9884,-4704,15868,-1758,-866,15384,-11000,-7000,121000,318862,
9292,-4564,15288,-1432,-26,14097,-11000,-7000,122000,318874,
9104,-4504,15300,-1450,-104,13939,-11000,-7000,123000,318877,
9052,-4528,15288,-1365,-101,13662,-11000,-7000,123000,318879,
9124,-4464,15716,-1288,-208,12459,-11000,-7000,124000,318892,
9156,-4512,15760,-1257,-159,12297,-11000,-7000,124000,318894,
9280,-4588,16012,-1188,-257,12127,-12000,-7000,124000,318896,
9240,-4472,15720,-985,-406,10578,-12000,-7000,125000,318909,
9292,-4404,15876,-1018,-314,10310,-12000,-7000,126000,318911,
9368,-4296,16180,-1081,-409,10211,-12000,-7000,126000,318913,
9684,-4312,16428,-826,-464,8510,-12000,-7000,127000,318926,
9732,-4324,16244,-853,-503,8229,-12000,-7000,127000,318928,
9444,-4220,16024,-739,53,6597,-12000,-7000,127000,318940,
9404,-4080,15872,-727,131,6359,-12000,-7000,128000,318943,
9180,-4044,16024,-714,187,6157,-12000,-7000,128000,318945,
8716,-3644,15500,-665,789,4929,-12000,-7000,128000,318958,
8660,-3672,15456,-642,833,4755,-12000,-7000,128000,318960,
8440,-3524,15456,-597,926,4559,-12000,-7000,128000,318962,
7664,-3048,15340,-610,949,3415,-13000,-7000,129000,318975,
7492,-3120,15408,-637,929,3197,-13000,-7000,129000,318977,
7428,-2876,15404,-643,840,3027,-13000,-7000,129000,318979,
7092,-2632,15676,-700,510,2116,-13000,-7000,129000,318992,
7092,-2648,15716,-812,362,1947,-13000,-7000,129000,318994,
6960,-2760,15972,-788,383,1757,-13000,-7000,129000,318996,
6652,-2920,15912,-941,-36,675,-13000,-7000,129000,319009,
6532,-3060,15924,-925,-55,471,-13000,-7000,129000,319011,
6408,-3144,16032,-952,-183,335,-13000,-7000,129000,319013,
6144,-3208,16064,-909,-265,-421,-13000,-7000,129000,319026,
6076,-3296,16072,-869,-273,-552,-13000,-7000,129000,319028,
6080,-3268,15984,-874,-284,-670,-13000,-7000,129000,319030,
5912,-3432,15956,-751,-307,-1314,-13000,-7000,129000,319043,
5992,-3376,16048,-738,-283,-1406,-13000,-7000,129000,319045,
6008,-3392,16012,-647,-218,-1503,-13000,-7000,129000,319047,
6032,-3492,16068,-484,114,-2024,-13000,-7000,129000,319060,
6024,-3544,16116,-429,302,-2099,-13000,-7000,129000,319062,
5980,-3560,16336,-429,352,-2183,-13000,-7000,128000,319064,
5604,-3428,16248,-86,872,-2713,-13000,-7000,128000,319077,
5532,-3348,16068,-15,959,-2791,-13000,-7000,128000,319079,
5440,-3420,16020,-34,970,-2892,-13000,-7000,128000,319082,
5108,-3036,15952,275,1346,-3203,-13000,-7000,128000,319094,
4868,-2980,16108,247,1344,-3240,-13000,-7000,128000,319096,
4640,-2816,16160,268,1377,-3323,-13000,-7000,128000,319099,
4212,-2752,16220,446,1115,-3726,-13000,-7000,127000,319111,
4140,-2788,16160,507,1159,-3782,-13000,-7000,127000,319113,
4036,-2584,16012,335,1105,-3779,-13000,-7000,127000,319116,
3832,-2488,16088,562,889,-3893,-12000,-8000,127000,319128,
3924,-2388,16180,507,896,-3950,-12000,-8000,127000,319130,
3888,-2304,16168,561,877,-3976,-12000,-8000,127000,319133,
3780,-2152,15912,626,793,-4210,-12000,-8000,126000,319145,
3700,-2104,16220,644,822,-4200,-12000,-8000,126000,319147,
3632,-1980,15896,628,774,-4244,-12000,-8000,126000,319150,
3488,-1932,16112,737,949,-4277,-12000,-8000,126000,319162,
3452,-1960,16172,712,901,-4291,-12000,-8000,126000,319164,
3412,-2016,15884,810,932,-4323,-12000,-8000,125000,319167,
3240,-1948,16056,928,1124,-4253,-12000,-8000,125000,319179,
3136,-2044,16016,937,1142,-4257,-12000,-8000,125000,319182,
3200,-1928,15972,990,1139,-4207,-12000,-8000,125000,319184,
3144,-1904,15908,1088,1351,-4131,-12000,-8000,124000,319196,
3136,-1860,16020,1141,1442,-4104,-12000,-8000,124000,319199,
