Ax,Ay,Az,Gx,Gy,Gz,Roll,Pitch,Yaw,Timestamp,Target
208,8104,14008,-15,911,-1204,20000,0,211000,1432210,
-424,7852,14012,-159,722,-990,20000,0,211000,1432222,
-316,7928,13812,-108,648,-982,20000,0,211000,1432224,
-356,8008,13788,-212,538,-958,20000,0,211000,1432226,
-704,7720,14044,-221,-144,-844,20000,0,211000,1432239,
-704,7724,13880,-307,-280,-819,20000,0,211000,1432241,
-584,7628,13832,-242,-407,-863,20000,0,211000,1432243,
-484,7536,14060,-387,-846,-818,20000,0,211000,1432256,
-316,7504,14076,-360,-899,-860,20000,0,211000,1432258,
-424,7500,14108,-404,-914,-805,20000,0,211000,1432260,
-220,7540,14124,-396,-855,-662,20000,0,211000,1432273,
-448,7372,13988,-381,-785,-540,20000,0,211000,1432275,
-224,7488,14140,-416,-800,-565,20000,0,211000,1432277,
104,7352,14332,-292,-374,-384,20000,0,211000,1432290,
40,7420,14256,-399,-348,-391,20000,0,211000,1432292,
40,7308,14524,-262,-178,-330,20000,0,211000,1432294,
-56,7264,14408,-353,-118,-320,20000,0,211000,1432296,
-260,7068,14544,-65,452,-138,20000,0,211000,1432309,
-132,7012,14584,-204,441,-145,20000,0,211000,1432311,
-100,7092,14528,-64,542,-42,20000,0,211000,1432313,
-420,7060,14580,-83,453,8,20000,0,211000,1432326,
-420,7060,14524,16,501,61,20000,0,211000,1432328,
-320,6960,14584,-135,425,65,20000,0,211000,1432330,
-464,7100,14684,-4,496,120,20000,0,211000,1432332,
-672,7040,14764,16,431,369,20000,0,211000,1432345,
-540,6988,14888,154,500,475,20000,0,211000,1432347,
-720,7000,14772,47,443,508,20000,0,211000,1432349,
-812,6900,14596,192,490,595,20000,0,211000,1432352,
-684,7032,14684,167,205,718,20000,0,211000,1432364,
-608,7112,14652,265,159,731,20000,0,211000,1432366,
-552,7228,14692,184,53,710,20000,0,211000,1432368,
-472,7340,14600,192,-327,671,20000,0,211000,1432381,
-412,7228,14728,132,-407,695,20000,0,211000,1432383,
-468,7220,14748,222,-421,699,20000,0,211000,1432386,
-252,7244,14680,140,-496,743,20000,0,211000,1432388,
-36,7180,14616,169,-517,886,20000,0,211000,1432400,
-100,7192,14528,213,-430,985,20000,0,211000,1432403,
188,7240,14564,189,-453,944,20000,0,211000,1432405,
232,7380,14492,292,-59,1025,20000,0,211000,1432417,
496,7512,14484,211,5,988,20000,0,211000,1432420,
440,7556,14320,262,116,1029,21000,0,211000,1432422,
552,7620,14292,194,168,991,21000,0,211000,1432424,
1168,7824,14420,237,823,1036,21000,0,211000,1432437,
1144,7756,14360,107,924,1009,21000,0,211000,1432439,
1144,7796,14240,140,1104,1047,21000,0,211000,1432441,
684,7788,14388,178,1742,1212,21000,0,212000,1432454,
380,7700,14212,274,1872,1290,21000,0,212000,1432456,
496,7684,14244,182,1858,1323,21000,0,212000,1432458,
380,7880,14292,247,1923,1362,21000,0,212000,1432460,
324,7868,14100,10,1326,1299,21000,0,212000,1432473,
192,7880,14304,84,1254,1267,21000,0,212000,1432475,
60,7892,14216,-56,1037,1161,21000,0,212000,1432477,
412,8196,14224,-171,324,900,21000,0,212000,1432490,
412,8152,14312,-356,164,879,21000,0,212000,1432492,
500,8180,14208,-258,143,922,21000,0,212000,1432494,
416,8112,14272,-445,7,875,21000,0,212000,1432496,
824,7988,14664,-377,-131,898,21000,0,212000,1432509,
944,7960,14512,-499,-190,900,21000,0,212000,1432511,
1072,8012,14660,-373,-125,886,21000,0,212000,1432513,
1552,8000,14632,-439,75,629,21000,0,212000,1432526,
1516,7888,14548,-335,211,574,21000,0,212000,1432528,
1420,7952,14372,-441,245,541,21000,0,212000,1432530,
1652,8012,14284,-299,388,488,21000,0,212000,1432533,
1188,7924,14304,-330,786,439,21000,0,212000,1432545,
1412,7712,14284,-297,858,419,21000,0,212000,1432547,
1172,7656,14388,-346,883,417,21000,0,212000,1432550,
888,7688,14520,-257,885,302,21000,0,212000,1432562,
1284,7768,14480,-200,881,315,21000,0,212000,1432565,
1152,7756,14668,-223,821,252,21000,0,212000,1432567,
1032,7864,14448,-227,809,276,21000,0,212000,1432569,
1044,7916,14360,-303,659,85,21000,0,212000,1432581,
968,7944,14268,-278,663,103,21000,0,212000,1432584,
980,7876,14432,-313,611,53,21000,0,212000,1432586,
976,7516,14396,-193,598,-81,21000,0,212000,1432599,
884,7504,14600,-271,545,-148,21000,0,212000,1432601,
880,7528,14504,-203,584,-152,21000,0,212000,1432603,
980,7636,14328,-238,533,-188,21000,0,212000,1432605,
1264,7836,14200,-127,673,-210,21000,0,212000,1432618,
1052,7796,14224,-278,653,-217,21000,0,212000,1432620,
1188,7668,14040,-133,741,-238,21000,0,212000,1432622,
1036,7636,14116,-261,900,-357,21000,1000,212000,1432635,
1068,7740,13968,-131,1026,-366,21000,1000,212000,1432637,
996,7748,13928,-267,998,-401,21000,1000,212000,1432639,
908,7636,13892,-151,1267,-500,21000,1000,212000,1432652,
816,7624,13892,-266,1225,-524,21000,1000,212000,1432654,
676,7568,13816,-150,1277,-517,21000,1000,212000,1432656,
620,7636,13868,-346,999,-645,21000,1000,212000,1432669,
848,7624,13948,-281,973,-697,21000,1000,212000,1432671,
720,7612,14020,-365,907,-719,21000,1000,212000,1432673,
280,7488,13900,-450,699,-704,21000,1000,212000,1432686,
420,7508,14048,-384,692,-680,21000,1000,212000,1432688,
424,7548,13764,-441,651,-688,21000,1000,212000,1432690,
484,7580,13844,-424,586,-650,21000,1000,212000,1432703,
600,7656,13964,-580,526,-717,21000,1000,212000,1432705,
524,7684,13960,-485,550,-708,21000,1000,212000,1432707,
432,7724,13788,-644,384,-798,21000,1000,212000,1432720,
460,7616,13896,-530,448,-766,21000,1000,212000,1432722,
368,7668,13764,-679,325,-769,21000,1000,212000,1432724,
296,7484,13856,-507,354,-818,21000,1000,212000,1432736,
412,7556,13948,-684,300,-840,21000,1000,212000,1432739,
328,7524,13992,-498,368,-825,21000,1000,212000,1432741,
408,7516,13744,-664,296,-839,21000,1000,212000,1432753,
328,7548,13828,-531,355,-827,21000,1000,212000,1432756,
368,7752,13748,-680,281,-816,21000,1000,212000,1432758,
316,7676,14112,-599,155,-818,21000,1000,212000,1432770,
208,7716,13940,-680,108,-771,21000,1000,212000,1432773,
144,7704,14068,-617,139,-774,21000,1000,212000,1432775,
84,7732,14036,-734,110,-561,21000,1000,212000,1432787,
104,7768,14252,-753,133,-543,21000,1000,212000,1432790,
128,7852,14044,-755,139,-496,21000,1000,212000,1432792,
400,7660,14140,-810,-211,-691,21000,1000,212000,1432804,
388,7592,14216,-745,-208,-693,21000,1000,212000,1432806,
424,7692,14304,-805,-287,-808,21000,1000,212000,1432809,
236,7520,14196,-702,-193,-742,21000,1000,212000,1432821,
192,7556,14220,-835,-226,-735,21000,1000,212000,1432823,
128,7576,14112,-672,-107,-593,21000,1000,212000,1432826,
480,7464,14228,-732,-38,-373,21000,1000,212000,1432838,
400,7436,14108,-563,-2,-349,21000,1000,212000,1432840,
496,7408,14148,-692,-83,-425,21000,1000,212000,1432843,
272,7428,14304,-455,83,-648,21000,1000,212000,1432855,
440,7508,14088,-556,53,-694,21000,1000,212000,1432857,
228,7492,14148,-431,160,-680,21000,1000,212000,1432860,
224,7480,14020,-461,334,-536,21000,1000,212000,1432872,
60,7556,14092,-347,396,-463,21000,1000,212000,1432874,
224,7564,14120,-479,394,-405,21000,1000,212000,1432877,
328,7780,13940,-385,348,-329,21000,1000,212000,1432889,
300,7884,13992,-490,266,-339,21000,1000,212000,1432891,
272,7760,13948,-388,238,-410,21000,1000,212000,1432894,
340,7908,13732,-556,62,-568,21000,1000,211000,1432906,
232,8008,13680,-544,47,-623,21000,1000,211000,1432908,
184,7920,13940,-577,39,-568,21000,1000,211000,1432910,
460,7724,13756,-610,139,-486,21000,1000,211000,1432923,
436,7752,13996,-620,125,-416,21000,1000,211000,1432925,
388,7716,13796,-628,133,-461,21000,1000,211000,1432927,
244,7684,13844,-601,93,-556,21000,1000,211000,1432940,
408,7796,13768,-684,18,-585,21000,1000,211000,1432942,
452,7880,13816,-653,63,-595,21000,1000,211000,1432944,
280,8048,13824,-813,83,-583,21000,1000,211000,1432957,
288,8004,13820,-691,181,-506,21000,1000,211000,1432959,
288,8028,13828,-845,112,-515,21000,1000,211000,1432961,
288,8052,13888,-811,104,-548,21000,1000,211000,1432974,
280,8148,13844,-958,34,-554,21000,1000,211000,1432976,
492,8196,13820,-850,114,-567,21000,1000,211000,1432978,
364,8152,14084,-1031,-32,-696,21000,1000,211000,1432991,
204,8116,14064,-957,-25,-713,21000,1000,211000,1432993,
208,8064,14108,-1086,-39,-690,21000,1000,211000,1432995,
400,7888,14344,-1065,39,-624,21000,1000,211000,1433008,
280,7984,14228,-1096,34,-552,21000,1000,211000,1433010,
440,7916,14440,-1016,68,-599,21000,1000,211000,1433012,
176,7864,14468,-931,332,-551,21000,1000,211000,1433025,
156,7980,14496,-1010,330,-602,21000,1000,211000,1433027,
136,7860,14508,-931,413,-557,21000,1000,211000,1433029,
200,7868,14344,-1027,484,-595,20000,1000,211000,1433042,
196,7912,14348,-889,557,-578,20000,1000,211000,1433044,
80,7784,14276,-1023,479,-589,20000,1000,211000,1433046,
0,7792,14428,-860,636,-591,20000,2000,211000,1433059,
-16,7844,14356,-993,567,-565,20000,2000,211000,1433061,
116,7824,14344,-836,642,-517,20000,2000,211000,1433063,
-120,7920,14468,-904,414,-354,20000,2000,211000,1433076,
-120,7916,14444,-823,389,-360,20000,2000,211000,1433078,
-264,7924,14592,-949,273,-325,20000,2000,211000,1433080,
-168,7952,14720,-894,-139,-418,20000,2000,211000,1433093,
-116,7944,14744,-935,-217,-406,20000,2000,211000,1433095,
-80,7840,14588,-842,-238,-429,20000,2000,211000,1433097,
-64,7676,14628,-865,-493,-481,20000,2000,211000,1433110,
4,7628,14816,-862,-546,-572,20000,2000,211000,1433112,
28,7464,14720,-863,-502,-512,20000,2000,211000,1433114,
492,7484,14656,-746,-345,-545,20000,1000,211000,1433127,
336,7388,14892,-688,-262,-442,20000,1000,211000,1433129,
340,7440,14836,-677,-198,-472,20000,1000,211000,1433131,
68,7348,14668,-471,342,-248,20000,1000,211000,1433144,
112,7308,14620,-514,387,-244,20000,1000,211000,1433146,
216,7300,14584,-440,507,-178,20000,2000,211000,1433148,
180,7328,14392,-432,649,-221,20000,2000,211000,1433161,
88,7232,14492,-333,723,-177,20000,2000,211000,1433163,
28,7288,14400,-417,712,-212,20000,2000,211000,1433165,
16,7544,14096,-377,694,-100,20000,2000,211000,1433178,
48,7536,14132,-537,586,-51,20000,2000,211000,1433180,
-116,7504,14064,-400,649,-14,20000,2000,211000,1433182,
-396,7300,14220,-561,203,169,20000,2000,211000,1433194,
-412,7296,14172,-445,128,171,20000,2000,211000,1433197,
-360,7292,14240,-586,-49,176,20000,2000,211000,1433199,
-288,7356,14328,-627,-602,34,20000,2000,211000,1433211,
-72,7284,14364,-729,-680,59,20000,2000,211000,1433214,
-76,7312,14160,-643,-698,50,20000,2000,211000,1433216,
380,7244,14140,-751,-752,144,20000,1000,211000,1433228,
148,7288,14188,-736,-752,125,20000,1000,211000,1433231,
316,7128,14108,-740,-695,191,20000,1000,211000,1433233,
344,7168,14184,-728,-510,297,20000,1000,211000,1433245,
440,7208,14076,-654,-412,359,20000,1000,211000,1433248,
404,7196,14048,-724,-419,325,20000,1000,211000,1433250,
424,7112,14144,-555,-143,383,20000,1000,211000,1433262,
312,7176,13980,-695,-220,384,20000,1000,211000,1433265,
292,7140,14008,-569,-156,384,20000,1000,211000,1433267,
56,6904,13908,-668,-358,249,20000,1000,211000,1433279,
-28,6812,13720,-558,-360,245,20000,1000,211000,1433282,
-16,6692,13752,-668,-466,248,20000,1000,211000,1433284,
108,6660,13872,-622,-676,182,20000,1000,211000,1433296,
144,6700,13748,-662,-685,256,20000,1000,211000,1433299,
176,6600,13616,-560,-606,252,20000,1000,211000,1433301,
288,6372,13656,-535,-521,351,20000,1000,211000,1433313,
64,6340,13500,-521,-555,364,20000,1000,211000,1433315,
88,6304,13456,-494,-548,372,20000,1000,211000,1433318,
-140,6340,13436,-488,-647,453,20000,1000,211000,1433330,
-72,6404,13508,-427,-674,518,20000,1000,211000,1433332,
-176,6388,13548,-463,-756,506,20000,1000,211000,1433335,
-368,6124,13032,-405,-914,744,20000,1000,211000,1433347,
-600,6100,13048,-519,-1065,747,20000,1000,211000,1433350,
-604,6020,12968,-437,-1031,835,20000,1000,211000,1433352,
-960,5708,12748,-488,-1561,1068,20000,1000,211000,1433364,
-960,5588,12840,-352,-1643,1139,20000,1000,211000,1433367,
-932,5400,12828,-480,-1881,1064,20000,1000,211000,1433369,
-960,5236,13232,-361,-2800,1111,20000,0,211000,1433381,
-912,5260,13316,-503,-2991,1114,20000,0,211000,1433384,
-804,5292,13280,-374,-3088,1208,20000,0,211000,1433386,
-264,5696,13480,-531,-3705,1690,20000,0,211000,1433398,
-380,5864,13664,-438,-3687,1780,20000,0,211000,1433400,
-268,5928,13492,-568,-3652,1911,20000,0,211000,1433403,
-32,5992,13704,-525,-2906,2501,20000,0,211000,1433415,
272,5904,13796,-539,-2728,2565,20000,0,211000,1433418,
208,5824,13664,-506,-2527,2607,20000,0,211000,1433420,
528,6056,13260,-683,-1484,2820,20000,0,211000,1433432,
384,6012,13492,-735,-1359,2832,20000,0,211000,1433434,
452,6128,13240,-739,-1083,2936,20000,0,211000,1433437,
472,6032,13228,-803,-909,2968,20000,0,212000,1433439,
800,6376,13500,-836,121,3311,20000,0,212000,1433452,
840,6352,13664,-998,180,3287,20000,0,212000,1433454,
820,6444,13488,-922,357,3335,20000,0,212000,1433456,
1276,6592,13596,-1196,880,3366,20000,0,212000,1433469,
1380,6728,13548,-1073,1001,3398,20000,0,212000,1433471,
1244,6608,13556,-1272,1010,3378,20000,0,212000,1433473,
1124,7348,13764,-1346,1262,3652,19000,0,213000,1433485,
1136,7384,13860,-1503,1190,3680,19000,0,213000,1433488,
1260,7564,13832,-1385,1221,3753,19000,0,213000,1433490,
1784,8072,14160,-1903,760,3631,19000,-1000,213000,1433502,
1692,8032,14132,-1882,673,3539,19000,-1000,213000,1433505,
1692,8056,14076,-2023,562,3478,19000,-1000,213000,1433507,
1620,7848,14636,-2143,39,3011,19000,-1000,214000,1433519,
1680,7804,14560,-2159,-42,2964,19000,-1000,214000,1433522,
1736,7804,14640,-2156,-125,2891,19000,-1000,214000,1433524,
1704,7528,14964,-2104,-564,2684,19000,-1000,214000,1433537,
1692,7536,15092,-2203,-707,2639,19000,-1000,214000,1433539,
1632,7568,15224,-2122,-685,2658,19000,-1000,214000,1433541,
2404,8024,15356,-2174,-857,2514,19000,-1000,214000,1433554,
2624,8072,15556,-2081,-761,2518,19000,-1000,214000,1433556,
2712,8084,15532,-2196,-811,2449,19000,-1000,214000,1433558,
3064,8204,15540,-1931,-304,2122,18000,-1000,214000,1433571,
3152,8256,15604,-2072,-249,2033,18000,-1000,214000,1433573,
3304,8220,15560,-1886,-76,1946,18000,-1000,215000,1433575,
3516,8060,15460,-1888,674,1429,18000,-1000,215000,1433588,
3496,8148,15540,-1803,840,1317,18000,-1000,215000,1433590,
3504,8160,15456,-1844,977,1303,18000,-1000,215000,1433592,
3272,8120,15584,-1618,1783,1014,18000,-1000,215000,1433605,
3232,8112,15536,-1515,1975,1004,18000,-1000,215000,1433607,
3212,8224,15652,-1526,2036,970,18000,-1000,215000,1433610,
3380,8516,15928,-1214,2391,759,18000,-1000,215000,1433622,
3108,8524,16024,-1314,2348,684,18000,-1000,215000,1433624,
3244,8636,16028,-1148,2416,625,18000,-1000,215000,1433627,
2752,8712,16056,-1084,2258,258,18000,-1000,215000,1433639,
2576,8664,16184,-950,2216,148,18000,-1000,215000,1433641,
2492,8652,16140,-1018,2125,77,18000,-1000,215000,1433644,
2104,8768,16208,-707,1531,-220,18000,-1000,215000,1433656,
2100,8944,16180,-780,1370,-262,18000,-1000,215000,1433658,
2056,8952,16132,-625,1267,-301,18000,-1000,215000,1433661,
2088,9220,16280,-699,318,-617,18000,-1000,215000,1433673,
1956,9328,16216,-632,158,-745,18000,-1000,215000,1433675,
2060,9308,16344,-689,34,-760,18000,-1000,215000,1433678,
2252,9476,16372,-627,-402,-1143,18000,-1000,215000,1433690,
2420,9604,16328,-604,-405,-1150,18000,-1000,215000,1433692,
2508,9644,16440,-576,-450,-1228,18000,-1000,215000,1433695,
2916,9756,16408,-400,-136,-1453,18000,-1000,215000,1433707,
2860,9876,16444,-509,-133,-1503,18000,-1000,215000,1433709,
2896,9984,16520,-366,41,-1527,18000,-1000,215000,1433712,
2704,9900,16296,-330,511,-1721,18000,-1000,215000,1433724,
2504,9860,16196,-166,657,-1712,18000,-1000,215000,1433726,
2424,9808,16356,-258,649,-1772,18000,-1000,215000,1433729,
2112,9664,16076,18,1081,-1773,18000,-1000,215000,1433741,
2000,9788,16240,-125,1065,-1783,18000,-1000,214000,1433744,
1860,9840,16208,78,1152,-1755,18000,-1000,214000,1433746,
1380,10136,15980,92,976,-1755,18000,0,214000,1433758,
1140,10064,15900,161,943,-1815,18000,0,214000,1433761,
1012,10276,15932,79,861,-1790,18000,0,214000,1433763,
992,10436,15964,236,821,-1834,18000,0,214000,1433765,
364,10932,16160,206,314,-1817,18000,0,214000,1433777,
328,10916,16172,244,224,-1864,18000,0,214000,1433780,
204,10888,16068,178,110,-1841,18000,0,214000,1433782,
-108,10872,16232,95,-595,-1985,19000,0,214000,1433794,
-228,10740,16260,113,-657,-1928,19000,0,214000,1433797,
-88,10544,16176,172,-779,-1962,19000,0,214000,1433799,
-472,10248,15804,272,-1173,-1841,19000,0,214000,1433811,
-396,10348,15932,276,-1330,-1799,19000,0,214000,1433814,
-484,10344,16072,347,-1260,-1702,19000,0,213000,1433816,
-56,11948,15832,572,-1026,-1183,19000,0,213000,1433829,
116,12444,15912,739,-885,-1151,19000,0,213000,1433831,
116,12640,15848,638,-891,-1088,19000,0,213000,1433833,
296,14284,15692,689,-419,-987,19000,0,213000,1433845,
284,14352,15724,508,-417,-1031,19000,0,213000,1433848,
400,14556,15532,606,-325,-1068,19000,0,213000,1433850,
148,14364,15312,146,-534,-1456,19000,0,213000,1433862,
56,14296,15236,207,-551,-1577,19000,0,213000,1433865,
-40,14148,15264,70,-652,-1644,20000,0,213000,1433867,
-140,13776,14848,-16,-1225,-1918,20000,0,213000,1433879,
-204,13928,14812,-129,-1333,-1893,20000,0,213000,1433881,
-64,13868,14752,-81,-1403,-1934,20000,0,213000,1433884,
-128,13920,14424,-249,-1987,-2340,20000,-1000,212000,1433896,
-188,13892,14612,-217,-2099,-2523,20000,-1000,212000,1433898,
-204,13896,14412,-294,-2281,-2609,20000,-1000,212000,1433901,
-560,13812,14100,-439,-3451,-3399,20000,-1000,212000,1433913,
-416,13828,14008,-424,-3659,-3398,20000,-1000,212000,1433916,
-608,13688,14008,-580,-4046,-3536,20000,-1000,212000,1433918,
-268,12892,13560,-1082,-6135,-4160,20000,-1000,211000,1433931,
-180,12580,13664,-1362,-6616,-4384,20000,-1000,211000,1433933,
-16,12480,13700,-1358,-6967,-4525,20000,-1000,211000,1433935,
1328,10924,14232,-1858,-7824,-5692,20000,-2000,210000,1433948,
1420,10780,14320,-1754,-7758,-5895,20000,-2000,210000,1433950,
1668,9332,14584,-1700,-6436,-6376,20000,-2000,209000,1433963,
1620,9016,14748,-1608,-6131,-6437,20000,-2000,209000,1433965,
1572,8812,15032,-1478,-5720,-6371,20000,-3000,209000,1433967,
1372,7888,15092,-1132,-4135,-6469,20000,-3000,208000,1433980,
1344,7632,14984,-1078,-3938,-6462,20000,-3000,208000,1433982,
1212,7448,15096,-1093,-3889,-6564,20000,-3000,208000,1433984,
1276,6688,14712,-1691,-4221,-7779,20000,-3000,207000,1433997,
832,6236,16280,-1483,-3893,-7922,20000,-3000,207000,1433999,
364,5396,14592,-1220,-3413,-7969,20000,-3000,207000,1434001,
396,3676,13584,-1138,-2737,-8016,20000,-3000,206000,1434014,
440,3628,13692,-939,-2555,-7956,20000,-3000,206000,1434016,
536,3716,14380,-869,-2607,-7811,20000,-3000,206000,1434019,
668,3332,16360,-770,-833,-7716,20000,-3000,205000,1434031,
108,2692,13448,-821,-373,-7443,20000,-3000,205000,1434033,
184,2564,13216,-850,-94,-7298,20000,-3000,205000,1434036,
1128,1472,13376,-196,884,-6685,19000,-2000,204000,1434048,
1228,1448,13332,-220,1017,-6625,19000,-2000,204000,1434050,
1100,1416,13236,-121,1347,-6485,19000,-2000,204000,1434053,
276,620,13188,505,2725,-5880,19000,-2000,203000,1434065,
300,536,12936,713,2949,-5745,19000,-2000,203000,1434068,
360,408,12892,663,2946,-5624,19000,-2000,203000,1434070,
156,1164,12508,1118,3831,-4826,19000,-1000,203000,1434082,
92,1284,12508,1016,3911,-4657,19000,-1000,203000,1434085,
196,1272,12328,1163,4076,-4459,19000,-1000,203000,1434087,
772,1588,11720,944,4328,-3684,19000,0,203000,1434099,
844,1440,11864,1094,4503,-3542,19000,0,203000,1434101,
704,1296,11720,1013,4603,-3406,19000,0,203000,1434104,
436,884,10640,1329,4818,-2594,20000,0,203000,1434116,
304,912,10272,1157,4655,-2409,20000,0,203000,1434118,
432,952,10140,1295,4645,-2268,20000,0,203000,1434121,
436,1028,9936,1109,4433,-2140,20000,0,203000,1434123,
828,892,9192,926,3639,-1389,20000,0,203000,1434135,
956,1032,8920,791,3434,-1228,20000,0,203000,1434138,
760,984,8756,808,3306,-1150,20000,0,203000,1434140,
1468,1324,7776,448,2736,-482,20000,0,203000,1434152,
1764,1456,7696,350,2573,-441,19000,0,203000,1434155,
1904,1524,7552,245,2433,-302,19000,0,203000,1434157,
1944,1644,7396,259,2373,-258,19000,0,203000,1434159,
2280,1916,7044,-465,1814,255,19000,0,203000,1434172,
2352,1928,7012,-620,1689,313,19000,0,203000,1434174,
2320,1872,6956,-771,1572,421,19000,0,203000,1434176,
2592,2448,6324,-1856,877,889,19000,0,203000,1434189,
2848,2584,6204,-1985,791,959,19000,0,203000,1434191,
2824,2640,6132,-2320,541,937,19000,0,203000,1434193,
3164,2848,5752,-2519,387,892,19000,0,203000,1434195,
4500,3396,4908,-4139,-368,269,19000,0,203000,1434208,
4764,3528,5028,-4274,-343,186,19000,0,203000,1434210,
4980,3524,4964,-4592,-320,-48,19000,0,203000,1434212,
6068,3520,4596,-5810,719,-775,18000,0,203000,1434225,
6148,3672,4704,-6120,920,-911,18000,0,203000,1434227,
6532,3752,4356,-6217,1288,-1033,18000,0,203000,1434229,
6512,3880,4432,-6561,1485,-1227,18000,0,203000,1434232,
6836,3856,4388,-7725,2954,-1998,17000,0,203000,1434244,
6444,3732,4312,-8070,3120,-2169,17000,0,203000,1434246,
6420,3704,4376,-8133,3354,-2327,17000,0,203000,1434249,
5516,3160,4804,-9369,4084,-3399,16000,0,203000,1434261,
5516,2912,4892,-9506,4193,-3596,16000,0,202000,1434263,
5316,2968,4936,-9877,4153,-3827,16000,0,202000,1434265,
4968,2340,5324,-11094,4301,-5059,15000,0,202000,1434278,
4860,2084,5432,-11342,4366,-5181,15000,0,202000,1434280,
4896,1976,5328,-11524,4455,-5479,14000,0,202000,1434282,
4136,1088,5116,-12715,5023,-6429,13000,1000,201000,1434295,
3968,984,5284,-12951,5159,-6653,13000,1000,201000,1434297,
3780,828,5284,-13103,5376,-6719,13000,1000,201000,1434300,
3032,148,5752,-13980,6067,-7330,11000,1000,201000,1434312,
3028,136,6144,-14012,6269,-7339,11000,2000,201000,1434314,
2692,0,6252,-14190,6379,-7447,11000,2000,201000,1434316,
1900,-336,6696,-14899,6985,-7744,9000,2000,200000,1434329,
1944,-284,6784,-15167,6946,-7886,9000,2000,200000,1434331,
1508,-300,6920,-15246,6972,-7969,9000,3000,200000,1434333,
536,-772,7480,-16250,6807,-8865,7000,3000,199000,1434346,
328,-836,7660,-16320,6796,-8990,7000,3000,199000,1434348,
124,-1132,7800,-16659,6657,-9213,6000,4000,199000,1434350,
-928,-1952,8368,-17338,6237,-10165,5000,4000,198000,1434363,
-1184,-2184,8284,-17749,6030,-10345,4000,4000,198000,1434365,
-1360,-2388,8428,-17769,6011,-10443,4000,5000,197000,1434367,
-2328,-2980,9180,-18785,5564,-10755,2000,5000,196000,1434380,
-2456,-2976,9732,-18876,5594,-10800,2000,5000,196000,1434382,
-2528,-3000,9768,-19105,5557,-10731,1000,5000,196000,1434385,
-2220,-2964,11152,-19845,5670,-10292,0,6000,195000,1434397,
-2064,-3084,11440,-19919,5717,-10177,0,6000,195000,1434399,
-2048,-3140,11560,-20113,5822,-10227,-1000,6000,195000,1434402,
-2616,-4420,12504,-20404,6666,-10296,-3000,7000,194000,1434414,
-2700,-4636,12608,-20564,6705,-10477,-3000,7000,193000,1434417,
-2848,-4852,12704,-20454,6929,-10556,-4000,7000,193000,1434419,
-3616,-6216,13300,-20595,7132,-11498,-6000,8000,192000,1434432,
-3920,-6360,13552,-20483,7220,-11558,-6000,8000,192000,1434434,
-5548,-7452,14500,-20371,7033,-11796,-9000,8000,191000,1434446,
-5572,-7500,14724,-20401,6923,-11853,-9000,8000,190000,1434449,
-5556,-7528,14928,-20321,6730,-11707,-10000,9000,190000,1434451,
-6412,-8216,15668,-20328,5539,-11201,-12000,9000,189000,1434464,
-6520,-8304,15900,-20148,5432,-11009,-12000,9000,189000,1434466,
-6764,-8432,16172,-20296,5189,-10966,-13000,9000,188000,1434468,
-7268,-8676,17132,-20056,4386,-10210,-15000,9000,187000,1434481,
-7388,-8712,17264,-20170,4199,-10162,-15000,9000,187000,1434483,
-7144,-8332,18700,-19989,4027,-9913,-17000,9000,186000,1434496,
-7168,-8244,18948,-19965,3997,-9855,-18000,10000,186000,1434498,
-7072,-8220,19132,-19852,4058,-9920,-18000,10000,186000,1434500,
-7660,-8444,20568,-19484,4469,-9735,-20000,10000,185000,1434513,
-7728,-8596,20928,-19439,4557,-9778,-21000,10000,184000,1434515,
-7700,-8732,21092,-19240,4727,-9647,-21000,10000,184000,1434518,
-7384,-8960,22472,-18392,5763,-9062,-23000,10000,183000,1434530,
-7192,-8780,22596,-18072,6157,-8912,-23000,10000,183000,1434532,
-7604,-8140,23636,-16965,7634,-7847,-25000,10000,182000,1434545,
-7984,-7904,24100,-16636,7903,-7702,-25000,10000,182000,1434547,
-8212,-7704,24108,-16414,8061,-7492,-26000,11000,182000,1434550,
-9640,-6828,26084,-15526,7556,-7086,-27000,11000,181000,1434562,
-9948,-6712,26492,-15284,7266,-7008,-28000,11000,181000,1434564,
-11356,-6852,28328,-14753,4998,-7272,-29000,11000,180000,1434577,
-11556,-6956,29012,-14470,4660,-7322,-29000,11000,180000,1434579,
-11524,-7044,29304,-14454,4200,-7436,-30000,11000,179000,1434582,
-10704,-7824,31036,-12860,3367,-7533,-31000,11000,179000,1434594,
-10552,-7992,31296,-12557,3440,-7374,-31000,11000,178000,1434597,
-9436,-7656,32176,-10123,5244,-6174,-32000,11000,178000,1434609,
-9488,-7444,32340,-9650,5524,-5851,-32000,11000,178000,1434611,
-9256,-7300,32512,-9148,5852,-5623,-33000,11000,177000,1434614,
-9732,-6332,32767,-6831,6624,-4456,-33000,12000,177000,1434626,
-10152,-6256,32767,-6522,6516,-4381,-33000,12000,177000,1434629,
-10412,-6148,32767,-6079,6417,-4189,-33000,12000,177000,1434631,
-11492,-6084,32767,-4121,4832,-3751,-34000,12000,176000,1434643,
-11532,-6132,32767,-3638,4526,-3644,-34000,12000,176000,1434646,
-10800,-6316,32767,-1696,2588,-3187,-34000,12000,175000,1434658,
-10628,-6328,32767,-1159,2390,-3125,-34000,12000,175000,1434661,
-10512,-6328,32767,-898,2138,-2973,-34000,12000,175000,1434663,
-9332,-6636,32144,1541,1814,-2099,-34000,12000,175000,1434676,
-9064,-6536,31924,1922,1855,-1887,-34000,12000,175000,1434678,
-8904,-6528,31776,2417,1955,-1774,-34000,12000,175000,1434680,
-8292,-6192,30600,4527,2483,-965,-33000,12000,175000,1434693,
-8352,-6248,30376,4803,2541,-889,-33000,12000,175000,1434695,
-8444,-6048,29256,6583,2562,-328,-32000,13000,175000,1434708,
-8344,-6076,29052,6737,2403,-241,-32000,13000,175000,1434710,
-8344,-6132,28728,7143,2371,-183,-32000,13000,175000,1434712,
-7816,-6520,27852,8310,1529,64,-31000,13000,175000,1434725,
-7816,-6680,27368,8627,1384,43,-31000,13000,175000,1434727,
-7700,-6808,27268,8780,1262,162,-31000,13000,175000,1434730,
-7280,-7408,26412,10104,775,309,-30000,13000,175000,1434742,
-7120,-7436,26112,10371,780,367,-30000,13000,175000,1434744,
-6872,-7440,25976,10598,697,327,-29000,13000,175000,1434747,
-5820,-7408,24656,11959,999,395,-28000,13000,175000,1434759,
-5896,-7460,24560,12054,949,429,-28000,13000,175000,1434762,
-5904,-7348,24160,12382,1086,501,-28000,13000,175000,1434764,
-5948,-6884,23424,13167,885,985,-26000,13000,175000,1434777,
-5904,-6848,23296,13414,782,1076,-26000,13000,175000,1434779,
-5892,-6720,23204,13392,603,1129,-26000,13000,175000,1434781,
-5784,-6452,21972,13894,-353,1353,-24000,13000,175000,1434794,
-5888,-6428,21724,13901,-517,1361,-24000,13000,175000,1434796,
-5752,-6344,21536,14038,-690,1330,-24000,13000,175000,1434798,
-5428,-6324,20968,14288,-1817,1079,-22000,13000,175000,1434811,
-5348,-6372,20816,14279,-2139,961,-22000,13000,175000,1434813,
-5128,-6260,20328,14756,-2795,856,-21000,13000,175000,1434826,
-5224,-6148,20152,14669,-2958,899,-20000,13000,175000,1434828,
-5204,-5976,20212,14933,-2963,943,-20000,13000,175000,1434831,
-5148,-5136,20312,15138,-3608,1114,-18000,13000,176000,1434843,
-5236,-5044,20384,15277,-3789,1075,-18000,13000,176000,1434846,
-5228,-4880,20184,15187,-3949,1070,-18000,12000,176000,1434848,
-5296,-5044,19688,15279,-4826,589,-16000,12000,176000,1434861,
-5312,-5180,19636,15285,-4833,540,-16000,12000,176000,1434863,
-5252,-5156,19112,15453,-5098,-36,-15000,12000,176000,1434875,
-5124,-5088,19284,15570,-4977,-94,-14000,11000,176000,1434878,
-4856,-5052,19264,15590,-4931,-200,-14000,11000,176000,1434880,
-4620,-4316,19008,16103,-4072,-119,-12000,11000,176000,1434893,
-4700,-4192,18836,16003,-3952,-99,-12000,11000,176000,1434895,
-4844,-4072,18852,16195,-3745,-21,-12000,11000,176000,1434897,
-5660,-3856,18272,16235,-3599,201,-10000,11000,176000,1434910,
-5780,-3760,18244,16404,-3705,174,-10000,11000,176000,1434912,
-6144,-3496,17736,16178,-4761,-65,-8000,10000,176000,1434925,
-6348,-3612,17764,16108,-5071,-192,-8000,10000,176000,1434927,
-6352,-3552,17836,16126,-5210,-247,-8000,10000,176000,1434929,
-6040,-3796,17612,16092,-5783,-720,-6000,9000,176000,1434942,
-5696,-3664,17540,16236,-5840,-861,-6000,9000,176000,1434944,
-5664,-3696,17268,16129,-5787,-914,-6000,9000,176000,1434947,
-4788,-3292,16688,16562,-4791,-1259,-4000,9000,176000,1434959,
-4708,-3184,16588,16687,-4413,-1123,-4000,9000,176000,1434962,
-4664,-3152,16420,16758,-4146,-1069,-4000,9000,176000,1434964,
-5084,-2616,15796,17073,-2841,-482,-2000,8000,176000,1434976,
-5228,-2632,15760,16956,-2809,-452,-2000,8000,176000,1434979,
-5760,-2388,15024,16901,-2742,-252,0,8000,176000,1434991,
-5844,-2352,14888,16762,-2828,-230,0,8000,176000,1434993,
-5888,-2388,14696,16877,-2868,-227,0,8000,176000,1434996,
-5908,-1964,14112,16419,-3427,-218,1000,8000,176000,1435008,
-5896,-1900,13888,16510,-3527,-272,1000,8000,176000,1435010,
-5660,-2032,13712,16327,-3561,-222,1000,8000,176000,1435013,
-4824,-2192,13304,16277,-3321,-398,3000,8000,176000,1435025,
-4804,-2148,13120,16256,-3122,-376,3000,8000,176000,1435028,
-4684,-2236,13016,16305,-2993,-401,3000,7000,176000,1435030,
-4476,-1852,11968,16632,-1484,-179,5000,7000,176000,1435042,
-4368,-1692,11748,16493,-1288,-128,5000,7000,176000,1435045,
-4424,-1564,11676,16599,-987,-24,6000,7000,176000,1435047,
-4680,-864,10932,16409,-299,326,7000,7000,176000,1435059,
-4792,-772,10920,16522,-171,438,7000,7000,176000,1435062,
-4892,-688,10828,16272,-220,413,8000,8000,176000,1435064,
-4676,-220,10196,15934,-235,615,9000,8000,176000,1435076,
-4712,-212,10216,15666,-295,620,9000,8000,176000,1435079,
-4616,-224,10308,15796,-232,657,10000,8000,176000,1435081,
-4228,-236,9648,15286,57,749,11000,8000,176000,1435093,
-4444,-96,9484,15350,180,781,11000,8000,176000,1435096,
-4308,-68,9280,15170,325,859,11000,8000,176000,1435098,
-3672,556,8344,14943,1424,1271,13000,8000,176000,1435110,
-3424,632,8372,14915,1702,1416,13000,8000,176000,1435113,
-3616,684,8228,14901,1902,1485,13000,8000,176000,1435115,
-3936,1920,7056,14620,2972,2203,15000,8000,177000,1435127,
-3916,2212,7168,14433,2965,2278,15000,8000,177000,1435129,
-3956,2472,7104,14363,3039,2398,15000,8000,177000,1435132,
-4212,3464,6584,13279,2123,2598,17000,9000,177000,1435144,
-4336,3548,6564,13199,1877,2605,17000,9000,177000,1435146,
-4288,3668,6544,12819,1524,2557,17000,9000,177000,1435149,
-3792,3956,6208,11642,-9,2192,18000,9000,177000,1435161,
-3784,3888,6220,11322,-269,2161,19000,9000,178000,1435164,
-3708,4008,6032,11249,-378,2122,19000,9000,178000,1435166,
-3388,3976,5696,10153,-813,2302,20000,9000,178000,1435178,
-3304,4116,5448,9999,-825,2310,20000,9000,178000,1435180,
-3276,4052,5512,9783,-766,2397,20000,9000,178000,1435183,
-3036,5040,4556,8773,-726,2902,21000,9000,178000,1435195,
-3172,5092,4472,8596,-733,2997,22000,9000,178000,1435197,
-3176,5348,4188,8359,-840,3024,22000,9000,178000,1435200,
-4444,6344,3520,6985,-2011,3405,23000,9000,178000,1435212,
-4488,6472,3540,6581,-2465,3415,23000,9000,178000,1435214,
-4460,6552,3436,6317,-2886,3489,23000,8000,179000,1435217,
-4720,7116,3480,4163,-6055,3405,24000,8000,179000,1435229,
-4636,7044,3616,3922,-6582,3364,24000,8000,179000,1435231,
-4720,7008,3612,3400,-7263,3278,24000,8000,179000,1435234,
-3580,7008,3912,1571,-9784,3016,24000,7000,179000,1435246,
-3300,7096,4096,1129,-10048,2922,24000,7000,179000,1435248,
-3008,7104,4204,923,-10212,2962,24000,7000,178000,1435251,
-1164,7252,4780,-616,-10184,2853,24000,6000,178000,1435263,
-1008,7500,5080,-844,-10094,2821,24000,5000,178000,1435265,
-792,7600,5096,-1097,-9799,2797,24000,5000,178000,1435268,
388,8004,5884,-2078,-7852,2718,24000,4000,178000,1435280,
588,8152,6116,-2188,-7283,2726,24000,4000,178000,1435282,
564,8132,6188,-2336,-6865,2673,24000,4000,178000,1435285,
128,8208,7388,-2947,-4671,2358,24000,4000,178000,1435297,
8,8108,7632,-3170,-4514,2254,24000,3000,178000,1435299,
-180,8036,7972,-3236,-4282,2188,24000,3000,178000,1435301,
-1084,7900,9020,-3896,-3953,1862,24000,3000,178000,1435314,
-980,7848,9120,-3879,-3977,1881,24000,3000,178000,1435316,
-1128,7904,9356,-4112,-4130,1825,24000,3000,178000,1435319,
-908,7948,10512,-4360,-4778,1505,23000,2000,178000,1435331,
-856,7940,10824,-4523,-4886,1430,23000,2000,178000,1435334,
-596,8044,10888,-4389,-4959,1344,23000,2000,178000,1435336,
-144,8076,11552,-4484,-4948,992,23000,2000,178000,1435348,
-228,8204,11668,-4449,-4912,917,23000,2000,178000,1435351,
-168,8220,11900,-4448,-4801,925,23000,2000,178000,1435353,
416,8180,13160,-4224,-4072,685,22000,1000,178000,1435365,
600,8212,13188,-4066,-3859,636,22000,1000,178000,1435368,
696,8380,13400,-4048,-3734,582,22000,1000,178000,1435370,
700,8128,14088,-3560,-2333,278,22000,1000,178000,1435382,
660,8196,14044,-3506,-2128,197,22000,1000,178000,1435385,
464,8168,14152,-3332,-1765,218,22000,1000,178000,1435387,
468,8256,14636,-2731,-452,93,22000,1000,178000,1435399,
444,8232,14420,-2517,-190,63,22000,1000,178000,1435402,
384,8268,14624,-2565,-64,-13,22000,1000,178000,1435404,
-36,8600,14816,-1829,877,-256,21000,1000,178000,1435416,
-96,8820,14676,-1870,956,-283,21000,1000,178000,1435419,
-176,8796,14820,-1628,1124,-293,21000,1000,178000,1435421,
-248,8616,14596,-1441,1439,-560,21000,1000,178000,1435433,
-336,8608,14568,-1300,1552,-632,21000,1000,178000,1435436,
-440,8596,14832,-1301,1605,-658,21000,1000,178000,1435438,
-784,8800,14704,-866,2038,-833,21000,1000,178000,1435450,
-824,8996,14696,-842,2053,-781,21000,1000,178000,1435452,
-724,9184,14608,-763,2057,-823,21000,1000,178000,1435455,
-1144,9424,14556,-827,1993,-719,21000,1000,178000,1435467,
-1312,9456,14496,-894,1932,-781,21000,1000,178000,1435469,
-1372,9272,14484,-869,1988,-758,21000,1000,178000,1435472,
-1564,8688,14424,-868,1942,-1014,21000,2000,178000,1435484,
-1612,8520,14420,-748,1962,-994,21000,2000,178000,1435486,
-1744,8552,14408,-811,1873,-1060,21000,2000,178000,1435489,
-2180,8540,14012,-769,1609,-1030,21000,2000,178000,1435501,
-2132,8548,14200,-944,1482,-972,21000,2000,178000,1435504,
-2040,8656,14136,-844,1463,-900,21000,2000,178000,1435506,
-1848,8924,14116,-1221,915,-636,21000,2000,178000,1435518,
-1900,8800,14080,-1165,862,-591,21000,2000,178000,1435520,
-1896,8772,14056,-1306,743,-594,21000,2000,178000,1435523,
-2016,8500,13996,-1525,456,-500,21000,2000,178000,1435535,
-2020,8644,14056,-1527,457,-454,21000,2000,178000,1435537,
-1936,8436,14092,-1605,366,-475,21000,2000,178000,1435540,
-2140,7900,14352,-1655,227,-203,21000,2000,178000,1435552,
-2128,7796,14436,-1751,142,-168,21000,2000,178000,1435554,
-2172,7840,14512,-1649,147,-80,21000,2000,178000,1435557,
-1980,7912,14624,-1775,-283,207,21000,2000,178000,1435569,
-1884,7880,14492,-1642,-313,246,21000,2000,178000,1435571,
-1816,7880,14636,-1762,-453,239,21000,2000,178000,1435574,
-1944,7832,14716,-1628,-795,327,21000,2000,178000,1435586,
-1772,7928,14964,-1695,-831,384,21000,2000,178000,1435588,
-1712,7980,14964,-1575,-780,388,21000,2000,178000,1435591,
-1164,7984,14956,-1622,-966,546,20000,2000,178000,1435603,
-1220,8012,14940,-1552,-978,567,20000,2000,178000,1435605,
-1260,7868,15068,-1636,-1004,572,20000,2000,178000,1435608,
-1068,7572,15208,-1455,-913,532,20000,2000,178000,1435620,
-1072,7516,15208,-1389,-818,559,20000,2000,178000,1435622,
-968,7524,15292,-1312,-819,529,20000,2000,178000,1435625,
-716,7428,15156,-1006,-637,598,20000,2000,178000,1435637,
-888,7364,15176,-1078,-670,587,20000,2000,178000,1435639,
-936,7396,15044,-948,-584,617,20000,2000,178000,1435642,
-784,7608,15100,-741,-643,788,20000,2000,178000,1435654,
-752,7748,15108,-629,-629,823,20000,2000,178000,1435656,
-744,7808,14896,-728,-704,856,20000,2000,178000,1435658,
-648,7848,14944,-628,-846,881,20000,2000,178000,1435671,
-732,7736,14704,-764,-923,849,20000,2000,178000,1435673,
-712,7772,14776,-658,-878,857,20000,2000,178000,1435675,
-552,7832,14476,-694,-806,891,20000,2000,178000,1435688,
-516,7772,14572,-534,-728,891,20000,2000,178000,1435690,
-676,7848,14552,-709,-815,906,20000,2000,178000,1435692,
-564,7780,14424,-666,-889,960,20000,1000,178000,1435705,
-624,7652,14348,-729,-965,954,20000,1000,178000,1435707,
-452,7748,14344,-629,-992,893,20000,1000,178000,1435709,
-284,7608,14352,-772,-1163,725,20000,1000,178000,1435722,
-156,7768,14256,-717,-1143,703,20000,1000,178000,1435724,
-108,7636,14256,-790,-1111,704,20000,1000,178000,1435726,
324,7616,14244,-721,-608,645,20000,1000,178000,1435739,
392,7620,14328,-669,-432,691,20000,1000,178000,1435741,
412,7728,14512,-600,-268,669,20000,1000,178000,1435743,
300,7864,14064,-469,685,766,20000,1000,178000,1435756,
240,7888,14076,-539,814,719,20000,1000,178000,1435758,
244,7776,13888,-457,1023,715,20000,1000,178000,1435760,
68,7632,13972,-470,1802,513,20000,1000,178000,1435773,
144,7620,13912,-268,1991,540,20000,1000,179000,1435775,
-64,7604,14068,-320,2030,491,20000,1000,179000,1435777,
-904,7708,13540,-39,2199,770,20000,2000,179000,1435790,
-1284,7664,13524,-149,2032,801,20000,2000,179000,1435792,
-1348,7820,13524,-57,1974,893,20000,2000,179000,1435794,
-1764,7768,13168,-350,777,964,20000,2000,179000,1435807,
-1624,7748,13208,-362,498,908,20000,2000,179000,1435809,
-1704,7704,13256,-418,291,892,20000,2000,179000,1435811,
-1748,7548,13104,-577,-472,961,20000,2000,179000,1435824,
-1784,7624,13140,-538,-465,1074,20000,2000,179000,1435826,
-1804,7664,13096,-608,-517,1100,20000,2000,179000,1435828,
-1388,7780,13080,-742,-268,1540,20000,2000,179000,1435841,
-1332,7804,13088,-874,-264,1563,20000,2000,179000,1435843,
-1332,7676,13088,-788,-57,1633,20000,2000,179000,1435845,
-1116,7420,12868,-867,852,1923,20000,2000,179000,1435857,
-1288,7420,12964,-700,1075,1957,20000,2000,179000,1435860,
-1180,7464,12780,-805,1240,1970,20000,2000,179000,1435862,
-1496,7340,12952,-665,2478,2317,20000,2000,180000,1435874,
-1544,7432,12952,-762,2630,2421,20000,2000,180000,1435877,
-1484,7400,12824,-632,2880,2470,20000,2000,180000,1435879,
-1996,7192,12880,-638,3689,2820,20000,2000,180000,1435891,
-2184,7140,12784,-524,3869,2889,20000,2000,180000,1435893,
-2148,7076,12908,-625,3928,2980,20000,2000,180000,1435896,
-2680,7088,12796,-363,4206,3395,20000,2000,181000,1435908,
-2800,7168,12736,-359,4125,3512,20000,3000,181000,1435910,
-3036,7064,12732,-237,4064,3586,20000,3000,181000,1435912,
-4192,6840,12696,-128,2982,4125,20000,3000,181000,1435925,
-4172,6876,12544,-89,2675,4213,20000,3000,182000,1435927,
