Ax,Ay,Az,Gx,Gy,Gz,Roll,Pitch,Yaw,Timestamp,Target
-3740,1268,15252,-438,134,-171,-2000,16000,20000,1231047,
-3936,1296,15200,-478,190,-160,-2000,16000,20000,1231059,
-3992,1176,15148,-499,144,-148,-2000,16000,20000,1231062,
-4016,1244,15120,-455,173,-120,-2000,16000,20000,1231064,
-4040,1192,15148,-482,13,-102,-2000,16000,20000,1231077,
-3992,1280,15252,-463,123,-124,-2000,16000,20000,1231079,
-3904,1160,15396,-483,56,-78,-2000,16000,20000,1231081,
-3800,1168,15184,-462,124,-120,-2000,16000,20000,1231094,
-3756,1284,15252,-472,81,-116,-2000,16000,20000,1231096,
-3828,1372,15080,-451,175,-122,-2000,16000,20000,1231098,
-3756,1244,15208,-426,275,-162,-2000,16000,20000,1231111,
-3732,1192,15268,-488,295,-166,-2000,16000,20000,1231113,
-3772,1112,15176,-452,348,-164,-2000,16000,20000,1231116,
-3956,1112,15128,-462,329,-221,-2000,16000,20000,1231128,
-3976,1148,15324,-387,358,-184,-2000,16000,20000,1231130,
-4032,1248,15224,-456,322,-187,-2000,16000,20000,1231133,
-4128,1344,15184,-403,272,-119,-2000,16000,20000,1231145,
-4056,1204,15144,-460,213,-145,-2000,16000,20000,1231148,
-4048,1168,15252,-396,240,-123,-2000,16000,20000,1231150,
-3928,1216,15288,-455,181,-149,-2000,16000,20000,1231163,
-3956,1228,15228,-400,162,-145,-2000,16000,20000,1231165,
-3972,1160,15228,-412,186,-156,-2000,16000,20000,1231167,
-4068,1076,15152,-411,185,-126,-2000,16000,20000,1231180,
-4024,1268,15316,-444,205,-125,-2000,16000,20000,1231182,
-3992,1136,15188,-405,152,-127,-2000,16000,20000,1231184,
-3780,1224,15192,-443,213,-106,-2000,16000,20000,1231197,
-3772,1308,15232,-456,195,-112,-2000,16000,20000,1231199,
-3796,1196,15212,-447,225,-131,-2000,16000,20000,1231201,
-3956,1208,15224,-403,241,-163,-2000,16000,20000,1231214,
-3980,1204,15220,-440,320,-231,-2000,16000,20000,1231216,
-4040,1236,15268,-454,234,-171,-2000,16000,20000,1231218,
-4084,1228,15056,-430,262,-83,-2000,16000,20000,1231231,
-4116,1200,15292,-460,154,-85,-2000,16000,20000,1231233,
-4068,1204,15156,-442,228,-91,-2000,16000,20000,1231236,
-3884,1268,15208,-455,163,-97,-2000,16000,20000,1231248,
-3852,1268,15292,-419,256,-125,-2000,16000,20000,1231251,
-3724,1264,15344,-486,185,-107,-2000,16000,20000,1231253,
-3992,1196,15304,-465,191,-161,-2000,16000,20000,1231265,
-4144,1256,15136,-454,116,-163,-2000,16000,20000,1231267,
-4028,1340,15100,-442,155,-137,-2000,16000,20000,1231270,
-4004,1196,15276,-495,77,-74,-2000,16000,20000,1231282,
-3884,1268,15260,-444,152,-59,-2000,16000,20000,1231285,
-3876,1144,15104,-500,64,-106,-2000,16000,20000,1231287,
-3896,1224,15112,-413,242,-139,-2000,16000,20000,1231299,
-3928,1204,15168,-425,155,-139,-2000,16000,20000,1231302,
-3980,1184,15152,-383,220,-163,-2000,16000,20000,1231304,
-3972,1192,15120,-382,197,-111,-2000,16000,20000,1231316,
-3848,1248,15124,-372,248,-120,-2000,16000,20000,1231319,
-3912,1172,15184,-436,200,-119,-2000,16000,20000,1231321,
-3796,1232,15120,-395,289,-147,-2000,16000,20000,1231334,
-3968,1288,15192,-461,257,-171,-2000,16000,20000,1231336,
-3944,1184,15252,-405,287,-152,-2000,16000,20000,1231338,
-3884,1168,15300,-421,266,-149,-2000,16000,20000,1231351,
-4008,1264,15308,-441,257,-151,-2000,16000,20000,1231353,
-4032,1228,15312,-426,242,-178,-2000,16000,20000,1231355,
-3972,1308,15244,-474,212,-188,-2000,16000,20000,1231368,
-4024,1316,15240,-433,213,-177,-2000,16000,20000,1231370,
-4156,1264,15220,-467,173,-182,-2000,16000,20000,1231373,
-4012,1236,15300,-481,63,-185,-2000,16000,19000,1231385,
-4092,1244,15088,-561,26,-189,-2000,16000,19000,1231387,
-3964,1208,15248,-505,11,-177,-2000,16000,19000,1231390,
-4056,1332,15200,-583,-69,-170,-2000,16000,19000,1231402,
-4012,1200,15372,-556,-23,-155,-2000,16000,19000,1231405,
-4052,1200,15456,-591,31,-150,-2000,16000,19000,1231407,
-4060,1128,15092,-540,-42,-148,-2000,16000,19000,1231420,
-3956,1256,15204,-614,-134,-156,-2000,16000,19000,1231422,
-3936,1272,15216,-544,-53,-140,-2000,16000,19000,1231424,
-3780,1200,15148,-600,-18,-187,-2000,16000,19000,1231437,
-3808,1184,15084,-544,6,-184,-2000,16000,19000,1231439,
-3760,1372,15248,-541,86,-198,-2000,16000,19000,1231441,
-3884,1200,15180,-485,133,-206,-3000,16000,19000,1231454,
-3920,1128,15368,-531,104,-225,-3000,16000,19000,1231456,
-3972,1184,15252,-480,149,-223,-3000,16000,19000,1231458,
-4052,1200,15072,-486,146,-201,-3000,16000,19000,1231471,
-3964,1076,15156,-454,97,-191,-3000,16000,19000,1231473,
-3940,1144,15160,-460,143,-236,-3000,16000,19000,1231475,
-4012,1096,15104,-435,142,-233,-3000,16000,19000,1231488,
-3920,1092,15212,-441,171,-226,-3000,16000,19000,1231490,
-3912,1164,15180,-452,136,-231,-3000,16000,19000,1231492,
-3872,1248,15236,-459,142,-210,-3000,16000,19000,1231505,
-3948,1264,15288,-411,185,-227,-3000,16000,19000,1231507,
-4016,1232,15244,-463,139,-230,-3000,16000,19000,1231510,
-3840,1392,15224,-423,161,-202,-3000,16000,19000,1231522,
-3780,1292,15192,-468,119,-167,-3000,16000,19000,1231524,
-3916,1332,15252,-424,195,-177,-3000,16000,19000,1231527,
-3976,1260,15036,-469,174,-224,-3000,16000,19000,1231539,
-4012,1232,15376,-445,218,-208,-3000,16000,19000,1231542,
-3892,1140,15012,-430,181,-187,-3000,16000,19000,1231544,
-3976,1288,15276,-406,225,-121,-3000,16000,19000,1231556,
-4052,1232,15156,-473,117,-109,-3000,16000,19000,1231559,
-3900,1216,15256,-432,174,-113,-3000,16000,19000,1231561,
-3856,1224,14724,-480,117,-117,-3000,16000,19000,1231573,
-3880,1180,14768,-471,142,-133,-3000,16000,19000,1231576,
-3860,1188,14924,-449,92,-108,-3000,16000,19000,1231578,
-3716,1092,15376,-433,531,-88,-3000,16000,19000,1231591,
-3892,976,15312,-450,394,-162,-3000,16000,19000,1231593,
-3960,980,15096,-347,397,-208,-3000,16000,19000,1231595,
-4092,1296,15128,-400,376,-51,-3000,16000,19000,1231608,
-3972,1328,15204,-366,444,-24,-2000,16000,19000,1231610,
-3928,1268,14932,-419,316,-55,-2000,16000,19000,1231612,
-3944,1084,15080,-377,475,-246,-2000,16000,19000,1231625,
-3984,1108,15024,-462,424,-246,-2000,16000,19000,1231627,
-4056,1184,15064,-374,436,-260,-2000,16000,19000,1231630,
-4384,1224,15340,-498,211,-303,-3000,16000,19000,1231642,
-4452,1216,15324,-420,176,-274,-3000,16000,19000,1231644,
-4404,1204,15544,-506,57,-283,-3000,16000,19000,1231647,
-4104,1204,15240,-438,-24,-308,-3000,16000,19000,1231659,
-4016,1272,15144,-496,-52,-330,-3000,16000,19000,1231661,
-4100,1228,15068,-460,-44,-319,-3000,16000,19000,1231664,
-3604,1236,15252,-531,-51,-296,-3000,16000,19000,1231676,
-3548,1208,15068,-493,164,-334,-3000,16000,19000,1231679,
-3560,1184,15060,-505,120,-338,-3000,16000,19000,1231681,
-3664,1184,15272,-468,454,-416,-3000,16000,19000,1231693,
-3556,1236,15520,-448,449,-407,-3000,16000,19000,1231696,
-3788,1208,15376,-476,513,-434,-3000,16000,19000,1231698,
-3976,1112,15068,-438,552,-460,-3000,16000,19000,1231711,
-4076,1328,15040,-458,455,-422,-3000,16000,19000,1231713,
-4060,1212,15052,-427,489,-409,-3000,16000,19000,1231715,
-4196,1128,15100,-467,316,-287,-3000,16000,19000,1231728,
-4156,1104,15004,-443,408,-260,-3000,16000,19000,1231730,
-4212,1040,15124,-467,307,-273,-3000,16000,19000,1231733,
-4284,1200,14988,-461,252,-171,-3000,16000,19000,1231745,
-4180,1304,15220,-454,164,-141,-3000,16000,19000,1231747,
-4072,1212,15136,-467,241,-84,-3000,16000,19000,1231750,
-3996,1100,15120,-458,522,0,-3000,16000,19000,1231762,
-4108,1072,14988,-446,400,-74,-3000,16000,19000,1231765,
-4048,1116,15128,-468,109,-108,-3000,16000,19000,1231767,
-4024,1364,15088,-475,39,145,-3000,16000,19000,1231779,
-3676,1356,15188,-477,90,180,-3000,16000,19000,1231782,
-3740,1264,15256,-506,57,149,-3000,16000,19000,1231784,
-3628,1296,15416,-461,285,-53,-3000,16000,19000,1231796,
-3736,1272,15328,-467,365,-54,-3000,16000,19000,1231799,
-3784,1388,15268,-437,456,-19,-3000,16000,19000,1231801,
-4064,1148,15092,-444,458,-80,-3000,16000,19000,1231814,
-4088,1140,15152,-432,453,-83,-3000,16000,19000,1231816,
-4124,1168,15188,-393,500,-74,-3000,16000,19000,1231818,
-4316,1176,15088,-446,438,-46,-3000,16000,19000,1231831,
-4248,1312,15176,-419,379,-56,-3000,16000,19000,1231833,
-4168,1248,15000,-452,332,-46,-3000,16000,19000,1231835,
-4328,1208,15320,-357,265,-24,-3000,16000,19000,1231848,
-4204,1080,15316,-412,264,-14,-3000,16000,19000,1231850,
-4224,1116,15176,-388,258,23,-3000,16000,19000,1231852,
-3984,1224,15176,-385,229,-12,-3000,16000,19000,1231865,
-3964,1192,15176,-402,194,-10,-3000,16000,19000,1231867,
-3968,1288,15112,-384,259,-26,-3000,16000,19000,1231870,
-3888,1244,15108,-357,326,-78,-2000,16000,19000,1231882,
-3964,1124,15128,-403,371,-57,-2000,16000,19000,1231885,
-3964,1216,15096,-383,380,-74,-2000,16000,19000,1231887,
-4112,1276,15328,-416,408,-111,-2000,16000,19000,1231899,
-4048,1208,15124,-388,351,-72,-2000,16000,19000,1231902,
-4076,1256,15252,-434,382,-67,-2000,16000,19000,1231904,
-4216,1324,15040,-387,308,-89,-2000,16000,19000,1231917,
-4148,1296,15036,-462,231,-86,-2000,16000,19000,1231919,
-4144,1220,15164,-379,255,-71,-2000,16000,19000,1231921,
-4068,1264,15088,-493,276,-102,-2000,16000,19000,1231934,
-4088,1184,15132,-397,282,-93,-2000,16000,19000,1231936,
-4228,1200,14984,-438,169,-145,-2000,16000,19000,1231938,
-4104,1260,15244,-464,245,-27,-2000,16000,19000,1231951,
-4056,1292,15284,-445,260,-36,-2000,16000,19000,1231953,
-4160,1256,15116,-455,269,-54,-2000,16000,19000,1231955,
-4276,1244,15216,-463,162,-116,-2000,16000,19000,1231968,
-4156,1236,15228,-476,245,-111,-2000,16000,19000,1231970,
-4128,1264,15200,-458,170,-109,-2000,16000,19000,1231973,
-4056,1372,15096,-461,161,-100,-2000,16000,19000,1231985,
-4044,1208,15120,-495,115,-110,-2000,16000,19000,1231987,
-4056,1148,15192,-462,180,-117,-2000,16000,19000,1231990,
-4084,1168,15228,-461,119,-88,-2000,16000,19000,1232002,
-4084,1276,15196,-480,130,-96,-2000,16000,19000,1232005,
-4020,1232,15176,-455,66,-102,-2000,16000,19000,1232007,
-3944,1224,15184,-483,118,-81,-2000,16000,19000,1232019,
-3976,1312,15104,-444,118,-105,-2000,16000,19000,1232022,
-3968,1236,15144,-497,116,-112,-2000,16000,19000,1232024,
-3992,1304,15232,-441,267,-92,-2000,16000,19000,1232037,
-4024,1164,15092,-488,206,-99,-2000,16000,19000,1232039,
-4068,1228,15132,-420,297,-109,-2000,16000,19000,1232041,
-4140,1136,15208,-439,290,-147,-2000,16000,19000,1232054,
-4076,1300,15204,-438,283,-129,-2000,16000,19000,1232056,
-4012,1284,15048,-435,341,-167,-2000,16000,19000,1232058,
-4004,1256,15128,-398,366,-136,-2000,17000,19000,1232071,
-4008,1260,15116,-456,307,-138,-2000,17000,19000,1232073,
-4028,1240,15116,-395,345,-118,-2000,17000,19000,1232075,
-4104,1188,15084,-435,412,-200,-2000,17000,19000,1232088,
-4204,1168,15084,-396,367,-219,-2000,17000,19000,1232090,
-4276,1172,15124,-400,354,-220,-2000,17000,19000,1232092,
-4340,1320,15104,-414,245,-132,-2000,17000,19000,1232105,
-4308,1196,15176,-441,238,-161,-2000,17000,19000,1232107,
-4180,1272,14964,-416,199,-122,-2000,17000,19000,1232109,
-4260,1208,15164,-431,158,-255,-2000,17000,19000,1232122,
-4240,1232,15180,-421,112,-221,-2000,17000,19000,1232124,
-4268,1308,15152,-435,193,-234,-2000,17000,19000,1232126,
-4184,1260,15100,-447,137,-268,-2000,17000,19000,1232139,
-4216,1172,15096,-460,68,-304,-2000,17000,19000,1232141,
-4252,1240,15104,-436,61,-296,-2000,17000,19000,1232143,
-4120,1324,14968,-496,-15,-265,-2000,17000,19000,1232156,
-4136,1364,15140,-429,40,-244,-2000,17000,19000,1232158,
-3932,1332,15100,-478,-46,-243,-2000,17000,19000,1232161,
-3956,1168,15196,-418,87,-337,-2000,17000,19000,1232173,
-4200,1204,15308,-433,0,-282,-2000,17000,19000,1232176,
-4236,1176,15168,-457,42,-284,-2000,17000,19000,1232178,
-3868,1200,15060,-466,108,-185,-2000,17000,19000,1232190,
-3972,1216,15204,-460,116,-207,-2000,17000,19000,1232193,
-3932,1240,15084,-482,63,-222,-2000,17000,19000,1232195,
-3928,1220,15188,-461,224,-177,-2000,17000,19000,1232207,
-4020,1168,15176,-448,224,-168,-2000,17000,19000,1232210,
-4016,1208,15124,-452,272,-184,-2000,17000,19000,1232212,
-4240,1224,15080,-473,164,-156,-2000,17000,19000,1232225,
-4268,1344,15172,-464,177,-147,-2000,17000,19000,1232227,
-4256,1276,15176,-494,127,-112,-2000,17000,19000,1232229,
-4348,1232,15076,-554,19,-106,-2000,17000,19000,1232242,
-4268,1308,15032,-505,46,-63,-2000,17000,19000,1232244,
-4264,1328,15140,-548,30,-88,-2000,17000,19000,1232246,
-4124,1388,15120,-569,-56,-50,-2000,17000,19000,1232259,
-4120,1260,15056,-561,-112,-50,-2000,17000,19000,1232261,
-4084,1264,15320,-582,-52,-28,-2000,17000,19000,1232264,
-4092,1236,15056,-586,-54,-20,-2000,17000,19000,1232276,
-3988,1228,15116,-632,-41,-27,-3000,17000,19000,1232278,
-4072,1220,15264,-617,-55,-21,-3000,17000,19000,1232281,
-4112,1104,15152,-612,73,-50,-3000,17000,19000,1232293,
-4084,1176,15208,-595,17,-47,-3000,17000,19000,1232296,
-4036,1172,15208,-560,126,-23,-3000,17000,19000,1232298,
-4044,1224,15176,-590,43,-41,-3000,16000,19000,1232310,
-4032,1248,15148,-549,138,-56,-3000,16000,19000,1232313,
-4176,1160,15020,-572,80,-87,-3000,16000,19000,1232315,
-4172,1200,15084,-575,55,-80,-3000,16000,19000,1232328,
-4252,1140,15248,-517,91,-87,-3000,16000,19000,1232330,
-4208,1228,15288,-570,29,-90,-3000,16000,19000,1232332,
-4208,1308,15148,-512,2,-64,-3000,16000,19000,1232345,
-4208,1212,15088,-540,12,-106,-3000,16000,19000,1232347,
-4184,1264,15156,-535,-12,-116,-3000,16000,19000,1232349,
-4244,1256,15124,-490,-76,-58,-3000,16000,19000,1232362,
-4128,1252,15244,-520,-44,-81,-3000,16000,19000,1232364,
-4040,1256,15172,-503,-115,-60,-3000,16000,19000,1232366,
-4064,1264,15200,-468,-14,-88,-3000,16000,19000,1232379,
-3936,1236,15216,-527,-109,-103,-3000,16000,19000,1232381,
-3928,1244,15208,-490,-3,-96,-3000,16000,19000,1232383,
-4008,1168,15276,-514,19,-75,-3000,16000,19000,1232396,
-3968,1268,15136,-473,79,-80,-3000,16000,19000,1232398,
-4064,1224,15148,-538,-6,-110,-3000,16000,19000,1232400,
-4268,1256,15208,-513,71,-129,-3000,16000,19000,1232413,
-4208,1216,15240,-554,-30,-114,-3000,16000,19000,1232415,
-4236,1360,15196,-525,40,-173,-3000,16000,19000,1232418,
-4128,1372,15264,-581,-62,-104,-3000,16000,19000,1232430,
-4156,1296,15308,-605,-128,-108,-3000,16000,19000,1232432,
-4168,1304,15060,-592,-71,-151,-3000,16000,19000,1232435,
-4528,1300,15300,-703,-491,-249,-3000,16000,19000,1232447,
-4732,1252,15368,-664,-560,-218,-3000,16000,19000,1232450,
-4648,1300,15440,-738,-635,-208,-3000,16000,19000,1232452,
-4864,1276,15384,-875,-1314,-152,-3000,16000,19000,1232464,
-4816,1204,15400,-890,-1375,-151,-3000,16000,19000,1232467,
-4816,1256,15296,-960,-1544,-139,-3000,16000,19000,1232469,
-4700,1456,15328,-1110,-2040,-34,-3000,16000,19000,1232482,
-4552,1440,15572,-1199,-2239,0,-3000,16000,19000,1232484,
-4448,1496,15492,-1188,-2204,6,-3000,16000,19000,1232486,
-3976,1660,15844,-1442,-2575,-50,-3000,16000,19000,1232499,
-3872,1604,15980,-1484,-2603,-116,-3000,16000,19000,1232501,
-3848,1584,15968,-1452,-2645,-132,-3000,16000,19000,1232504,
-3836,1284,16436,-1626,-2651,-396,-3000,15000,19000,1232516,
-3752,1332,16308,-1604,-2675,-396,-3000,15000,19000,1232518,
-3788,1368,16244,-1615,-2655,-408,-3000,15000,19000,1232521,
-3152,1552,16736,-1591,-2453,-62,-3000,15000,19000,1232533,
-3144,1296,16752,-1750,-2078,273,-3000,15000,19000,1232536,
-3244,1048,17436,-1764,-1504,457,-3000,15000,19000,1232538,
-4016,2496,17564,-1530,-826,68,-3000,15000,20000,1232550,
-4144,2372,17836,-1594,-912,11,-3000,15000,20000,1232553,
-4660,2264,17812,-1523,-999,24,-3000,15000,20000,1232555,
-4452,1808,17828,-1343,-1805,689,-3000,14000,20000,1232568,
-4416,1864,17932,-1367,-2022,786,-3000,14000,20000,1232570,
-4164,1916,17920,-1228,-2038,858,-3000,14000,20000,1232572,
-2944,2264,18076,-1163,-1756,1010,-3000,14000,20000,1232585,
-2816,2152,17996,-1013,-1614,1003,-3000,14000,20000,1232587,
-2696,2236,18208,-968,-1551,947,-3000,14000,20000,1232590,
-3280,2248,18320,-696,-1025,687,-3000,14000,20000,1232602,
-3124,2144,18480,-666,-1016,713,-3000,14000,20000,1232604,
-3336,2160,18412,-556,-897,742,-3000,14000,20000,1232607,
-3300,2628,17804,-500,-659,967,-3000,14000,20000,1232619,
-3308,2724,17708,-415,-467,1029,-3000,14000,20000,1232621,
-3288,2764,17824,-399,-326,1076,-3000,14000,20000,1232624,
-3728,2536,17752,-89,262,908,-3000,14000,20000,1232636,
-4092,2476,17600,-32,238,874,-3000,14000,20000,1232639,
-4436,2364,17668,133,84,836,-3000,14000,20000,1232641,
-6592,2300,17316,501,-1161,1067,-3000,14000,20000,1232653,
-6928,2292,17424,586,-1559,1202,-3000,14000,20000,1232656,
-6924,2412,17492,611,-1860,1278,-3000,14000,20000,1232658,
-7544,2360,18660,998,-4368,1765,-3000,13000,21000,1232671,
-7512,2420,18664,1005,-4763,1786,-3000,13000,21000,1232673,
-7392,2436,18820,1024,-5269,1872,-3000,13000,21000,1232675,
-5504,2632,20068,1354,-6409,2510,-2000,13000,21000,1232688,
-5128,2596,20268,1460,-6514,2613,-2000,13000,21000,1232690,
-4704,2600,20184,1540,-6357,2697,-2000,12000,21000,1232692,
-2720,2620,20708,2160,-5228,2705,-2000,12000,21000,1232705,
-2492,2484,20848,2307,-4950,2669,-2000,12000,22000,1232707,
-2484,2468,20580,2406,-4776,2601,-2000,12000,22000,1232709,
-3268,2456,20588,3248,-3620,2575,-1000,11000,22000,1232722,
-3452,2500,20556,3317,-3583,2595,-1000,11000,22000,1232724,
-3608,2420,20496,3514,-3508,2651,-1000,11000,22000,1232727,
-4616,2476,20352,4014,-3978,2898,-1000,11000,22000,1232739,
-4456,2496,20036,4179,-4115,2974,-1000,11000,22000,1232741,
-4556,2492,20188,4238,-4296,3063,0,11000,22000,1232744,
-4336,2792,19992,4761,-5005,3247,0,10000,23000,1232756,
-4392,2716,19880,4767,-5205,3282,0,10000,23000,1232759,
-4200,2824,19792,4908,-5352,3324,0,10000,23000,1232761,
-3532,2692,19732,5148,-5908,3485,0,10000,23000,1232773,
-3376,2884,19664,5241,-6008,3535,0,9000,23000,1232776,
-3156,2716,19780,5289,-5933,3544,0,9000,23000,1232778,
-1996,2532,19832,5729,-5705,3540,1000,9000,24000,1232791,
-1940,2632,19816,5810,-5579,3481,1000,9000,24000,1232793,
-1824,2576,19772,5927,-5518,3468,1000,9000,24000,1232795,
-1600,2732,19284,6297,-4948,3208,2000,8000,24000,1232808,
-1768,2736,19136,6414,-4872,3162,2000,8000,24000,1232810,
-1772,2768,19016,6423,-4886,3119,2000,8000,24000,1232812,
-2276,2800,18328,6723,-4924,2976,3000,7000,24000,1232825,
-2396,2776,18268,6747,-5091,2992,3000,7000,24000,1232827,
-2436,2776,18296,6778,-5067,2986,3000,7000,25000,1232830,
-2232,2780,17668,6925,-5707,3054,4000,7000,25000,1232842,
-2288,2748,17676,6900,-5849,3076,4000,7000,25000,1232844,
-2092,2876,17536,6946,-5876,3042,4000,6000,25000,1232847,
-1872,3092,16948,7010,-6301,3091,5000,6000,25000,1232859,
-1932,3204,16928,6998,-6509,3103,5000,6000,25000,1232862,
-1972,3276,16852,6983,-6528,3094,5000,6000,25000,1232864,
-1788,3380,16692,6723,-7298,3245,6000,5000,25000,1232876,
-1744,3352,16600,6704,-7321,3252,6000,5000,26000,1232879,
-1684,3256,16716,6612,-7494,3284,6000,5000,26000,1232881,
-484,2724,16772,6543,-7557,3293,7000,4000,26000,1232894,
-252,2740,16832,6471,-7552,3239,7000,4000,26000,1232896,
68,2752,16800,6558,-7466,3199,7000,3000,26000,1232898,
832,2700,16668,6793,-6755,2752,7000,3000,26000,1232911,
692,2696,16500,6908,-6643,2644,8000,3000,26000,1232913,
748,2728,16304,6888,-6504,2538,8000,2000,26000,1232915,
-316,3400,15544,7007,-6403,2116,8000,2000,26000,1232928,
-384,3400,15492,6926,-6436,2073,9000,2000,26000,1232930,
-584,3640,15372,6930,-6488,2049,9000,2000,26000,1232933,
-1116,3644,14948,6477,-7370,2002,9000,1000,26000,1232945,
-964,3588,14868,6430,-7474,2005,9000,1000,26000,1232947,
-864,3508,15096,6325,-7745,2007,10000,1000,26000,1232950,
348,3100,15764,6148,-7850,1998,10000,0,26000,1232962,
812,3044,15648,6136,-7829,1981,10000,0,26000,1232965,
1164,3024,15832,6140,-7617,1913,10000,0,26000,1232967,
1308,3052,15900,6136,-7586,1854,11000,0,26000,1232969,
2032,3424,15564,6333,-6352,1396,11000,0,26000,1232982,
2084,3460,15476,6366,-6240,1271,11000,0,26000,1232984,
2076,3568,15328,6404,-5957,1146,11000,-1000,26000,1232987,
1160,4140,14692,6432,-5461,772,12000,-1000,26000,1232999,
852,4228,14720,6417,-5393,728,12000,-1000,26000,1233001,
836,4236,14544,6366,-5473,750,12000,-1000,26000,1233004,
532,4268,14392,6299,-5756,823,13000,-2000,26000,1233016,
500,4412,14308,6224,-5887,871,13000,-2000,26000,1233019,
672,4544,14340,6298,-5958,880,13000,-2000,26000,1233021,
1128,5084,14256,6114,-6545,1133,14000,-3000,26000,1233033,
1336,5080,14280,6022,-6526,1135,14000,-3000,26000,1233036,
1612,5032,14328,6008,-6661,1164,14000,-3000,26000,1233038,
2884,4832,14256,5837,-6370,736,15000,-4000,26000,1233051,
2968,4672,14248,5823,-6331,652,15000,-4000,26000,1233053,
3048,4676,14040,5848,-6115,549,15000,-4000,26000,1233055,
3556,4280,14100,5891,-5229,86,15000,-4000,26000,1233068,
3740,4328,13888,5903,-5122,23,15000,-4000,26000,1233070,
3700,4300,13900,6014,-4840,-30,16000,-5000,26000,1233073,
3708,4640,13740,6142,-4096,-501,16000,-5000,26000,1233085,
3436,4684,13576,6261,-3922,-578,16000,-5000,26000,1233087,
3164,4740,13436,6252,-3938,-713,16000,-5000,26000,1233090,
1968,5052,12844,6175,-4255,-832,17000,-6000,26000,1233102,
1744,4960,12792,6053,-4442,-802,17000,-6000,25000,1233105,
1648,5036,12716,6053,-4608,-746,17000,-6000,25000,1233107,
1908,5144,12824,5683,-5586,-477,18000,-6000,25000,1233120,
2080,5184,12752,5669,-5787,-434,18000,-6000,25000,1233122,
2364,5260,12752,5610,-5888,-388,18000,-6000,25000,1233124,
3612,5224,12932,5365,-6058,-392,19000,-7000,25000,1233137,
3832,5188,12864,5296,-5945,-456,19000,-7000,25000,1233139,
4048,5156,12860,5293,-5891,-505,19000,-7000,25000,1233141,
4872,5140,12988,5202,-5041,-996,19000,-8000,25000,1233154,
4868,4976,13008,5235,-4949,-1091,20000,-8000,25000,1233156,
4924,4968,13216,5258,-4705,-1195,20000,-8000,24000,1233159,
4872,5048,12632,5336,-3853,-1608,20000,-8000,24000,1233171,
4852,5168,12660,5290,-3792,-1696,20000,-8000,24000,1233174,
4760,5232,12724,5345,-3628,-1761,20000,-8000,24000,1233176,
4104,5608,12236,5175,-3501,-2123,21000,-9000,24000,1233189,
4056,5788,12188,5175,-3499,-2160,21000,-9000,24000,1233191,
3772,5896,12068,5123,-3609,-2146,21000,-9000,24000,1233193,
3560,6244,12064,4794,-4213,-2111,22000,-9000,23000,1233206,
3696,6360,12104,4694,-4384,-2096,22000,-9000,23000,1233208,
3812,6384,12176,4662,-4431,-2090,22000,-9000,23000,1233211,
4612,6016,12128,4326,-4755,-2311,22000,-10000,23000,1233223,
4736,5860,12112,4351,-4742,-2326,23000,-10000,23000,1233226,
4776,5828,12112,4293,-4713,-2378,23000,-10000,23000,1233228,
5336,5868,12052,4240,-4217,-2607,23000,-10000,22000,1233241,
5488,5884,11932,4209,-4104,-2613,23000,-10000,22000,1233243,
5432,5988,11856,4272,-4055,-2678,23000,-10000,22000,1233245,
5832,6416,11884,4146,-3540,-2847,24000,-10000,22000,1233258,
5860,6480,11840,4175,-3354,-2918,24000,-11000,22000,1233260,
5924,6512,11740,4091,-3293,-2969,24000,-11000,22000,1233262,
5996,6528,11664,4053,-2656,-3241,25000,-11000,21000,1233275,
6060,6448,11624,4019,-2514,-3307,25000,-11000,21000,1233277,
6088,6488,11432,4060,-2410,-3383,25000,-11000,21000,1233280,
5992,6480,11140,3984,-1898,-3791,25000,-11000,21000,1233292,
5980,6336,11272,4039,-1793,-3798,25000,-11000,20000,1233295,
5980,6280,11052,3982,-1685,-3896,25000,-11000,20000,1233297,
5600,6360,10768,4079,-1431,-4191,26000,-11000,20000,1233309,
5492,6360,10688,4062,-1358,-4226,26000,-11000,20000,1233312,
5280,6464,10552,4019,-1461,-4287,26000,-11000,20000,1233314,
4756,6604,10448,3852,-1745,-4369,27000,-11000,19000,1233327,
4712,6596,10668,3863,-1860,-4397,27000,-11000,19000,1233329,
4752,6728,10436,3801,-1956,-4353,27000,-11000,19000,1233331,
4884,7300,10348,3607,-2413,-4380,27000,-11000,19000,1233344,
4956,7332,10324,3500,-2479,-4394,27000,-11000,19000,1233346,
5072,7448,10220,3472,-2515,-4393,27000,-11000,18000,1233348,
5428,7244,9748,3013,-2772,-4657,28000,-11000,18000,1233361,
5460,7224,9836,2970,-2818,-4732,28000,-11000,18000,1233363,
5556,7088,9780,2940,-2768,-4765,28000,-11000,18000,1233366,
6048,6912,9700,2863,-2380,-5030,28000,-11000,17000,1233378,
5968,6740,9676,2825,-2228,-5029,29000,-11000,17000,1233381,
6144,6764,9580,2869,-2177,-5092,29000,-11000,17000,1233383,
6136,7184,9532,2825,-1416,-5340,29000,-11000,16000,1233395,
6120,7296,9308,2805,-1370,-5415,29000,-11000,16000,1233398,
6076,7388,9256,2753,-1236,-5449,29000,-11000,16000,1233400,
5268,7656,8940,2432,-1225,-5822,30000,-11000,16000,1233413,
5108,7684,8924,2423,-1217,-5814,30000,-11000,16000,1233415,
5004,7716,8996,2332,-1315,-5882,30000,-11000,15000,1233417,
4716,8104,8896,1994,-1588,-5998,30000,-11000,15000,1233430,
4868,8116,8920,1894,-1725,-6072,30000,-11000,15000,1233432,
4860,8164,8836,1865,-1739,-6095,30000,-11000,15000,1233434,
5272,8780,8932,1483,-1892,-6313,31000,-11000,14000,1233447,
5364,8724,8948,1428,-1751,-6318,31000,-11000,14000,1233449,
5528,8912,9000,1277,-1747,-6403,31000,-11000,14000,1233452,
5636,9056,8632,866,-1210,-6857,31000,-11000,13000,1233464,
5652,8916,8716,794,-1212,-6964,31000,-11000,13000,1233466,
5532,8896,8860,756,-1063,-7021,31000,-11000,13000,1233469,
4964,8572,8928,472,-644,-7381,31000,-10000,12000,1233481,
4988,8588,8820,412,-606,-7443,31000,-10000,12000,1233484,
4872,8476,9040,426,-521,-7502,31000,-10000,12000,1233486,
4464,8560,9080,262,-137,-7709,32000,-10000,11000,1233498,
4184,8812,8808,292,-172,-7747,32000,-10000,11000,1233501,
4160,8876,8840,211,-80,-7766,32000,-10000,11000,1233503,
3400,9192,8876,-189,-459,-7944,32000,-10000,10000,1233516,
3076,9124,8844,-260,-487,-7921,32000,-9000,10000,1233518,
2988,9272,8864,-372,-666,-7965,32000,-9000,10000,1233520,
3044,9020,9208,-725,-898,-7966,32000,-9000,9000,1233533,
3152,8892,9172,-820,-931,-7951,32000,-9000,9000,1233535,
3168,8812,9388,-917,-789,-7935,32000,-9000,9000,1233537,
3644,8072,9492,-909,-86,-8144,32000,-9000,8000,1233550,
3540,7900,9508,-928,139,-8175,32000,-9000,8000,1233552,
3556,7836,9448,-874,265,-8227,32000,-8000,8000,1233555,
2140,8276,9068,-677,1165,-8281,32000,-8000,8000,1233567,
1932,8336,8980,-746,1207,-8265,32000,-8000,7000,1233569,
1728,8476,9020,-766,1274,-8223,32000,-8000,7000,1233572,
324,8732,8432,-1187,858,-8228,32000,-7000,7000,1233584,
260,8716,8596,-1262,785,-8189,32000,-7000,7000,1233586,
276,8660,8500,-1352,659,-8181,32000,-7000,6000,1233589,
-320,8644,8376,-1768,151,-7835,32000,-7000,6000,1233601,
-356,8640,8428,-1862,13,-7816,32000,-6000,6000,1233603,
-244,8688,8380,-1866,-20,-7739,32000,-6000,6000,1233606,
-328,8824,9116,-2176,-347,-7582,32000,-6000,5000,1233618,
-464,8904,9264,-2159,-339,-7498,32000,-6000,5000,1233621,
-536,8916,9376,-2237,-375,-7488,32000,-6000,5000,1233623,
-1132,8888,9404,-2360,-263,-7161,32000,-5000,4000,1233635,
-1268,8964,9368,-2480,-298,-7082,32000,-5000,4000,1233638,
-1356,8944,9412,-2456,-279,-6992,32000,-5000,4000,1233640,
-1768,8948,9288,-2832,-437,-6583,32000,-5000,3000,1233653,
-1812,8952,9204,-2828,-405,-6466,32000,-5000,3000,1233655,
-1888,8972,9188,-2933,-478,-6402,32000,-5000,3000,1233657,
-2084,8936,9164,-3186,-339,-6043,32000,-4000,3000,1233670,
-2064,8868,9212,-3276,-354,-5989,32000,-4000,3000,1233672,
-2140,9004,9124,-3304,-309,-5872,32000,-4000,2000,1233675,
-2520,9348,9508,-3554,-179,-5466,31000,-4000,2000,1233687,
-2516,9504,9592,-3580,-145,-5354,31000,-4000,2000,1233690,
-2636,9368,9728,-3644,-135,-5318,31000,-4000,2000,1233692,
-3096,9456,10108,-3812,-167,-5002,31000,-3000,1000,1233704,
-3188,9464,10208,-3864,-142,-4909,31000,-3000,1000,1233707,
-3328,9436,10204,-3862,-214,-4803,31000,-3000,1000,1233709,
-3508,8984,10604,-3979,-285,-4112,31000,-3000,1000,1233722,
-3616,9072,10656,-3964,-286,-3988,31000,-3000,1000,1233724,
-3468,8972,10856,-3969,-265,-3871,31000,-3000,1000,1233726,
-3168,8888,11088,-3866,139,-3431,30000,-3000,0,1233739,
-3236,8860,11220,-3848,321,-3346,30000,-2000,0,1233741,
-3240,8936,11216,-3789,401,-3264,30000,-2000,0,1233743,
-3752,9648,10912,-3810,775,-2700,30000,-2000,0,1233756,
-3848,9784,10880,-3807,801,-2604,30000,-2000,0,1233758,
-3916,9780,10788,-3892,787,-2513,30000,-2000,0,1233761,
-3820,9272,11000,-4073,736,-2090,29000,-2000,0,1233773,
-3800,9072,11120,-4035,823,-2016,29000,-2000,0,1233775,
-3712,9028,11164,-4034,925,-1924,29000,-2000,0,1233778,
-3676,8948,11488,-3832,1522,-1522,29000,-1000,0,1233790,
-3776,9168,11620,-3827,1651,-1461,29000,-1000,0,1233793,
-3868,9204,11744,-3773,1716,-1388,29000,-1000,0,1233795,
-4500,10124,11920,-3890,1943,-848,29000,-1000,0,1233807,
-4608,10144,11904,-3938,1905,-738,29000,-1000,0,1233810,
-4592,10252,12056,-3911,1914,-651,28000,-1000,0,1233812,
-4948,10180,12220,-3944,1567,77,28000,-1000,0,1233825,
-4784,10256,12212,-4038,1506,168,28000,-1000,0,1233827,
-4792,10244,12276,-4019,1454,329,28000,0,0,1233829,
-4680,10276,12208,-4066,1431,410,28000,0,0,1233832,
-4204,9664,12356,-4214,1193,929,28000,0,0,1233844,
-4152,9460,12376,-4262,1213,994,28000,0,0,1233846,
-3940,9252,12564,-4184,1336,1035,28000,0,0,1233849,
-3352,8868,12964,-3982,2150,1424,27000,0,0,1233861,
-3196,8772,12972,-3894,2343,1464,27000,0,0,1233863,
-3120,8916,13068,-3857,2577,1461,27000,0,1000,1233866,
-3148,8920,13044,-3828,2712,1514,27000,0,1000,1233868,
-3504,9692,13192,-3552,3685,1768,27000,0,1000,1233880,
-3728,10056,13316,-3513,3775,1769,27000,0,1000,1233883,
-3836,10184,13228,-3470,3871,1811,27000,0,1000,1233885,
-4824,11284,13456,-3687,3393,2210,26000,0,1000,1233897,
-4956,11284,13384,-3697,3286,2285,26000,0,1000,1233900,
-5076,11292,13568,-3850,3053,2435,26000,0,1000,1233902,
-4708,10280,13944,-4086,2218,3009,26000,0,2000,1233914,
-4440,9884,14044,-4027,2171,3079,26000,0,2000,1233917,
-4232,9836,14204,-4080,2099,3160,26000,0,2000,1233919,
-3168,9132,14472,-3838,2396,3561,25000,0,2000,1233932,
-2916,8972,14628,-3863,2508,3576,25000,0,2000,1233934,
-2720,8856,14768,-3754,2740,3606,25000,0,2000,1233936,
-2444,8828,14836,-3766,2831,3610,25000,0,3000,1233938,
-1820,8808,15140,-3146,4274,3574,25000,1000,3000,1233951,
-2056,8920,15304,-3111,4532,3588,25000,1000,3000,1233953,
-2288,9236,15192,-2989,4773,3566,25000,1000,3000,1233956,
-3536,10636,14784,-2876,5176,3802,25000,1000,4000,1233968,
-3816,10776,14772,-2862,5097,3852,25000,1000,4000,1233971,
-4144,11084,14628,-2954,4912,3897,25000,1000,4000,1233973,
-4724,10956,14680,-3361,3532,4406,24000,1000,5000,1233985,
-4784,10916,14620,-3372,3293,4491,24000,1000,5000,1233988,
-4664,10720,14932,-3506,2997,4588,24000,1000,5000,1233990,
-3456,9688,15648,-3613,2026,5161,24000,1000,5000,1234003,
-2908,9504,15960,-3590,2012,5232,24000,1000,5000,1234005,
-2616,9416,16044,-3384,2100,5333,24000,1000,5000,1234007,
-956,9064,16556,-3284,2923,5173,24000,1000,6000,1234020,
-756,9068,16492,-3174,3161,5124,24000,2000,6000,1234022,
-660,9116,16480,-3106,3376,5033,24000,2000,6000,1234025,
-1076,9772,16384,-2648,4381,4864,23000,2000,7000,1234037,
-1248,9760,16284,-2630,4498,4824,23000,2000,7000,1234040,
-1348,9836,16220,-2615,4531,4877,23000,2000,7000,1234042,
-2116,9860,15816,-2683,4268,4761,23000,2000,8000,1234054,
-2204,9724,15584,-2701,4111,4765,23000,2000,8000,1234057,
-2288,9552,15632,-2720,3978,4759,23000,2000,8000,1234059,
-2640,8932,15744,-2751,3082,5063,23000,2000,8000,1234071,
-2560,8808,15840,-2721,3030,5105,23000,2000,9000,1234074,
-2308,8832,15828,-2776,2782,5192,23000,2000,9000,1234076,
-1608,8828,16056,-2609,2372,5477,23000,2000,9000,1234089,
-1348,8744,16052,-2668,2244,5532,23000,2000,9000,1234091,
-1172,8680,16304,-2606,2325,5536,23000,2000,9000,1234093,
-540,8380,16252,-2575,2481,5616,22000,2000,10000,1234106,
-376,8156,16340,-2437,2635,5620,22000,2000,10000,1234108,
-228,8136,16376,-2437,2673,5643,22000,2000,10000,1234110,
156,7944,16220,-2204,3228,5470,22000,2000,11000,1234123,
188,7860,16148,-2206,3237,5393,22000,2000,11000,1234125,
96,7892,16104,-2112,3298,5345,22000,2000,11000,1234127,
-212,7804,15892,-1900,3298,5075,22000,2000,12000,1234140,
-364,7756,15960,-1908,3289,5056,22000,2000,12000,1234142,
-368,7712,15928,-1855,3225,5036,22000,2000,12000,1234145,
-244,7464,15596,-1798,2982,4914,22000,3000,12000,1234157,
-124,7392,15676,-1702,2951,4957,22000,3000,12000,1234160,
-60,7400,15776,-1722,2885,4934,22000,3000,13000,1234162,
168,7328,15536,-1536,2852,4899,22000,3000,13000,1234174,
208,7288,15508,-1597,2817,4916,22000,3000,13000,1234177,
296,7280,15552,-1510,2800,4936,22000,3000,13000,1234179,
264,7008,15348,-1486,2799,4876,21000,3000,14000,1234192,
284,7052,15236,-1419,2796,4848,21000,3000,14000,1234194,
288,6884,15252,-1429,2792,4859,21000,3000,14000,1234196,
420,6700,15052,-1388,2549,4966,21000,3000,15000,1234209,
632,6744,15064,-1427,2478,4985,21000,3000,15000,1234211,
744,6752,14928,-1362,2461,5014,21000,3000,15000,1234213,
1152,6756,15020,-1230,2351,4856,21000,3000,15000,1234226,
1328,6856,14968,-1263,2293,4864,21000,3000,15000,1234228,
1312,6952,14960,-1234,2310,4771,21000,3000,15000,1234230,
1700,6964,15028,-1167,2316,4602,21000,3000,16000,1234243,
1748,6872,15072,-1153,2333,4568,21000,3000,16000,1234245,
1760,6916,15000,-1132,2323,4561,21000,3000,16000,1234248,
2104,6976,14980,-1066,2411,4226,21000,3000,17000,1234260,
2152,7068,14792,-1039,2418,4160,21000,3000,17000,1234262,
2216,7052,14596,-1036,2487,4041,21000,3000,17000,1234265,
2140,6880,14528,-953,2377,3632,21000,3000,17000,1234277,
2252,6884,14588,-965,2355,3560,21000,3000,17000,1234280,
2112,6916,14564,-916,2380,3519,21000,3000,17000,1234282,
2124,7420,14424,-951,2250,3272,21000,3000,18000,1234294,
2160,7448,14524,-933,2294,3195,21000,3000,18000,1234297,
2116,7488,14352,-1014,2180,3145,21000,3000,18000,1234299,
1876,7512,14440,-1110,1957,2847,21000,3000,18000,1234312,
1804,7332,14348,-1179,1828,2783,21000,3000,18000,1234314,
1860,7384,14316,-1132,1822,2763,21000,3000,18000,1234316,
1588,7180,14512,-1322,1444,2638,21000,3000,19000,1234329,
1740,7128,14528,-1260,1420,2631,21000,3000,19000,1234331,
1700,6972,14632,-1334,1377,2578,21000,3000,19000,1234333,
1848,6848,14548,-1295,1238,2445,21000,3000,19000,1234346,
1952,6804,14604,-1279,1283,2423,21000,3000,19000,1234348,
1924,6732,14612,-1234,1274,2383,21000,3000,19000,1234351,
2032,6848,14452,-1183,1365,2216,21000,3000,19000,1234363,
1880,6892,14340,-1170,1323,2194,21000,3000,19000,1234366,
1844,6792,14284,-1138,1360,2161,21000,3000,19000,1234368,
1724,6884,14384,-1174,1262,2080,20000,3000,20000,1234380,
1812,6928,14432,-1106,1314,2056,20000,3000,20000,1234383,
1920,6868,14464,-1144,1295,2003,20000,3000,20000,1234385,
1844,6788,14436,-956,1267,1773,20000,3000,20000,1234397,
1928,6784,14700,-965,1226,1756,20000,3000,20000,1234400,
1768,6784,14640,-869,1232,1743,20000,3000,20000,1234402,
1800,6896,14564,-809,1165,1552,20000,3000,20000,1234414,
1736,6836,14216,-759,1159,1484,20000,3000,20000,1234417,
1756,6816,14232,-759,1128,1423,20000,3000,20000,1234419,
1384,6560,14220,-671,916,1319,20000,3000,20000,1234432,
1236,6708,14396,-681,897,1305,20000,3000,20000,1234434,
1312,6556,14184,-646,829,1315,20000,3000,20000,1234436,
1448,6580,14084,-674,730,1321,20000,3000,21000,1234449,
1328,6544,14088,-642,745,1373,20000,3000,21000,1234451,
1264,6556,14048,-647,712,1364,20000,3000,21000,1234453,
1308,6556,13960,-571,762,1412,20000,3000,21000,1234466,
1320,6616,13960,-583,721,1422,20000,3000,21000,1234468,
1416,6708,13964,-578,816,1423,20000,3000,21000,1234470,
1096,6928,13876,-650,691,1355,20000,3000,21000,1234483,
1060,6976,13828,-666,714,1341,20000,2000,21000,1234485,
1080,6988,13932,-690,620,1357,20000,2000,21000,1234488,
1000,6900,14112,-731,391,1370,20000,2000,21000,1234500,
972,6860,14012,-726,373,1326,20000,2000,21000,1234502,
1068,6912,13936,-788,353,1304,20000,2000,21000,1234505,
1296,6952,14024,-678,271,1098,20000,2000,21000,1234517,
1384,6956,13968,-735,289,1045,20000,2000,21000,1234520,
1288,7084,14000,-693,322,1029,20000,2000,21000,1234522,
1304,7312,13880,-815,303,762,20000,2000,21000,1234534,
1288,7348,13732,-792,365,728,20000,2000,21000,1234537,
1252,7320,13840,-876,387,713,20000,2000,21000,1234539,
1120,7396,13784,-947,417,537,20000,2000,22000,1234552,
1192,7496,13976,-1008,440,493,20000,2000,22000,1234554,
1192,7524,13792,-981,446,464,20000,2000,22000,1234556,
692,7288,14120,-1078,390,328,20000,2000,22000,1234569,
848,7320,14016,-1088,453,318,20000,2000,22000,1234571,
768,7284,14136,-1135,388,300,20000,2000,22000,1234573,
844,7248,14092,-1071,441,304,20000,2000,22000,1234576,
644,7168,14028,-1118,371,145,20000,2000,22000,1234588,
608,7148,14152,-1049,387,163,20000,2000,22000,1234590,
564,7164,13976,-1091,402,122,20000,2000,22000,1234593,
364,7296,14204,-1006,344,105,20000,2000,22000,1234605,
312,7304,14208,-1083,273,78,20000,2000,22000,1234608,
408,7364,14056,-1024,344,90,20000,2000,22000,1234610,
268,7192,14216,-1108,279,47,20000,2000,22000,1234622,
212,7232,14132,-1038,315,64,20000,2000,22000,1234625,
188,7356,14100,-1111,262,33,20000,2000,22000,1234627,
180,7380,14292,-1061,306,51,20000,2000,22000,1234629,
76,7596,14320,-1088,280,129,20000,2000,22000,1234642,
172,7528,14244,-1049,297,124,20000,2000,22000,1234644,
232,7616,14424,-1054,329,104,20000,2000,22000,1234647,
160,7672,14316,-1059,355,47,20000,2000,22000,1234659,
204,7684,14304,-1059,377,58,20000,2000,22000,1234661,
112,7668,14400,-1052,360,62,20000,2000,22000,1234664,
160,7584,14372,-1041,372,51,20000,2000,22000,1234666,
256,7464,14640,-984,378,46,19000,2000,22000,1234679,
400,7484,14648,-968,371,7,19000,2000,22000,1234681,
268,7444,14716,-980,386,31,19000,2000,22000,1234683,
292,7392,14628,-823,516,-115,19000,2000,22000,1234696,
168,7408,14664,-821,496,-124,19000,2000,22000,1234698,
80,7244,14508,-772,545,-122,19000,2000,22000,1234700,
-124,7464,14448,-708,393,-97,19000,2000,22000,1234713,
-100,7588,14376,-700,433,-105,19000,2000,22000,1234715,
-184,7596,14444,-694,361,-88,19000,2000,22000,1234717,
-192,7692,14368,-690,283,-83,19000,2000,22000,1234730,
-316,7540,14332,-729,182,-52,19000,2000,22000,1234732,
-360,7472,14420,-695,237,-72,19000,2000,22000,1234735,
-220,7492,14348,-748,188,-26,19000,2000,22000,1234737,
-376,7360,14412,-721,145,73,19000,2000,22000,1234749,
-300,7240,14400,-772,43,108,19000,2000,22000,1234752,
-320,7204,14284,-709,83,126,19000,2000,22000,1234754,
44,7040,14552,-711,143,225,19000,2000,22000,1234767,
100,7128,14436,-643,262,203,19000,2000,22000,1234769,
188,7092,14500,-666,281,191,19000,2000,22000,1234771,
32,7296,14320,-531,576,50,19000,2000,22000,1234783,
64,7216,14220,-591,534,66,19000,2000,22000,1234786,
60,7352,14320,-508,604,71,19000,2000,22000,1234788,
-44,7512,14348,-576,559,56,19000,2000,22000,1234790,
-112,7384,14492,-517,573,71,19000,2000,22000,1234803,
-36,7464,14320,-600,513,47,19000,2000,22000,1234805,
-56,7420,14428,-508,511,61,19000,2000,22000,1234807,
-152,7380,14340,-474,496,-18,19000,2000,22000,1234820,
-144,7260,14364,-535,432,-44,19000,2000,22000,1234822,
-256,7376,14472,-487,485,-31,19000,2000,22000,1234825,
-232,7196,14496,-520,422,-14,19000,2000,22000,1234827,
-152,6944,14196,-474,378,-5,19000,3000,22000,1234839,
-112,7168,14160,-461,357,6,19000,3000,22000,1234842,
20,7036,14200,-449,430,14,19000,3000,22000,1234844,
-84,7236,14216,-389,441,74,19000,3000,22000,1234857,
-232,7212,14180,-395,521,47,19000,3000,22000,1234859,
-176,7156,14268,-424,466,80,19000,3000,22000,1234861,
-180,7204,14236,-408,518,67,19000,3000,22000,1234863,
-248,7168,14260,-446,368,124,19000,3000,22000,1234876,
