Ax,Ay,Az,Gx,Gy,Gz,Roll,Pitch,Yaw,Timestamp,Target
-2380,-3776,16108,-81,-49,52,-20000,9000,248000,1259566,
-2428,-3816,16044,42,-48,-6,-20000,9000,248000,1259578,
-2680,-3720,15972,-58,-88,-44,-20000,9000,248000,1259580,
-2668,-3788,16096,63,-88,-11,-20000,9000,248000,1259583,
-2648,-3760,16056,-63,-273,-2,-20000,9000,248000,1259595,
-2808,-3796,16100,55,-253,-23,-20000,9000,248000,1259597,
-2564,-3688,16020,-113,-341,-27,-20000,9000,248000,1259599,
-2312,-3560,15944,37,-380,-117,-20000,9000,248000,1259612,
-2352,-3612,15904,-109,-430,-123,-20000,9000,248000,1259614,
-2384,-3508,15916,48,-357,-136,-20000,9000,248000,1259617,
-2304,-3704,15920,-58,-346,-157,-20000,9000,248000,1259629,
-2208,-3696,16032,65,-276,-166,-20000,9000,248000,1259631,
-2208,-3820,16084,-50,-250,-147,-20000,8000,248000,1259634,
-2120,-3504,16024,-30,-96,-225,-20000,8000,248000,1259646,
-1956,-3428,16108,-16,-11,-185,-20000,8000,248000,1259649,
-2028,-3456,15968,8,-20,-222,-20000,8000,248000508,-3696,
-2192,-3664,15936,-554,155,-112,-21000,9000,247000,1262067,
-2312,-3700,15892,-546,137,-154,-21000,9000,247000,1262069,
0,0,0,0,0,0,-21000,9000,247000,1262069,
-2336,-3344,16236,-118,126,-243,-20000,8000,248000,1259685,
-2404,-3268,15964,-12,162,-273,-20000,8000,248000,1259698,
-2364,-3356,16052,-147,55,-291,-20000,8000,248000,1259700,
-2464,-3424,16128,-4,126,-272,-20000,8000,248000,1259702,
-2252,-3332,16360,-177,23,-268,-20000,8000,248000,1259715,
-2196,-3328,16252,-69,73,-293,-20000,8000,248000,1259717,
-2212,-3208,16260,-204,11,-255,-20000,8000,248000,1259720,
-2404,-3296,16216,-194,-39,-336,-20000,8000,248000,1259732,
-2496,-3292,16368,-231,-6,-271,-20000,8000,248000,1259735,
-2432,-3340,16356,-171,13,-316,-20000,8000,248000,1259737,
-2284,-3304,16344,-200,5,-304,-20000,8000,248000,1259749,
-2204,-3312,16260,-274,-37,-373,-20000,8000,248000,1259752,
-2032,-3336,16248,-220,-1,-299,-20000,8000,248000,1259754,
-2224,-3404,16168,-319,-55,-380,-20000,8000,248000,1259767,
-2292,-3380,16188,-203,42,-339,-20000,8000,248000,1259769,
-2036,-3232,16208,-331,-26,-379,-20000,8000,248000,1259771,
-1980,-3512,16300,-216,132,-300,-20000,8000,248000,1259784,
-1948,-3348,16384,-369,73,-340,-20000,8000,248000,1259786,
-2204,-3376,16192,-276,143,-321,-20000,8000,248000,1259788,
-2224,-3524,16196,-397,101,-307,-20000,8000,248000,1259801,
-2252,-3376,16204,-319,110,-344,-20000,8000,248000,1259803,
-2240,-3352,16096,-431,48,-338,-20000,8000,248000,1259806,
-2088,-3524,15984,-403,122,-306,-20000,8000,248000,1259818,
-1960,-3352,16016,-408,190,-249,-20000,8000,248000,1259820,
-1948,-3360,16424,-373,162,-276,-20000,8000,248000,1259823,
-2104,-3384,15912,-405,259,-243,-20000,8000,248000,1259835,
-2236,-3516,16036,-494,192,-283,-20000,8000,248000,1259838,
-2308,-3420,16036,-409,259,-213,-20000,8000,248000,1259840,
-2060,-3324,16040,-489,158,-238,-20000,8000,248000,1259853,
-1964,-3332,16048,-371,226,-191,-20000,8000,248000,1259855,
-2188,-3352,16080,-506,143,-226,-20000,8000,248000,1259857,
-2248,-3440,16152,-386,233,-177,-20000,8000,248000,1259870,
-2244,-3348,16064,-513,192,-180,-20000,8000,248000,1259872,
-2196,-3420,16020,-393,236,-181,-20000,8000,248000,1259874,
-2132,-3416,15944,-522,155,-173,-20000,8000,248000,1259887,
-2200,-3476,16100,-458,152,-251,-20000,8000,248000,1259889,
-2192,-3444,16012,-546,151,-184,-20000,8000,248000,1259892,
-2232,-3496,16004,-490,125,-236,-20000,8000,248000,1259904,
-2204,-3568,15984,-486,179,-204,-20000,8000,248000,1259907,
-2300,-3412,15972,-477,144,-251,-20000,8000,248000,1259909,
-2260,-3464,16032,-447,159,-228,-20000,8000,248000,1259921,
-2180,-3384,16120,-514,99,-260,-20000,8000,248000,1259924,
-2028,-3400,16084,-486,118,-225,-20000,8000,248000,1259926,
-2156,-3404,16088,-544,7,-336,-20000,8000,248000,1259939,
-2228,-3448,16032,-400,65,-256,-20000,8000,248000,1259941,
-2116,-3372,15888,-521,6,-337,-20000,8000,248000,1259943,
-1892,-3408,15852,-389,161,-256,-20000,8000,248000,1259956,
-1836,-3332,15832,-493,82,-295,-20000,8000,248000,1259958,
-1976,-3356,15876,-357,191,-242,-20000,8000,248000,1259960,
-2012,-3524,15680,-449,229,-238,-20000,8000,248000,1259973,
-1848,-3556,15660,-319,282,-279,-20000,8000,248000,1259975,
-1832,-3452,15916,-438,281,-256,-20000,8000,248000,1259978,
-1920,-3460,15916,-391,379,-244,-20000,8000,248000,1259990,
-1936,-3396,15780,-338,444,-165,-20000,8000,248000,1259992,
-1748,-3360,15908,-379,389,-214,-20000,8000,248000,1259995,
-1944,-3408,15808,-288,507,-102,-20000,8000,247000,1260007,
-2108,-3456,15752,-387,461,-134,-20000,8000,247000,1260010,
-2156,-3424,15956,-316,500,-89,-20000,8000,247000,1260012,
-2128,-3328,15732,-407,420,-64,-20000,8000,247000,1260024,
-2076,-3324,15856,-298,455,-27,-20000,8000,247000,1260027,
-2044,-3308,15716,-413,397,-60,-20000,8000,247000,1260029,
-2408,-3444,15684,-342,400,26,-20000,8000,247000,1260041,
-2344,-3380,15864,-480,345,38,-20000,8000,247000,1260044,
-2292,-3444,16060,-361,397,36,-20000,8000,247000,1260046,
-2200,-3400,16008,-514,315,15,-20000,8000,247000,1260058,
-2224,-3484,15844,-381,347,32,-20000,8000,247000,1260060,
-2356,-3468,15984,-522,290,22,-20000,8000,247000,1260063,
-2532,-3540,15864,-441,289,-25,-20000,9000,247000,1260075,
-2488,-3448,15920,-529,224,-5,-20000,9000,247000,1260078,
-2336,-3460,15952,-423,233,-23,-19000,9000,247000,1260080,
-2320,-3428,15936,-514,181,-41,-20000,9000,247000,1260092,
-2416,-3488,15964,-500,117,-74,-20000,9000,247000,1260095,
-2448,-3508,15784,-494,103,-45,-20000,9000,247000,1260097,
-2260,-3376,15724,-505,61,-116,-20000,9000,247000,1260110,
-2296,-3428,15808,-426,93,-62,-20000,9000,247000,1260112,
-2448,-3460,15912,-487,34,-139,-20000,9000,247000,1260114,
-2284,-3364,15860,-366,50,-164,-19000,9000,247000,1260127,
-2288,-3440,15896,-495,-13,-170,-19000,9000,247000,1260129,
-2176,-3400,15808,-319,45,-135,-19000,9000,247000,1260131,
-2168,-3476,15752,-391,13,-192,-19000,8000,247000,1260144,
-2264,-3428,15816,-274,57,-211,-19000,8000,247000,1260146,
-2160,-3536,15696,-396,18,-213,-19000,8000,247000,1260149,
-1964,-3316,15768,-312,117,-218,-19000,8000,247000,1260161,
-1972,-3320,15756,-325,141,-230,-19000,8000,247000,1260164,
-2076,-3368,15736,-256,152,-254,-19000,8000,247000,1260166,
-2092,-3528,15904,-240,254,-226,-19000,8000,247000,1260178,
-2048,-3492,15820,-311,216,-254,-19000,8000,247000,1260181,
-2100,-3520,15792,-236,253,-224,-19000,8000,247000,1260183,
-2088,-3404,15932,-318,190,-252,-19000,8000,247000,1260196,
-2220,-3384,15832,-190,239,-238,-19000,8000,247000,1260198,
-2212,-3260,15924,-332,156,-254,-19000,8000,247000,1260200,
-2144,-3352,15856,-235,193,-199,-19000,8000,247000,1260213,
-2280,-3332,15720,-360,109,-222,-19000,8000,247000,1260215,
-2296,-3320,15716,-227,147,-190,-19000,8000,247000,1260217,
-2220,-3396,15844,-350,114,-144,-19000,8000,247000,1260230,
-2000,-3372,15776,-324,90,-175,-19000,8000,247000,1260232,
-2112,-3380,15936,-359,85,-127,-19000,8000,247000,1260235,
-2228,-3392,15864,-377,31,-142,-19000,8000,247000,1260247,
-2304,-3376,15816,-322,61,-65,-19000,8000,247000,1260249,
-2300,-3364,15920,-333,-4,-92,-19000,8000,247000,1260252,
-2072,-3456,15904,-305,-7,-21,-19000,8000,247000,1260264,
-2124,-3456,15752,-372,-35,-59,-19000,8000,247000,1260267,
-2096,-3500,15856,-293,8,11,-19000,8000,247000,1260269,
-2208,-3412,15864,-360,30,-7,-19000,8000,247000,1260281,
-2016,-3320,15720,-199,121,34,-19000,8000,247000,1260284,
-2060,-3408,15876,-383,65,22,-19000,8000,247000,1260286,
-2176,-3464,15824,-199,148,12,-19000,8000,247000,1260298,
-2248,-3464,15764,-337,63,13,-19000,8000,247000,1260301,
-2236,-3520,15776,-229,144,8,-19000,8000,247000,1260303,
-2208,-3488,15908,-284,110,-32,-19000,8000,247000,1260315,
-2172,-3492,15844,-145,155,-54,-19000,8000,247000,1260318,
-2416,-3536,15920,-266,94,-38,-19000,8000,247000,1260320,
-2272,-3356,15916,-106,147,-81,-19000,8000,247000,1260333,
-2404,-3320,15984,-249,35,-116,-19000,8000,247000,1260335,
-2192,-3216,15896,-119,121,-100,-19000,8000,247000,1260337,
-2156,-3148,15876,-237,79,-88,-19000,8000,247000,1260350,
-2260,-3120,16024,-160,74,-104,-19000,8000,247000,1260352,
-2204,-3204,15804,-265,78,-79,-19000,8000,247000,1260354,
-2368,-3320,15920,-197,31,-105,-19000,8000,247000,1260367,
-2136,-3240,16000,-192,35,-85,-19000,8000,247000,1260369,
-2360,-3252,15968,-175,49,-132,-19000,8000,247000,1260372,
-2196,-3244,15904,-159,42,-51,-19000,8000,247000,1260384,
-2096,-3224,15980,-178,4,-120,-19000,8000,247000,1260386,
-2036,-3316,16092,-209,74,-82,-19000,8000,247000,1260389,
-2136,-3176,16132,-263,14,-102,-19000,8000,247000,1260401,
-2256,-3296,15956,-160,90,-54,-19000,8000,247000,1260404,
-2224,-3356,16008,-276,57,-80,-19000,8000,247000,1260406,
-2128,-3140,15988,-159,188,-9,-19000,8000,247000,1260418,
-2128,-3140,15976,-287,123,-16,-19000,8000,247000,1260421,
-2040,-3144,15996,-186,184,20,-19000,8000,247000,1260423,
-2252,-3164,16156,-344,93,5,-19000,8000,247000,1260436,
-2336,-3252,16196,-225,147,32,-19000,8000,247000,1260438,
-2240,-3128,16172,-369,97,-6,-19000,8000,247000,1260440,
-2120,-3160,16088,-309,73,-30,-19000,8000,247000,1260453,
-2180,-3224,16260,-376,96,39,-19000,8000,247000,1260455,
-2136,-3104,16444,-317,132,-7,-19000,8000,247000,1260457,
-2304,-3360,16224,-315,153,16,-19000,8000,247000,1260470,
-2372,-3188,16216,-396,134,-20,-19000,8000,247000,1260472,
-2476,-3288,16300,-377,149,8,-19000,8000,247000,1260474,
-2356,-3128,16204,-496,61,-61,-19000,8000,247000,1260487,
-2280,-3092,16364,-385,119,-19,-19000,8000,247000,1260489,
-2340,-3056,16352,-503,60,-59,-19000,8000,247000,1260492,
-2376,-3212,16272,-414,111,-78,-19000,8000,247000,1260504,
-2408,-3196,16340,-571,36,-83,-19000,8000,247000,1260506,
-2484,-3304,16364,-412,82,-101,-19000,8000,247000,1260509,
-2300,-3004,16216,-583,33,-128,-19000,8000,247000,1260521,
-2196,-3032,16248,-459,48,-99,-19000,8000,247000,1260524,
-2184,-3144,16004,-581,27,-130,-19000,8000,247000,1260526,
-2384,-3212,16036,-553,-4,-134,-19000,8000,247000,1260538,
-2380,-3212,16216,-591,22,-93,-19000,8000,247000,1260541,
-2308,-3204,15988,-538,10,-154,-19000,8000,247000,1260543,
-2132,-3104,16088,-479,98,-89,-19000,8000,247000,1260556,
-2148,-3192,15984,-551,50,-110,-19000,8000,247000,1260558,
-2088,-3272,16176,-512,118,-75,-19000,8000,247000,1260560,
-2280,-3248,16244,-555,167,-132,-19000,8000,247000,1260573,
-2324,-3200,16116,-503,206,-112,-19000,8000,247000,1260575,
-2352,-3168,16128,-545,172,-143,-19000,8000,247000,1260577,
-2164,-3160,16284,-509,292,-91,-19000,8000,247000,1260590,
-2240,-3156,16328,-643,224,-134,-19000,8000,247000,1260592,
-2188,-3276,16252,-560,253,-78,-19000,8000,247000,1260594,
-2440,-3116,16456,-691,123,-159,-19000,8000,247000,1260607,
-2532,-3196,16172,-587,193,-156,-19000,8000,247000,1260609,
-2408,-3260,16248,-731,91,-180,-19000,8000,247000,1260612,
-2204,-3172,16148,-606,152,-182,-19000,8000,247000,1260624,
-2212,-3120,16176,-718,86,-186,-19000,8000,247000,1260627,
-2228,-3164,16232,-600,126,-170,-19000,8000,247000,1260629,
-2352,-3096,16028,-753,151,-198,-19000,8000,247000,1260642,
-2292,-3192,16084,-689,171,-177,-19000,8000,247000,1260644,
-2152,-3092,16192,-774,140,-169,-19000,8000,247000,1260646,
-1964,-3120,16152,-772,277,-221,-19000,8000,247000,1260659,
-2176,-3132,16140,-709,330,-176,-19000,8000,247000,1260661,
-2056,-3080,16288,-758,317,-219,-19000,8000,247000,1260664,
-2168,-3156,16204,-672,405,-154,-19000,9000,247000,1260676,
-2248,-3168,16252,-816,328,-210,-19000,9000,247000,1260678,
-2344,-3272,16188,-665,411,-150,-19000,9000,247000,1260681,
-2256,-3224,16144,-828,277,-217,-19000,9000,247000,1260693,
-2296,-3148,16180,-706,301,-208,-19000,9000,247000,1260696,
-2276,-3212,16204,-849,206,-192,-19000,9000,247000,1260698,
-2456,-3084,16220,-752,161,-181,-19000,9000,247000,1260710,
-2320,-3220,16004,-878,119,-167,-19000,9000,247000,1260713,
-2276,-3140,16144,-771,147,-146,-19000,9000,247000,1260715,
-2080,-3108,16068,-938,74,-108,-19000,9000,247000,1260728,
-1996,-3128,16136,-809,115,-126,-19000,9000,247000,1260730,
-2152,-3236,16248,-911,99,-124,-19000,9000,247000,1260732,
-2164,-3268,15972,-906,196,-129,-19000,9000,247000,1260745,
-2004,-3276,16108,-905,231,-83,-19000,9000,247000,1260747,
-2140,-3272,15976,-892,219,-130,-19000,9000,247000,1260749,
-2028,-3324,15976,-922,342,-99,-19000,9000,247000,1260762,
-2088,-3196,15956,-961,302,-132,-19000,9000,247000,1260764,
-1968,-3236,15980,-906,368,-68,-19000,9000,247000,1260766,
-2180,-3280,15944,-979,391,-96,-19000,9000,247000,1260779,
-2300,-3272,15804,-881,444,-23,-19000,9000,247000,1260781,
-2384,-3332,15772,-987,400,-59,-19000,9000,247000,1260784,
-2224,-3332,15888,-834,376,-21,-19000,9000,247000,1260796,
-2300,-3348,15920,-984,334,-55,-19000,9000,247000,1260799,
-2384,-3372,15956,-862,339,-43,-19000,9000,247000,1260801,
-2436,-3412,15964,-965,182,-62,-19000,9000,247000,1260813,
-2444,-3340,15860,-848,200,-45,-19000,9000,247000,1260816,
-2368,-3224,15936,-978,152,-77,-19000,9000,247000,1260818,
-2260,-3384,15880,-846,144,-80,-19000,9000,247000,1260830,
-2224,-3480,15972,-951,97,-52,-19000,9000,247000,1260833,
-2376,-3392,15992,-821,136,-91,-19000,9000,247000,1260835,
-2380,-3396,15856,-924,62,-101,-20000,9000,247000,1260848,
-2308,-3352,15980,-857,87,-134,-20000,9000,247000,1260850,
-2320,-3484,15824,-940,71,-135,-20000,9000,247000,1260852,
-2216,-3396,15748,-956,2,-144,-20000,9000,247000,1260865,
-2248,-3304,15884,-909,35,-102,-20000,9000,247000,1260867,
-2232,-3340,15820,-960,-16,-129,-20000,9000,247000,1260869,
-2504,-3464,15968,-901,-85,-97,-20000,9000,247000,1260882,
-2492,-3444,15908,-953,-128,-96,-20000,9000,247000,1260884,
-2440,-3476,15932,-921,-128,-64,-20000,9000,247000,1260887,
-2096,-3416,15848,-996,-187,-123,-20000,9000,247000,1260899,
-2056,-3380,15760,-876,-64,-76,-20000,9000,247000,1260901,
-2100,-3460,15956,-964,-156,-89,-20000,9000,247000,1260904,
-2208,-3456,15896,-864,93,-9,-20000,9000,247000,1260916,
-2248,-3472,15912,-1013,5,-102,-20000,9000,247000,1260918,
-2236,-3560,15968,-877,88,-58,-20000,9000,247000,1260921,
-2052,-3532,15976,-990,201,-66,-20000,9000,247000,1260933,
-2076,-3476,15928,-847,289,-41,-20000,9000,247000,1260936,
-2036,-3520,15952,-976,232,-76,-20000,9000,247000,1260938,
-2328,-3524,15884,-840,419,-52,-20000,9000,247000,1260951,
-2256,-3464,15768,-960,369,-47,-20000,9000,247000,1260953,
-2376,-3564,15704,-842,430,-36,-20000,9000,247000,1260955,
-2328,-3468,15880,-924,364,-55,-20000,9000,247000,1260968,
-2296,-3548,15824,-862,364,-62,-20000,9000,247000,1260970,
-2292,-3496,15828,-950,357,-56,-20000,9000,247000,1260972,
-2428,-3504,15808,-903,184,-94,-20000,9000,247000,1260985,
-2568,-3532,15732,-862,198,-55,-20000,9000,247000,1260987,
-2452,-3400,15696,-885,101,-96,-20000,9000,247000,1260989,
-2352,-3500,15692,-844,50,-66,-20000,9000,247000,1261002,
-2388,-3464,15708,-949,-65,-74,-20000,9000,247000,1261004,
-2460,-3452,15740,-822,1,-43,-20000,9000,247000,1261007,
-2448,-3548,15820,-914,-86,-128,-20000,9000,247000,1261019,
-2340,-3560,15708,-769,-8,-85,-20000,9000,247000,1261022,
-2248,-3620,15872,-885,-62,-118,-20000,9000,247000,1261024,
-2148,-3516,15780,-741,73,-146,-20000,9000,247000,1261036,
-2240,-3524,15808,-805,114,-154,-20000,9000,247000,1261039,
-2108,-3484,15912,-731,208,-164,-20000,9000,247000,1261041,
-2200,-3612,15776,-756,396,-130,-20000,9000,247000,1261054,
-2240,-3528,15856,-783,375,-131,-20000,9000,247000,1261056,
-2280,-3568,15884,-780,466,-109,-20000,9000,247000,1261058,
-2512,-3524,15768,-815,461,-162,-20000,9000,247000,1261071,
-2316,-3528,15756,-791,450,-106,-20000,9000,247000,1261073,
-2292,-3532,15840,-812,368,-181,-20000,9000,247000,1261075,
-2796,-3632,15888,-761,138,-119,-20000,9000,247000,1261088,
-2712,-3632,15672,-855,12,-190,-20000,9000,247000,1261090,
-2516,-3736,15872,-695,113,-35,-21000,9000,247000,1262118,
-2396,-3700,15772,-638,123,-2,-21000,9000,247000,1262121,
-2496,-3828,15888,-723,-30,-80,-21000,9000,247000,1262133,
-2548,-3788,15932,-548,24,-40,-21000,9000,247000,1262135,
-2516,-3760,15912,-706,-51,-38,-21000,9000,247000,1262138,
-2264,-3664,15900,-557,43,-23,-21000,9000,247000,1262150,
-2280,-3660,15984,-678,-13,-36,-21000,9000,247000,1262152,
-2356,-3700,15936,-555,45,-60,-21000,9000,247000,1262155,
-2372,-3732,15908,-671,52,-24,-21000,9000,247000,1262167,
-2484,-3624,15860,-606,99,-60,-21000,9000,247000,1262170,
-2384,-3720,16136,-707,71,-66,-21000,9000,247000,1262172,
-2264,-3756,15924,-641,141,-110,-21000,9000,247000,1262184,
-2420,-3668,15956,-721,115,-65,-21000,9000,247000,1262187,
-2240,-3660,16048,-613,135,-104,-21000,9000,247000,1262189,
-2472,-3736,15932,-679,100,-102,-21000,9000,247000,1262202,
-2528,-3796,15948,-700,69,-126,-21000,9000,247000,1262204,
-2476,-3816,15936,-687,86,-81,-21000,9000,247000,1262206,
-2384,-3680,15896,-715,22,-115,-21000,9000,247000,1262219,
-2344,-3704,16060,-651,57,-114,-21000,9000,247000,1262221,
-2344,-3756,16000,-717,-8,-144,-21000,9000,247000,1262223,
-2504,-3780,16092,-638,80,-153,-21000,9000,247000,1262236,
-2612,-3756,15924,-753,-17,-118,-21000,9000,247000,1262238,
-2464,-3792,16048,-628,53,-125,-21000,9000,247000,1262241,
-2248,-3836,15996,-753,-23,-166,-21000,9000,247000,1262253,
-2192,-3764,15932,-620,89,-182,-21000,9000,247000,1262256,
-2456,-3840,16028,-748,32,-174,-21000,9000,247000,1262258,
-2480,-3836,16164,-677,139,-192,-21000,9000,247000,1262270,
-2400,-3764,16064,-792,136,-175,-21000,9000,247000,1262273,
-2452,-3808,16036,-668,177,-173,-21000,9000,247000,1262275,
-2432,-3688,15928,-840,63,-187,-21000,9000,247000,1262288,
-2436,-3624,15872,-758,74,-162,-21000,9000,247000,1262290,
-2472,-3692,15956,-861,-8,-160,-21000,9000,247000,1262292,
-2516,-3692,15748,-868,-104,-197,-21000,9000,247000,1262305,
-2580,-3684,15728,-910,-144,-121,-21000,9000,247000,1262307,
-2616,-3836,15740,-873,-191,-173,-21000,9000,247000,1262309,
-2356,-3876,15868,-855,-322,-144,-21000,9000,247000,1262322,
-2468,-3916,15608,-936,-442,-200,-21000,9000,247000,1262324,
-2324,-3888,15760,-865,-391,-140,-21000,9000,247000,1262327,
-2396,-3908,15396,-907,-513,-140,-21000,9000,247000,1262339,
-2488,-3880,15576,-785,-435,-127,-21000,9000,247000,1262342,
-2336,-3832,15356,-905,-516,-156,-21000,9000,247000,1262344,
-2356,-3800,15132,-721,-538,-211,-21000,9000,247000,1262356,
-2528,-3892,15120,-871,-629,-230,-21000,9000,247000,1262359,
-2464,-3864,15068,-716,-570,-223,-21000,9000,247000,1262361,
-2688,-3920,14852,-760,-748,-273,-21000,8000,247000,1262374,
-2648,-4004,14776,-621,-759,-287,-21000,8000,247000,1262376,
-2604,-3964,14964,-726,-796,-283,-21000,8000,247000,1262378,
-2536,-3996,14576,-585,-958,-281,-21000,8000,247000,1262391,
-2524,-4092,14464,-519,-939,-272,-21000,8000,247000,1262393,
-2448,-4080,14472,-523,-979,-299,-21000,8000,247000,1262395,
-2640,-4100,13960,-326,-1069,-319,-21000,8000,247000,1262408,
-2752,-4200,13844,-373,-1129,-364,-21000,8000,247000,1262410,
-2788,-4036,13868,-245,-1095,-348,-21000,8000,247000,1262412,
-2996,-4084,13440,-253,-1544,-439,-21000,8000,247000,1262425,
-3000,-4116,13536,-59,-1545,-439,-21000,8000,247000,1262427,
-3460,-4292,12788,11,-2251,-557,-21000,8000,247000,1262440,
-3516,-4244,12864,173,-2333,-609,-21000,8000,247000,1262442,
-3628,-4276,12768,84,-2535,-561,-21000,8000,247000,1262444,
-3376,-4232,12276,483,-3245,-728,-21000,7000,247000,1262457,
-3308,-4136,12216,561,-3374,-709,-21000,7000,247000,1262459,
-3336,-4184,12024,649,-3576,-794,-21000,7000,247000,1262462,
-3236,-4024,11592,1038,-4210,-893,-21000,7000,247000,1262474,
-2900,-4136,11284,1018,-4354,-943,-21000,7000,247000,1262477,
-3096,-4104,11124,1217,-4403,-956,-21000,7000,247000,1262479,
-2640,-4336,10912,1603,-4781,-1033,-21000,6000,247000,1262492,
-2688,-4336,10684,1857,-4871,-1059,-21000,6000,247000,1262494,
-2600,-4264,10652,1788,-4980,-1059,-21000,6000,247000,1262496,
-2416,-4352,10408,2519,-5038,-1173,-20000,6000,247000,1262509,
-2528,-4348,10188,2570,-5055,-1129,-20000,6000,247000,1262511,
-2496,-4356,10260,2766,-5008,-1203,-20000,6000,247000,1262513,
-1636,-4156,10304,3505,-4385,-1343,-20000,5000,247000,1262526,
-1408,-4148,10220,3702,-4179,-1446,-20000,5000,247000,1262528,
-984,-3632,10228,4390,-2736,-1542,-19000,5000,247000,1262541,
-1016,-3480,10404,4447,-2530,-1599,-19000,5000,247000,1262543,
-828,-3376,10304,4572,-2188,-1584,-19000,5000,247000,1262546,
-1468,-3084,10332,5051,-1167,-1711,-19000,5000,247000,1262558,
-1528,-3104,10288,5276,-972,-1669,-19000,5000,247000,1262560,
-1940,-3112,10196,5292,-874,-1748,-19000,5000,247000,1262563,
-2368,-3340,10324,6108,-673,-1937,-18000,4000,247000,1262575,
-2380,-3320,10576,6092,-789,-2018,-18000,4000,247000,1262578,
-2344,-3380,10468,6393,-763,-2056,-18000,4000,247000,1262580,
-2252,-2956,10748,6982,-1224,-2345,-17000,4000,246000,1262593,
-2188,-2724,10768,7238,-1216,-2415,-17000,4000,246000,1262595,
-2080,-2776,10764,7221,-1320,-2454,-17000,4000,246000,1262597,
-1592,-2168,10860,7984,-1410,-2731,-16000,4000,246000,1262610,
-1644,-2072,10820,8031,-1386,-2720,-16000,4000,246000,1262612,
-936,-1360,10888,8685,-1011,-2946,-15000,4000,246000,1262625,
-1088,-1128,10980,8715,-881,-2914,-15000,4000,246000,1262627,
-884,-1144,11316,8874,-771,-2947,-15000,4000,246000,1262629,
-1172,-752,11556,9210,-121,-2820,-14000,4000,246000,1262642,
-2620,-644,11372,9415,-1437,-3021,-14000,4000,246000,1262644,
148,-856,11316,9255,407,-2848,-13000,4000,245000,1262646,
-1488,-400,11816,9724,-86,-2950,-12000,4000,245000,1262659,
-1652,-508,11992,9738,-202,-2808,-12000,4000,245000,1262661,
-1668,-560,11968,9893,-450,-2835,-12000,4000,245000,1262664,
-1764,-352,11864,10411,-1298,-2888,-11000,3000,245000,1262676,
-1660,-320,12036,10519,-1488,-2943,-11000,3000,245000,1262678,
-1328,-268,12240,10627,-1515,-2896,-11000,3000,245000,1262681,
-300,128,12480,11225,-1599,-3007,-10000,3000,245000,1262693,
44,224,12688,11409,-1426,-2988,-9000,3000,244000,1262696,
216,192,13048,11485,-1310,-3075,-9000,3000,244000,1262698,
916,424,14600,12094,369,-2746,-8000,3000,244000,1262710,
1332,840,14592,12031,683,-2803,-8000,3000,244000,1262713,
1196,976,14564,12138,1131,-2769,-7000,3000,244000,1262715,
188,1960,15236,11942,2602,-2856,-6000,3000,244000,1262728,
-244,2188,15340,11984,2667,-2761,-6000,3000,244000,1262730,
-476,2264,15488,11791,2598,-2741,-6000,3000,244000,1262732,
-1688,2492,15292,11922,2040,-2620,-5000,3000,243000,1262745,
-1832,2500,15408,11752,1864,-2619,-4000,4000,243000,1262747,
-1972,2496,15772,11925,1749,-2611,-4000,4000,243000,1262749,
-2228,3104,16404,11851,-726,-2519,-3000,3000,243000,1262762,
-1956,3204,16728,12010,-1137,-2554,-3000,3000,243000,1262764,
-1924,3288,16956,11844,-1564,-2564,-2000,3000,243000,1262767,
-1272,3476,18616,11946,-3067,-2527,-1000,3000,243000,1262779,
-880,3692,19108,11845,-3215,-2456,-1000,3000,243000,1262781,
-484,3880,19408,11938,-3376,-2436,-1000,3000,243000,1262784,
1112,5056,20180,11487,-3977,-2248,0,3000,242000,1262796,
1368,5156,20328,11394,-3990,-2213,0,3000,242000,1262799,
1624,5168,20248,11150,-3452,-2125,0,2000,242000,1262801,
1064,5492,21316,10214,-2370,-1693,1000,2000,242000,1262814,
1156,5588,21084,10141,-2196,-1616,1000,2000,242000,1262816,
880,5724,21204,9906,-2190,-1631,1000,2000,242000,1262818,
344,6276,20940,9216,-1996,-1471,2000,2000,242000,1262831,
352,6384,20980,8926,-2221,-1380,2000,2000,242000,1262833,
440,6440,20772,8859,-2272,-1283,3000,2000,242000,1262835,
-108,6052,21916,8135,-2599,-1208,3000,2000,242000,1262848,
-300,5956,21984,8173,-2585,-1188,4000,2000,242000,1262850,
-236,5984,22092,7917,-2650,-1228,4000,1000,242000,1262852,
524,6428,23052,7405,-2573,-1292,5000,1000,242000,1262865,
580,6488,23364,7076,-2578,-1389,5000,1000,242000,1262867,
656,6616,23460,7089,-2403,-1427,5000,1000,242000,1262870,
240,6932,23864,5930,-1817,-1408,5000,1000,241000,1262882,
52,6968,23892,5815,-1688,-1423,6000,1000,241000,1262884,
-92,7028,23832,5526,-1562,-1371,6000,1000,241000,1262887,
-728,6892,24024,4594,-1521,-1468,6000,1000,241000,1262899,
-944,6888,24184,4405,-1518,-1453,6000,1000,241000,1262902,
-1304,6692,24444,4332,-1568,-1470,6000,1000,241000,1262904,
-1540,6452,25208,3561,-1615,-1520,7000,1000,241000,1262916,
-1252,6540,25316,3338,-1624,-1690,7000,1000,241000,1262919,
-1136,6508,25648,3257,-1607,-1715,7000,1000,241000,1262921,
-1016,6892,26772,2252,-1221,-2051,7000,0,241000,1262934,
-1028,6880,26892,2126,-1025,-2027,7000,0,241000,1262936,
-924,7040,27108,1824,-1001,-2131,7000,0,241000,1262938,
-1204,7496,27440,717,-471,-2548,7000,0,240000,1262951,
-1388,7556,27416,348,-495,-2661,7000,0,240000,1262953,
-1436,7472,27552,231,-348,-2689,7000,0,240000,1262955,
-1728,7420,27972,-1276,-107,-2862,7000,0,240000,1262968,
-1924,7348,27964,-1367,-36,-2880,7000,0,240000,1262970,
-2080,7352,27968,-1776,-128,-2961,7000,0,240000,1262972,
-2612,7308,27900,-2871,-574,-3153,7000,1000,240000,1262985,
-2728,7516,27920,-3278,-731,-3169,7000,1000,240000,1262987,
-2608,7392,28020,-3364,-756,-3178,7000,1000,240000,1262989,
-1792,7604,28080,-4872,-1078,-3231,6000,0,239000,1263002,
-1824,7588,28048,-5003,-1054,-3259,6000,0,239000,1263004,
-1736,7472,27944,-5358,-1094,-3231,6000,0,239000,1263006,
-1188,7404,27656,-6713,-758,-3300,6000,0,239000,1263019,
-1068,7500,27468,-7012,-633,-3267,6000,0,239000,1263021,
-1172,7340,27312,-7233,-551,-3289,5000,0,239000,1263024,
-1084,7156,26764,-8472,-31,-3259,5000,0,238000,1263036,
-1240,7220,26572,-8720,-13,-3336,5000,0,238000,1263039,
-1076,7032,26364,-8901,74,-3311,4000,0,238000,1263041,
-1508,7144,25656,-10135,-17,-3474,3000,0,238000,1263053,
-1856,7044,25620,-10230,-22,-3476,3000,1000,238000,1263056,
-1896,7016,25496,-10565,-181,-3554,3000,1000,238000,1263058,
-1988,6960,23636,-11504,-1070,-3720,2000,0,237000,1263071,
-2064,6800,23572,-11790,-1346,-3776,2000,0,237000,1263073,
-2068,6716,23480,-11830,-1394,-3758,2000,0,237000,1263075,
-1776,5976,22276,-12673,-2247,-3841,1000,0,237000,1263088,
-1600,6076,22092,-12710,-2320,-3881,0,0,237000,1263090,
-1416,5876,22056,-12914,-2432,-3913,0,0,237000,1263092,
-192,5428,21328,-13351,-2240,-4097,0,0,236000,1263105,
44,5408,21272,-13426,-2116,-4042,0,0,236000,1263107,
168,5436,21024,-13506,-1966,-4127,0,0,236000,1263109,
560,5404,20920,-13632,-1783,-4103,-1000,0,236000,1263112,
644,5148,19876,-14171,-676,-4177,-2000,0,236000,1263124,
232,5112,19660,-14171,-437,-4116,-2000,0,236000,1263127,
320,4956,19504,-14292,-312,-4161,-2000,0,236000,1263129,
344,4440,18232,-14510,497,-4207,-4000,0,235000,1263141,
396,4356,17840,-14695,471,-4264,-4000,0,235000,1263144,
252,4376,17668,-14610,591,-4254,-4000,0,235000,1263146,
-424,3756,16564,-14859,398,-4401,-6000,0,235000,1263159,
-376,3732,16244,-14751,346,-4361,-6000,0,235000,1263161,
-292,3656,16084,-14905,180,-4384,-6000,0,234000,1263163,
-296,3084,15268,-14831,-381,-4358,-7000,0,234000,1263176,
-388,2904,15056,-14970,-574,-4373,-8000,0,234000,1263178,
-464,2796,14884,-14832,-616,-4336,-8000,0,234000,1263180,
-324,1980,14336,-14859,-1408,-4206,-9000,0,234000,1263193,
-256,1904,14348,-14726,-1465,-4165,-9000,0,233000,1263195,
-220,1736,14276,-14821,-1621,-4131,-10000,0,233000,1263197,
-268,1200,13680,-14533,-2222,-3912,-11000,0,233000,1263210,
-244,1212,13520,-14585,-2361,-3859,-11000,0,233000,1263212,
-240,1172,13276,-14438,-2417,-3852,-11000,0,233000,1263214,
400,1004,12392,-14225,-3056,-3724,-13000,0,233000,1263227,
504,1052,12056,-14076,-3101,-3734,-13000,0,233000,1263229,
452,896,11880,-14099,-3221,-3727,-13000,-1000,233000,1263231,
656,-36,12012,-13650,-3232,-3778,-14000,-1000,232000,1263244,
860,-188,11924,-13681,-3226,-3770,-14000,-1000,232000,1263246,
936,-500,12036,-13512,-3124,-3792,-15000,-1000,232000,1263248,
1080,-936,11696,-13141,-2844,-3762,-16000,-1000,232000,1263261,
988,-1024,11568,-12981,-2857,-3768,-16000,-2000,232000,1263263,
1080,-916,11472,-12978,-2836,-3693,-16000,-2000,232000,1263266,
1264,-1060,10568,-12537,-2601,-3760,-17000,-2000,232000,1263278,
1356,-1216,10436,-12425,-2656,-3737,-18000,-2000,232000,1263280,
1380,-2136,10432,-11968,-2738,-3917,-19000,-2000,231000,1263293,
1400,-2368,10680,-11724,-2621,-3897,-19000,-3000,231000,1263295,
1576,-2516,10484,-11683,-2685,-3917,-19000,-3000,231000,1263298,
1924,-2856,10544,-10801,-2685,-3936,-20000,-3000,231000,1263310,
2112,-2836,10440,-10810,-2688,-3931,-20000,-3000,231000,1263312,
2872,-2772,10188,-10083,-2045,-3821,-21000,-3000,231000,1263325,
2892,-2960,10184,-10070,-1916,-3783,-21000,-4000,231000,1263327,
2964,-3080,10096,-9837,-1703,-3771,-22000,-4000,230000,1263329,
2924,-3680,10204,-9399,-785,-3680,-22000,-4000,230000,1263342,
3012,-3688,10172,-9180,-633,-3729,-23000,-4000,230000,1263344,
2704,-3872,10112,-9153,-552,-3665,-23000,-4000,230000,1263347,
2544,-4448,10176,-8444,-44,-3560,-24000,-4000,230000,1263359,
2604,-4552,10072,-8400,-52,-3504,-24000,-4000,230000,1263362,
2448,-4588,9600,-7763,43,-3303,-24000,-4000,229000,1263374,
2436,-4784,9580,-7619,68,-3217,-25000,-4000,229000,1263376,
2500,-4788,9388,-7510,70,-3227,-25000,-4000,229000,1263379,
3188,-5004,9124,-6725,334,-3033,-25000,-5000,229000,1263391,
3264,-4948,9088,-6699,363,-3041,-25000,-5000,229000,1263394,
3388,-5076,9016,-6488,506,-2945,-26000,-5000,229000,1263396,
3084,-5128,9460,-5998,1214,-2711,-26000,-5000,229000,1263409,
2880,-5236,9564,-5756,1396,-2579,-26000,-5000,229000,1263411,
2852,-5212,9704,-5837,1359,-2552,-26000,-5000,229000,1263413,
2168,-5672,9672,-5194,1252,-2341,-27000,-5000,228000,1263426,
2080,-5812,9628,-5253,1076,-2357,-27000,-5000,228000,1263428,
1932,-5764,9624,-5015,1004,-2320,-27000,-5000,228000,1263430,
1356,-6336,9616,-4572,-91,-2158,-27000,-5000,228000,1263443,
1372,-6328,9536,-4353,-167,-2110,-28000,-5000,228000,1263445,
1360,-6388,9336,-4360,-380,-2029,-28000,-5000,228000,1263448,
1576,-6352,9456,-3670,-996,-1888,-28000,-5000,228000,1263460,
1724,-6380,9592,-3591,-1022,-1825,-28000,-5000,228000,1263462,
1904,-6292,9556,-3413,-1049,-1895,-28000,-5000,228000,1263465,
2428,-6268,9372,-2787,-1015,-1748,-28000,-5000,228000,1263477,
2272,-6300,9588,-2704,-993,-1773,-28000,-5000,228000,1263480,
2916,-7096,10292,-1955,-322,-1680,-29000,-6000,228000,1263492,
3076,-7212,10572,-1899,-194,-1686,-29000,-6000,228000,1263495,
3216,-7344,10912,-1702,1,-1649,-29000,-6000,228000,1263497,
3280,-7212,11268,-1338,1151,-1511,-29000,-6000,227000,1263509,
3040,-7232,11324,-1099,1394,-1439,-29000,-6000,227000,1263512,
2936,-7012,11180,-1162,1453,-1447,-29000,-6000,227000,1263514,
2396,-6896,10924,-624,2180,-1120,-29000,-6000,227000,1263527,
2164,-7104,11092,-685,2162,-1075,-29000,-6000,227000,1263529,
2200,-7092,11188,-492,2284,-1023,-29000,-6000,227000,1263531,
1612,-7708,12188,-108,2218,-1010,-29000,-5000,227000,1263544,
1640,-7748,12448,154,2304,-1023,-29000,-5000,227000,1263546,
1744,-7320,12924,380,1894,-1029,-29000,-5000,227000,1263559,
1832,-7272,12896,514,1751,-1054,-29000,-5000,227000,1263561,
1576,-7180,13184,464,1624,-1083,-29000,-5000,227000,1263563,
2044,-6776,12988,769,1438,-1092,-29000,-5000,226000,1263576,
2160,-6676,13060,808,1463,-1031,-29000,-5000,226000,1263578,
2320,-6572,13104,873,1488,-1070,-29000,-5000,226000,1263580,
2520,-6552,13544,995,1907,-971,-29000,-5000,226000,1263593,
2408,-6632,13544,962,1937,-943,-29000,-5000,226000,1263595,
2512,-6588,13652,1127,2074,-938,-29000,-5000,226000,1263598,
1984,-6524,13968,1065,2422,-622,-28000,-5000,226000,1263610,
1788,-6564,14136,1159,2493,-571,-28000,-5000,226000,1263612,
1736,-6576,14180,1054,2439,-548,-28000,-5000,226000,1263615,
1384,-6628,14136,1219,2168,-342,-28000,-5000,226000,1263627,
1420,-6636,14180,1144,2062,-279,-28000,-5000,226000,1263630,
1348,-6736,14020,1250,2044,-304,-28000,-5000,226000,1263632,
928,-6436,13972,1318,1414,-122,-28000,-4000,226000,1263644,
844,-6320,14080,1354,1241,-179,-28000,-4000,226000,1263647,
1000,-6316,13944,1369,1091,-125,-28000,-4000,226000,1263649,
1372,-6416,14920,1491,703,-87,-28000,-4000,226000,1263662,
1412,-6348,15116,1518,722,-30,-28000,-4000,226000,1263664,
1312,-6344,14996,1559,645,-98,-28000,-4000,226000,1263666,
1200,-5824,15160,1494,600,-85,-28000,-4000,225000,1263679,
1132,-5760,15336,1383,538,-78,-27000,-4000,225000,1263681,
1092,-5740,15200,1454,565,25,-27000,-4000,225000,1263683,
648,-5744,15324,1261,337,215,-27000,-4000,225000,1263696,
576,-5660,15200,1346,330,254,-27000,-4000,225000,1263698,
508,-5724,15236,1288,127,223,-27000,-4000,225000,1263700,
196,-5728,15348,1386,-619,258,-27000,-4000,226000,1263713,
276,-5620,15368,1234,-817,225,-27000,-4000,226000,1263715,
208,-5880,15496,1388,-909,293,-27000,-4000,226000,1263718,
884,-5768,15852,1310,-1401,123,-27000,-4000,226000,1263730,
1236,-5708,15712,1452,-1327,103,-27000,-4000,226000,1263732,
1088,-5584,15740,1307,-1448,44,-27000,-4000,226000,1263735,
1532,-5260,16160,1387,-1085,77,-27000,-4000,226000,1263747,
1396,-5256,15892,1243,-1056,130,-27000,-5000,226000,1263750,
1512,-5236,16076,1347,-929,85,-26000,-5000,226000,1263752,
1368,-5284,16056,1247,-472,131,-26000,-5000,226000,1263764,
1056,-5336,16272,1190,-455,107,-26000,-5000,226000,1263767,
964,-5432,16164,1215,-366,143,-26000,-5000,226000,1263769,
852,-5308,16176,1128,-298,-21,-26000,-5000,226000,1263782,
924,-5156,16324,1236,-261,-19,-26000,-5000,226000,1263784,
1024,-5224,16272,1108,-293,-89,-26000,-5000,226000,1263786,
844,-5076,16372,1128,-147,-31,-26000,-5000,226000,1263799,
652,-5132,16260,981,-175,-90,-26000,-5000,226000,1263801,
1004,-5084,16400,1084,-98,-9,-26000,-5000,226000,1263803,
700,-5060,16052,919,-288,-128,-26000,-5000,226000,1263816,
792,-5096,16196,1065,-264,-120,-26000,-5000,226000,1263818,
604,-5204,16296,925,-349,-154,-26000,-5000,226000,1263820,
976,-5160,16520,1102,-222,-169,-25000,-5000,226000,1263833,
1116,-5132,16516,965,-245,-198,-25000,-5000,226000,1263835,
1260,-5096,16476,1080,-154,-225,-25000,-5000,226000,1263838,
1312,-5116,16808,963,151,-299,-25000,-5000,226000,1263850,
1240,-5116,16792,1069,237,-336,-25000,-5000,226000,1263852,
1332,-5064,16816,909,261,-327,-25000,-5000,226000,1263855,
1380,-4640,16452,920,675,-459,-25000,-5000,226000,1263867,
1296,-4676,16360,781,754,-403,-25000,-5000,226000,1263870,
1160,-4676,16508,891,832,-395,-25000,-5000,226000,1263872,
1024,-4452,16064,624,960,-272,-25000,-4000,225000,1263884,
992,-4408,16064,696,935,-271,-25000,-4000,225000,1263887,
956,-4464,16028,574,852,-268,-25000,-4000,225000,1263889,
520,-4860,16380,602,564,-313,-25000,-4000,225000,1263902,
384,-5016,16324,526,435,-276,-25000,-4000,225000,1263904,
452,-4980,16400,637,351,-310,-25000,-4000,225000,1263906,
808,-4888,16792,547,-120,-331,-25000,-4000,225000,1263919,
960,-4924,16612,598,-151,-399,-25000,-4000,225000,1263921,
940,-4964,16496,541,-224,-352,-25000,-4000,225000,1263923,
1196,-4736,16276,510,-72,-353,-24000,-4000,225000,1263936,
1244,-4816,16300,468,-8,-325,-24000,-4000,225000,1263938,
1192,-4684,16192,524,49,-337,-24000,-4000,225000,1263940,
1072,-4488,16196,361,197,-302,-24000,-4000,225000,1263953,
1036,-4520,16080,392,128,-326,-24000,-4000,225000,1263955,
944,-4600,16052,332,126,-315,-24000,-4000,225000,1263957,
760,-4680,16136,271,11,-420,-24000,-4000,225000,1263970,
764,-4764,15984,288,9,-345,-24000,-4000,225000,1263972,
868,-4804,16108,325,-14,-411,-24000,-4000,225000,1263974,
1084,-4836,16224,353,-86,-425,-24000,-4000,225000,1263987,
1152,-4944,16232,332,-91,-465,-24000,-4000,225000,1263989,
1128,-4984,16396,317,-26,-444,-24000,-4000,225000,1263991,
1616,-4664,16252,328,249,-438,-24000,-4000,225000,1264004,
1624,-4636,16008,318,367,-388,-24000,-4000,225000,1264006,
1592,-4620,16096,305,462,-393,-24000,-4000,225000,1264008,
1460,-4648,16116,302,1055,-262,-24000,-4000,225000,1264021,
1604,-4512,16072,186,1064,-279,-24000,-4000,225000,1264023,
1396,-4684,16128,246,1162,-275,-24000,-4000,225000,1264026,
1032,-4788,16216,122,1102,-312,-24000,-4000,225000,1264038,
784,-4844,16188,268,1099,-321,-24000,-4000,225000,1264041,
832,-4980,16372,122,997,-330,-24000,-4000,225000,1264043,
948,-4832,16404,250,728,-389,-24000,-4000,225000,1264055,
912,-4780,16352,107,610,-380,-24000,-4000,225000,1264058,
788,-4876,16120,260,622,-422,-24000,-4000,225000,1264060,
1044,-4424,15980,64,483,-298,-24000,-4000,225000,1264072,
1260,-4304,16040,154,557,-277,-23000,-4000,225000,1264075,
1252,-4268,15984,6,546,-250,-23000,-4000,225000,1264077,
1064,-4348,15900,23,592,-229,-23000,-4000,225000,1264090,
1048,-4420,15972,-20,620,-200,-23000,-4000,225000,1264092,
1228,-4472,16072,42,645,-227,-23000,-4000,225000,1264094,
1292,-4708,15980,110,666,-160,-23000,-4000,225000,1264107,
1412,-4724,16200,68,650,-218,-23000,-4000,225000,1264109,
1060,-4660,15996,117,670,-192,-23000,-4000,225000,1264111,
1088,-4664,16024,66,531,-210,-23000,-4000,225000,1264124,
1028,-4636,16076,213,624,-175,-23000,-4000,225000,1264126,
1116,-4576,16052,46,583,-205,-23000,-4000,225000,1264129,
1072,-4492,16072,106,589,-100,-23000,-4000,224000,1264141,
1132,-4484,16144,-12,499,-86,-23000,-4000,224000,1264143,
1004,-4452,15964,112,552,-96,-23000,-4000,224000,1264145,
928,-4292,15668,-106,402,-23,-23000,-4000,224000,1264158,
892,-4352,15880,25,415,23,-23000,-4000,224000,1264160,
936,-4472,15836,-141,386,16,-23000,-4000,224000,1264162,
1228,-4592,16128,5,490,74,-23000,-4000,224000,1264175,
1176,-4732,16180,-123,429,77,-23000,-4000,224000,1264177,
1352,-4648,16308,15,479,81,-23000,-4000,224000,1264179,
1236,-4552,16212,-113,542,63,-23000,-4000,224000,1264192,
1296,-4504,16176,28,646,88,-23000,-4000,224000,1264194,
1124,-4556,16220,-136,636,64,-23000,-4000,224000,1264196,
888,-4408,16088,-52,837,124,-23000,-4000,224000,1264209,
952,-4340,16012,-194,779,125,-23000,-3000,224000,1264211,
840,-4300,15988,-93,825,106,-23000,-3000,224000,1264214,
508,-4340,15940,-286,438,83,-23000,-3000,224000,1264226,
288,-4472,15948,-177,382,79,-23000,-3000,224000,1264229,
356,-4428,16056,-289,294,96,-23000,-3000,224000,1264231,
608,-4476,16076,-305,-69,92,-23000,-3000,224000,1264243,
684,-4620,15884,-244,-68,159,-23000,-3000,224000,1264246,
564,-4632,15992,-263,-108,116,-23000,-3000,224000,1264248,
776,-4684,16060,-191,-298,183,-23000,-3000,224000,1264260,
792,-4648,16128,-235,-352,159,-23000,-3000,224000,1264263,
868,-4672,16272,-179,-298,185,-23000,-3000,224000,1264265,
1044,-4464,16212,-226,-245,152,-23000,-3000,224000,1264278,
920,-4516,16168,-133,-123,183,-23000,-3000,224000,1264280,
896,-4472,16272,-180,-121,101,-23000,-3000,224000,1264282,
968,-4360,16372,-144,269,183,-23000,-3000,224000,1264295,
1112,-4348,16236,-288,233,149,-23000,-3000,224000,1264297,
880,-4468,16312,-167,338,152,-23000,-3000,224000,1264299,
884,-4360,16068,-339,486,91,-23000,-3000,224000,1264312,
756,-4308,16132,-238,582,113,-23000,-3000,224000,1264314,
896,-4156,16080,-380,537,93,-23000,-3000,224000,1264316,
704,-4148,16124,-347,601,120,-23000,-3000,224000,1264329,
344,-4192,16044,-495,500,134,-23000,-3000,224000,1264331,
420,-4156,16128,-378,485,122,-23000,-3000,224000,1264334,
284,-4428,15736,-494,202,133,-23000,-3000,224000,1264346,
448,-4504,16056,-395,179,88,-23000,-3000,224000,1264348,
312,-4560,16072,-460,164,105,-23000,-3000,224000,1264351,
920,-4472,15976,-335,129,18,-23000,-3000,224000,1264363,
708,-4472,15872,-358,180,74,-23000,-3000,224000,1264365,
