Ax,Ay,Az,Gx,Gy,Gz,Roll,Pitch,Yaw,Timestamp,Target
-3268,-116,16256,-45,-48,-107,0,11000,98000,267547,
-3400,-192,16240,-54,53,-107,0,11000,98000,267560,
-3352,-152,16252,-55,18,-48,0,11000,98000,267562,
-3492,-148,16244,-55,32,-65,0,11000,98000,267564,
-3456,-212,16340,-53,25,-55,0,11000,98000,267566,
-3568,-252,16372,16,-108,-41,0,11000,98000,267579,
-3524,-280,16316,30,-124,-51,0,11000,98000,267581,
-3436,-340,16268,18,-158,-48,0,11000,98000,267583,
-3464,-192,16144,20,-148,-58,0,11000,98000,267586,
-3408,-164,16128,40,-111,-63,0,11000,98000,267598,
-3324,-84,16336,31,-68,-72,0,11000,98000,267600,
-3388,-132,16160,55,-48,-53,0,11000,98000,267603,
-3316,-192,16360,33,-24,-30,0,11000,98000,267605,
-3452,-64,16288,-3,56,1,0,11000,98000,267617,
-3464,-64,16340,-21,79,2,0,11000,98000,267620,
-3508,-112,16224,-54,76,-3,0,11000,98000,267622,
-3448,-112,16212,-71,100,6,0,11000,98000,267624,
-3480,-292,16500,-61,107,-79,0,11000,98000,267637,
-3388,-19662,0,10000,99000,269271,0,0,0,267637,
-3040,-724,16384,-170,53,151,0,10000,99000,269232,
-3500,-192,16400,-34,70,-116,0,11000,98000,267644,
-3476,-204,16464,37,24,-127,0,11000,98000,267656,
-3484,-276,16236,48,49,-114,0,11000,98000,267659,
-3472,-240,16496,60,39,-129,0,11000,98000,267661,
-3496,-248,16340,37,58,-103,0,11000,98000,267663,
-3584,-152,16248,41,70,-25,0,11000,98000,267676,
-3588,-108,16384,13,17,-12,0,11000,98000,267678,
-3608,-28,16392,8,35,-1,0,11000,98000,267680,
-3636,-76,16440,-15,-3,10,0,11000,98000,267683,
-3828,-84,16540,-74,-94,67,0,11000,98000,267695,
-3680,-168,16404,-95,-120,53,0,11000,98000,267697,
-3716,-124,16460,-95,-107,70,0,11000,98000,267700,
-3692,-108,16500,-96,-145,52,0,11000,98000,267702,
-3624,-88,16428,-145,-103,19,0,11000,98000,267715,
-3524,-204,16408,-101,-64,15,0,11000,98000,267717,
-3476,-200,16384,-119,-79,25,0,11000,98000,267719,
-3456,-280,16480,-61,-55,32,0,11000,98000,267722,
-3328,-308,16476,43,38,76,0,11000,98000,267734,
-3216,-192,16328,90,44,69,0,11000,98000,267736,
-3260,-184,16412,76,85,71,0,11000,98000,267739,
-3336,-168,16264,71,72,72,0,11000,98000,267741,
-3608,-120,16600,58,76,89,0,11000,98000,267753,
-3588,4,16264,33,51,83,0,11000,98000,267756,
-3660,-120,16420,32,29,82,0,11000,98000,267758,
-3784,-188,16472,0,7,79,0,11000,98000,267760,
-3612,-272,16552,-36,-213,28,0,11000,98000,267773,
-3556,-336,16528,-19,-205,28,0,11000,98000,267775,
-3572,-256,16460,-15,-227,13,0,11000,98000,267777,
-3496,-196,16352,-47,-255,-2,0,11000,98000,267780,
-3328,-228,16300,13,-198,61,0,11000,98000,267792,
-3252,-200,16272,16,-170,82,0,11000,98000,267794,
-3164,-328,16380,45,-143,99,0,11000,98000,267797,
-3228,-276,16092,39,-74,116,0,11000,98000,267799,
-3268,-228,16512,78,146,193,0,11000,98000,267812,
-3348,-124,16316,56,153,163,0,11000,98000,267814,
-3288,-164,16304,65,162,196,0,11000,98000,267816,
-3532,-144,16368,24,163,196,0,11000,98000,267819,
-3596,-160,16284,-55,-37,128,0,11000,98000,267831,
-3564,-284,16364,-73,-92,126,0,11000,98000,267833,
-3544,-168,16108,-77,-140,91,0,11000,98000,267836,
-3556,-252,16248,-96,-214,82,0,11000,98000,267838,
-3456,-260,16216,-79,-336,-15,0,11000,98000,267851,
-3284,-240,16224,-62,-326,5,0,11000,98000,267853,
-3316,-240,16288,-41,-318,-16,0,11000,98000,267855,
-3340,-256,16268,-58,-297,-7,0,11000,98000,267857,
-3268,-204,16216,-62,-180,38,0,11000,98000,267870,
-3148,-216,16356,-68,-153,41,0,11000,98000,267872,
-3180,-236,16224,-87,-105,63,0,11000,98000,267874,
-3196,-208,16184,-130,-9,128,0,11000,98000,267887,
-3268,-204,16272,-133,-10,127,0,11000,98000,267889,
-3376,-228,16308,-117,21,131,0,11000,98000,267892,
-3232,-256,16276,-135,3,126,0,11000,98000,267894,
-3432,-248,16404,-105,-39,48,0,11000,98000,267906,
-3404,-268,16192,-91,-58,58,0,11000,98000,267909,
-3380,-280,16420,-108,-81,12,0,11000,98000,267911,
-3308,-324,16304,-97,-78,21,0,11000,98000,267913,
-3260,-260,16320,-62,-33,24,0,11000,98000,267926,
-3276,-264,16192,-77,-30,54,0,11000,98000,267928,
-3224,-300,16388,-56,15,57,0,11000,98000,267931,
-3356,-212,16312,-35,40,71,0,11000,98000,267933,
-3428,-304,16316,-28,136,100,0,11000,98000,267945,
-3260,-244,16440,-53,164,90,0,11000,98000,267948,
-3320,-236,16356,-41,151,109,0,11000,98000,267950,
-3440,-288,16448,-54,187,87,0,11000,98000,267952,
-3516,-208,16500,-70,156,40,0,11000,98000,267965,
-3460,-412,16432,-63,151,30,0,11000,98000,267967,
-3456,-332,16444,-47,123,39,0,11000,98000,267970,
-3560,-316,16336,-59,106,23,0,11000,98000,267972,
-3532,-292,16416,-53,17,39,0,11000,98000,267984,
-3436,-280,16420,-39,-27,37,0,11000,98000,267987,
-3560,-408,16268,-52,-24,47,0,11000,98000,267989,
-3444,-344,16396,-47,-13,1,0,11000,98000,267991,
-3468,-308,16368,-30,-28,47,0,11000,98000,268004,
-3452,-232,16348,-40,-40,37,0,11000,98000,268006,
-3352,-220,16400,-40,-23,51,0,11000,98000,268008,
-3384,-284,16348,-11,-23,73,0,11000,98000,268011,
-3308,-252,16208,-36,39,80,0,11000,98000,268023,
-3332,-304,16484,-66,63,83,0,11000,98000,268025,
-3276,-264,16212,-46,44,65,0,11000,98000,268028,
-3296,-260,16184,-67,61,57,0,11000,98000,268030,
-3424,-144,16436,-86,51,-12,0,11000,98000,268043,
-3376,-156,16356,-95,43,-12,0,11000,98000,268045,
-3292,-208,16176,-98,-3,-35,0,11000,98000,268047,
-3424,-128,16316,-123,-15,-63,0,11000,98000,268050,
-3328,-216,16412,-175,-159,-150,0,11000,98000,268062,
-3364,-120,16344,-189,-186,-163,0,11000,98000,268064,
-3388,-148,16548,-221,-184,-153,0,11000,98000,268067,
-3312,-344,16412,-234,-92,-137,0,11000,98000,268079,
-3356,-328,16512,-222,-62,-106,0,11000,98000,268081,
-3272,-344,16620,-186,-37,-112,0,11000,98000,268084,
-3304,-368,16436,-200,-11,-80,0,11000,98000,268086,
-3352,-512,16628,-85,77,15,0,11000,98000,268099,
-3428,-492,16456,-53,103,-11,0,11000,98000,268101,
-3340,-464,16628,-30,127,44,0,11000,98000,268103,
-3348,-488,16624,-35,131,36,0,11000,98000,268105,
-3600,-392,16640,70,177,35,0,11000,98000,268118,
-3512,-432,16644,96,169,35,0,11000,98000,268120,
-3440,-400,16508,100,183,32,0,11000,98000,268123,
-3480,-320,16668,99,174,27,0,11000,98000,268125,
-3516,-368,16484,69,97,-10,0,11000,98000,268137,
-3584,-480,16448,46,74,9,0,11000,98000,268140,
-3328,-424,16700,70,71,-15,0,11000,98000,268142,
-3532,-368,16540,66,77,2,0,11000,98000,268144,
-3456,-332,16512,24,47,-29,0,11000,98000,268157,
-3536,-396,16520,25,39,-20,0,11000,98000,268159,
-3408,-384,16472,13,69,-29,0,11000,98000,268161,
-3440,-364,16516,-4,58,-34,0,11000,98000,268164,
-3580,-360,16644,15,14,0,0,11000,98000,268176,
-3456,-328,16468,26,-17,-18,0,11000,98000,268179,
-3568,-340,16428,18,-33,-3,0,11000,98000,268181,
-3480,-372,16500,0,-42,-4,0,11000,98000,268183,
-3540,-312,16560,14,-181,-28,0,11000,98000,268196,
-3408,-376,16432,-4,-195,-9,0,11000,98000,268198,
-3332,-468,16436,4,-207,0,0,11000,98000,268200,
-3308,-172,16492,3,-218,-12,0,11000,98000,268203,
-3188,-340,16660,38,-94,5,0,11000,98000,268215,
-3268,-344,16524,29,-82,12,0,11000,98000,268217,
-3276,-300,16408,26,-60,25,0,11000,98000,268220,
-3184,-244,16464,36,-46,45,0,11000,98000,268222,
-3264,-280,16440,36,61,36,0,11000,98000,268235,
-3316,-344,16548,35,47,43,0,11000,98000,268237,
-3248,-280,16524,27,78,19,0,11000,98000,268239,
-3324,-216,16572,44,53,7,0,11000,98000,268242,
-3392,-268,16472,53,76,-96,0,11000,98000,268254,
-3236,-208,16476,44,61,-80,0,11000,98000,268256,
-3352,-136,16476,65,35,-104,0,11000,98000,268259,
-3284,-148,16592,61,15,-88,0,11000,98000,268261,
-3508,-284,16492,82,-168,-132,0,11000,98000,268274,
-3488,-340,16656,95,-182,-153,0,11000,98000,268276,
-3488,-256,16544,69,-208,-158,0,11000,98000,268278,
-3436,-256,16560,74,-227,-160,0,11000,98000,268280,
-3432,-368,16476,59,-226,-196,0,11000,98000,268293,
-3432,-516,16532,68,-210,-161,0,11000,98000,268295,
-3388,-472,16212,58,-205,-163,0,11000,98000,268298,
-3432,-496,16564,61,-188,-143,0,11000,98000,268300,
-3488,-228,16260,91,-93,-62,0,11000,98000,268312,
-3468,-392,16208,93,-55,-49,0,11000,98000,268315,
-3412,-392,16268,84,-54,-35,0,11000,98000,268317,
-3428,-512,16388,101,35,-29,0,11000,98000,268330,
-3544,-444,16232,79,47,-34,0,11000,98000,268332,
-3520,-496,16236,74,39,-46,0,11000,98000,268334,
-3604,-396,16432,62,35,-48,0,11000,98000,268336,
-3756,-360,16420,-68,-130,-67,0,11000,98000,268349,
-3764,-440,16784,-51,-185,-92,0,11000,98000,268351,
-3572,-360,16492,-89,-181,-39,0,11000,98000,268354,
-3700,-396,16404,-104,-226,-56,0,11000,98000,268356,
-3652,-284,16660,-156,-416,-5,0,11000,98000,268368,
-3652,-324,16864,-136,-414,42,0,11000,98000,268371,
-3844,-172,16716,-135,-442,67,0,11000,98000,268373,
-3832,-312,16756,-139,-494,109,0,11000,98000,268375,
-3592,-380,16944,-147,-569,278,0,11000,98000,268388,
-3616,-348,16712,-167,-566,297,0,11000,98000,268390,
-3640,-388,16984,-148,-612,308,0,11000,98000,268392,
-3424,-508,16752,-66,-555,450,0,11000,98000,268405,
-3508,-472,16876,-79,-565,467,0,11000,98000,268407,
-3584,-472,17012,-31,-548,485,0,11000,98000,268409,
-3464,-416,17024,-9,-546,486,0,11000,98000,268412,
-3760,-524,16932,-46,-980,530,0,11000,98000,268424,
-3756,-584,16892,-23,-1084,500,0,11000,98000,268427,
-3576,-652,16976,-1,-1171,496,0,11000,98000,268429,
-3404,-748,17152,20,-1204,425,0,11000,98000,268431,
-2708,-680,16756,192,-977,60,0,11000,98000,268444,
-2824,-652,16648,178,-843,58,0,11000,98000,268446,
-2788,-672,16456,199,-757,58,0,11000,98000,268448,
-2780,-536,16392,229,-338,203,0,11000,98000,268461,
-2800,-632,16352,251,-285,235,0,11000,98000,268463,
-2812,-568,16472,235,-255,238,0,11000,98000,268465,
-2812,-592,16420,250,-202,254,0,11000,98000,268468,
-2928,-744,16396,271,-110,191,0,11000,98000,268480,
-2976,-764,16228,245,-104,143,0,11000,98000,268483,
-3076,-720,16180,254,-97,78,0,11000,98000,268485,
-3204,-756,16104,254,-99,41,0,11000,98000,268487,
-3136,-744,16324,297,-228,-135,0,11000,98000,268500,
-3104,-716,16116,314,-223,-160,0,11000,98000,268502,
-3116,-676,16240,306,-221,-173,0,11000,98000,268504,
-2768,-584,16024,320,-179,-124,0,11000,98000,268517,
-2832,-572,15880,356,-141,-126,0,11000,98000,268519,
-2704,-552,15952,308,-74,-88,0,11000,98000,268521,
-2604,-456,16012,305,-45,-82,0,11000,98000,268524,
-2832,-408,15904,279,132,-12,0,11000,98000,268536,
-2900,-408,16048,280,141,-20,0,11000,98000,268539,
-3064,-384,16136,276,138,-57,0,11000,98000,268541,
-2952,-428,16220,257,90,-46,0,11000,98000,268543,
-3088,-288,16072,94,-119,-213,0,11000,98000,268556,
-3144,-188,16008,72,-166,-241,0,11000,98000,268558,
-3144,-168,15980,28,-256,-227,0,11000,98000,268560,
-2912,-412,15680,-24,-480,-307,0,11000,98000,268573,
-2908,-388,16016,-26,-502,-320,0,11000,98000,268575,
-2972,-452,15860,-22,-531,-347,0,10000,98000,268577,
-2908,-436,15996,-3,-499,-364,0,10000,98000,268580,
-2884,-268,15988,47,-322,-384,0,10000,98000,268592,
-2828,-312,16012,52,-309,-379,0,10000,98000,268594,
-2828,-272,16136,57,-237,-393,0,10000,98000,268597,
-2992,-272,15960,62,20,-392,0,10000,98000,268609,
-2968,-224,15952,39,37,-378,0,10000,98000,268612,
-3036,-384,16196,46,48,-363,0,10000,98000,268614,
-3000,-272,16116,58,64,-351,0,10000,98000,268616,
-3392,-244,16136,89,118,-284,0,10000,98000,268629,
-3328,-104,16144,115,118,-301,0,10000,98000,268631,
-3336,-256,16148,92,116,-268,0,10000,98000,268633,
-3512,-200,16144,84,105,-267,0,10000,98000,268636,
-3468,-276,16036,40,117,-329,0,10000,98000,268648,
-3424,-352,16036,23,158,-306,0,10000,98000,268650,
-3432,-348,15980,14,161,-304,0,10000,98000,268653,
-3320,-424,15856,25,173,-298,0,11000,98000,268655,
-3392,-400,15932,59,244,-141,0,11000,98000,268668,
-3364,-424,16036,50,280,-134,0,11000,98000,268670,
-3480,-400,16060,68,272,-110,0,11000,98000,268672,
-3460,-272,15964,33,278,-89,0,11000,98000,268674,
-3644,-56,16092,-75,242,-33,0,11000,98000,268687,
-3716,-180,16192,-91,238,3,0,11000,98000,268689,
-3608,-100,16036,-139,207,-11,0,11000,98000,268692,
-3676,-140,16044,-143,163,4,0,11000,98000,268694,
-3656,-192,16168,-212,19,16,0,11000,98000,268706,
-3564,-236,16060,-228,-8,2,0,11000,98000,268709,
-3584,-140,16116,-239,-35,31,0,11000,98000,268711,
-3612,-24,16132,-237,-63,5,0,11000,98000,268713,
-3416,156,16204,-290,-178,59,0,11000,98000,268726,
-3428,140,16256,-275,-205,79,0,11000,98000,268728,
-3308,136,16152,-308,-187,85,0,11000,98000,268730,
-3272,24,16524,-363,-135,108,0,11000,98000,268743,
-3248,28,16452,-364,-141,117,0,11000,98000,268745,
-3284,20,16544,-367,-109,98,0,11000,98000,268747,
-3236,40,16384,-389,-80,120,0,11000,98000,268750,
-3200,-124,16776,-352,-46,107,0,11000,98000,268762,
-3260,-132,16752,-342,-50,104,0,11000,98000,268765,
-3148,-232,16688,-319,-43,117,0,11000,98000,268767,
-3176,-256,16664,-290,-17,100,0,11000,98000,268769,
-3160,-160,16416,-166,85,125,0,11000,98000,268782,
-3120,-88,16476,-126,117,85,0,11000,98000,268784,
-3200,-84,16316,-109,130,144,0,11000,98000,268786,
-2984,-140,16352,-116,151,125,0,11000,98000,268789,
-3280,-108,16556,-153,200,104,0,11000,98000,268801,
-3436,-140,16376,-168,187,100,0,11000,98000,268803,
-3460,-224,16584,-205,173,84,0,11000,98000,268806,
-3660,-284,16536,-321,8,40,0,11000,98000,268818,
-3624,-256,16592,-333,-38,32,0,11000,98000,268820,
-3552,-364,16584,-369,-46,63,0,11000,98000,268823,
-3556,-452,16516,-348,-114,38,0,11000,98000,268825,
-3224,-368,16472,-322,-105,62,0,11000,98000,268838,
-3292,-368,16404,-279,-97,57,0,11000,98000,268840,
-3252,-632,16524,-285,-54,52,0,11000,98000,268842,
-3176,-392,16440,-257,-49,62,0,11000,98000,268845,
-3304,-324,16552,-200,132,216,0,11000,98000,268857,
-3316,-384,16636,-210,162,221,0,11000,98000,268860,
-3388,-420,16572,-215,151,228,0,11000,98000,268862,
-3328,-420,16624,-204,125,267,0,11000,98000,268864,
-3692,-404,16628,-228,15,287,0,11000,98000,268877,
-3640,-368,16568,-251,-16,255,0,11000,98000,268879,
-3560,-416,16504,-251,-76,254,0,11000,98000,268881,
-3520,-420,16592,-262,-263,242,0,11000,98000,268894,
-3524,-364,16672,-271,-298,215,0,11000,98000,268896,
-3512,-460,16580,-254,-311,216,0,11000,98000,268898,
-3428,-400,16744,-263,-335,200,0,11000,98000,268901,
-3260,-472,16736,-202,-257,146,0,11000,98000,268913,
-3236,-520,16664,-191,-227,146,0,11000,98000,268916,
-3208,-512,16880,-188,-159,152,0,11000,98000,268918,
-3292,-576,16808,-160,58,249,0,11000,98000,268931,
-3220,-652,16844,-138,52,296,0,11000,98000,268933,
-3260,-716,16772,-116,98,315,0,11000,98000,268935,
-3324,-680,16720,-130,127,320,0,11000,98000,268937,
-3504,-792,16812,-31,126,396,0,11000,98000,268950,
-3496,-848,16788,15,112,383,0,11000,98000,268952,
-3592,-828,16768,36,104,396,0,11000,98000,268954,
-3504,-912,16656,64,72,396,0,11000,98000,268957,
-3536,-580,16720,60,-73,405,0,11000,98000,268969,
-3532,-600,16616,90,-127,416,0,11000,98000,268971,
-3604,-616,16524,81,-152,427,0,11000,98000,268974,
-3556,-576,16584,42,-194,414,0,11000,98000,268976,
-3392,-600,16484,38,-208,440,0,11000,98000,268988,
-3364,-508,16324,13,-218,453,0,11000,98000,268990,
-3224,-584,16572,22,-191,462,0,11000,98000,268993,
-3068,-660,16540,6,14,482,0,11000,98000,269005,
-3192,-688,16472,27,9,505,0,11000,98000,269008,
-3216,-668,16388,24,47,493,0,11000,98000,269010,
-3156,-704,16512,43,74,519,0,11000,98000,269012,
-3188,-708,16528,119,60,503,0,11000,98000,269025,
-3284,-728,16460,87,43,536,0,11000,98000,269027,
-3308,-528,16524,101,13,544,0,11000,99000,269029,
-3284,-648,16612,86,-7,549,0,11000,99000,269032,
-3148,-524,16392,114,-69,478,0,11000,99000,269044,
-3228,-564,16572,106,-57,466,0,11000,99000,269047,
-3052,-532,16380,144,-79,477,0,11000,99000,269049,
-3240,-552,16268,124,-93,474,0,11000,99000,269051,
-3024,-552,16360,94,-177,477,0,11000,99000,269064,
-3048,-544,16212,73,-171,480,0,11000,99000,269066,
-2964,-404,16420,76,-167,467,0,11000,99000,269068,
-2808,-708,16412,-230,-149,94,0,10000,99000,269273,
-2832,-620,16504,-198,-137,58,0,10000,99000,269275,
-2660,-676,16588,-162,-110,9,0,10000,99000,269288,
-2652,-616,16692,-178,-76,36,0,10000,99000,269290,
-2784,-736,16512,-162,-66,17,0,10000,99000,269292,
-2916,-592,16704,-145,-32,4,0,10000,99000,269295,
-2776,-556,16720,-152,47,-80,0,10000,99000,269307,
-2836,-724,16652,-139,72,-83,0,10000,99000,269309,
-2800,-720,16760,-128,82,-103,0,10000,99000,269312,
-2748,-660,16912,-117,95,-121,0,10000,99000,269314,
-2936,-868,16680,-30,150,-195,0,10000,99000,269327,
-2904,-800,16792,1,143,-226,0,10000,99000,269329,
-2868,-756,16696,-27,133,-241,0,10000,99000,269331,
-2920,-744,16744,-8,159,-257,0,10000,99000,269334,
-3076,-800,16696,64,133,-226,0,10000,99000,269346,
-3128,-772,16636,85,135,-239,0,10000,99000,269348,
-3140,-736,16580,94,130,-232,0,10000,99000,269351,
-3088,-788,16560,95,145,-206,0,10000,99000,269353,
-3192,-648,16460,70,166,-161,0,10000,99000,269366,
-3280,-644,16420,82,164,-145,0,10000,99000,269368,
-3180,-684,16388,50,176,-156,0,10000,99000,269370,
-3172,-568,16516,-16,84,-79,0,10000,99000,269383,
-3220,-676,16520,-9,48,-102,0,10000,99000,269385,
-3216,-688,16532,-2,32,-83,0,10000,99000,269388,
-3288,-600,16560,5,-4,-64,0,10000,99000,269390,
-3120,-740,16612,-55,-137,-182,0,10000,99000,269402,
-3108,-756,16560,-47,-133,-182,0,10000,99000,269405,
-3092,-884,16588,-23,-140,-196,0,10000,99000,269407,
-3120,-744,16480,-23,-181,-208,0,10000,99000,269409,
-3096,-756,16732,39,-152,-274,0,10000,99000,269422,
-3072,-804,16648,41,-144,-304,0,10000,99000,269424,
-3048,-736,16544,57,-120,-274,0,10000,99000,269426,
-3208,-612,16556,32,-168,-280,0,10000,99000,269439,
-3180,-604,16548,51,-167,-314,0,10000,99000,269441,
-3180,-532,16484,24,-175,-321,0,10000,99000,269444,
-3212,-612,16572,35,-151,-339,0,10000,99000,269446,
-3128,-628,16664,94,-37,-287,0,10000,99000,269458,
-3068,-684,16476,91,7,-259,0,10000,99000,269461,
-3044,-680,16456,95,39,-245,0,10000,99000,269463,
-3132,-680,16580,120,105,-217,0,10000,99000,269465,
-3092,-648,16544,164,234,-133,0,10000,99000,269478,
-3192,-680,16664,198,224,-86,0,10000,99000,269480,
-3236,-784,16704,191,210,-119,0,10000,99000,269482,
-3304,-684,16680,227,127,-115,0,10000,99000,269495,
-3328,-552,16660,201,94,-147,0,10000,99000,269497,
-3416,-648,16604,235,56,-155,0,10000,99000,269499,
-3412,-476,16572,217,15,-160,0,10000,99000,269502,
-3320,-704,16424,228,-147,-201,0,10000,99000,269514,
-3264,-636,16420,226,-151,-190,0,10000,99000,269516,
-3136,-704,16420,215,-134,-211,0,10000,99000,269519,
-3132,-672,16604,226,-132,-216,0,10000,99000,269521,
-2928,-668,16340,282,96,-162,0,10000,99000,269534,
-2836,-564,16504,265,177,-137,0,10000,99000,269536,
-2840,-628,16600,301,227,-110,0,10000,99000,269538,
-3080,-500,16428,276,518,18,0,10000,99000,269551,
-2996,-404,16312,265,488,32,0,10000,99000,269553,
-3144,-468,16276,252,505,34,0,10000,99000,269555,
-3200,-624,16360,262,485,42,0,10000,99000,269558,
-3388,-596,16252,211,246,-17,0,10000,99000,269570,
-3400,-632,16316,217,187,-67,0,10000,99000,269573,
-3316,-644,16056,212,137,-98,0,10000,99000,269575,
-3392,-676,16084,206,77,-109,0,10000,99000,269577,
-3244,-672,16120,207,-118,-219,0,10000,99000,269590,
-3244,-592,16152,187,-118,-232,0,10000,99000,269592,
-3176,-636,16100,185,-147,-233,0,10000,99000,269594,
-3292,-636,16132,175,-161,-218,0,10000,99000,269596,
-3248,-568,16236,63,-124,-191,0,10000,99000,269609,
-3264,-440,16200,52,-111,-162,0,10000,99000,269611,
-3380,-464,16076,28,-117,-160,0,10000,99000,269614,
-3544,-540,16452,-118,-199,-119,0,10000,99000,269626,
-3476,-488,16540,-118,-234,-102,0,10000,99000,269628,
-3696,-468,16512,-137,-276,-109,0,10000,99000,269631,
-3624,-488,16476,-148,-326,-101,0,10000,99000,269633,
-3820,-320,16808,-204,-721,-62,0,10000,99000,269646,
-3932,-348,16792,-224,-803,-85,0,10000,99000,269648,
-3832,-276,16916,-208,-914,-71,0,10000,99000,269650,
-3928,-396,17744,-203,-1459,-41,0,10000,99000,269663,
-4004,-508,17804,-192,-1582,-17,0,10000,99000,269665,
-4028,-480,18044,-183,-1665,-9,0,10000,99000,269667,
-3992,-576,18212,-158,-1742,-12,0,10000,99000,269670,
-3276,-856,19156,84,-1837,29,0,10000,99000,269682,
-3136,-956,19316,145,-1829,45,0,10000,99000,269684,
-3004,-1044,19404,247,-1767,54,0,10000,99000,269687,
-2392,-1416,19796,809,-1148,240,0,10000,99000,269699,
-2196,-1416,20160,965,-1041,295,0,10000,99000,269702,
-2056,-1532,20060,1117,-875,321,0,10000,99000,269704,
-1692,-1508,20120,1276,-729,334,0,10000,99000,269706,
-1256,-1184,20288,2155,428,239,0,10000,99000,269719,
-1284,-1100,20548,2278,544,261,0,10000,99000,269721,
-1368,-1084,20460,2390,705,293,0,10000,99000,269723,
-1496,-1128,20736,2877,1005,313,0,10000,99000,269736,
-1616,-1128,20640,2955,1002,262,0,10000,99000,269738,
-1560,-1200,20692,3048,982,225,0,10000,99000,269740,
-1548,-1256,20660,3121,952,175,0,10000,99000,269743,
-612,-1260,19720,3549,1065,-247,0,10000,99000,269755,
-432,-1180,19752,3628,1128,-318,0,10000,99000,269758,
-312,-1236,19584,3733,1193,-412,0,10000,99000,269760,
172,-1056,19256,4335,1732,-654,0,10000,99000,269772,
272,-904,18984,4388,1830,-674,0,10000,99000,269775,
468,-980,18764,4452,1862,-703,0,10000,99000,269777,
496,-952,18596,4497,1911,-732,0,10000,99000,269779,
680,-664,17872,4548,2153,-942,1000,10000,98000,269792,
580,-580,17572,4523,2174,-986,1000,10000,98000,269794,
652,-604,17364,4544,2176,-1050,1000,10000,98000,269797,
696,-612,16080,4421,1952,-1355,1000,10000,98000,269809,
656,-524,15852,4394,1891,-1444,1000,10000,98000,269811,
708,-532,15664,4367,1800,-1530,2000,10000,98000,269814,
924,-628,14504,4261,1342,-2088,2000,10000,98000,269826,
988,-748,14448,4247,1258,-2180,2000,10000,98000,269829,
1076,-676,14236,4193,1191,-2337,2000,10000,98000,269831,
1288,-476,13264,3921,929,-3167,2000,10000,98000,269843,
1432,-424,13072,3881,940,-3380,2000,10000,98000,269846,
1168,-380,13088,3861,921,-3564,2000,10000,98000,269848,
776,-152,12500,3433,901,-4488,3000,10000,97000,269861,
804,-216,12372,3330,931,-4624,3000,10000,97000,269863,
808,-148,11836,3189,918,-4775,3000,10000,97000,269865,
604,-76,11684,2605,1226,-5490,3000,10000,96000,269878,
528,-280,11608,2500,1341,-5582,3000,10000,96000,269880,
408,-48,11424,2438,1464,-5658,3000,10000,96000,269882,
156,104,10756,1962,2392,-5980,3000,11000,96000,269895,
-160,124,10504,1863,2588,-6031,3000,11000,95000,269897,
-224,92,10528,1749,2760,-6082,3000,11000,95000,269900,
-1296,-144,10236,1221,3432,-6375,3000,11000,95000,269912,
-1472,-92,10064,1109,3494,-6395,3000,11000,95000,269914,
-1768,-164,9996,973,3494,-6479,3000,11000,95000,269916,
-3228,-384,10020,318,3320,-6661,3000,12000,94000,269929,
-3368,-372,10060,186,3212,-6707,3000,12000,94000,269931,
-3536,-500,9992,89,3112,-6706,3000,12000,94000,269934,
-4260,-252,10124,-479,2727,-6986,3000,12000,93000,269946,
-4452,-72,10256,-604,2685,-7022,2000,12000,93000,269948,
-4312,-48,10348,-731,2627,-7084,2000,12000,93000,269951,
-4804,440,10392,-1425,2691,-7238,2000,13000,92000,269963,
-5016,512,10416,-1592,2732,-7221,2000,13000,92000,269966,
-5092,520,10376,-1721,2757,-7184,2000,13000,92000,269968,
-5820,388,10692,-2414,2705,-6942,2000,13000,91000,269980,
-5832,276,11016,-2527,2710,-6899,2000,13000,91000,269983,
-6084,228,11116,-2621,2680,-6817,1000,13000,91000,269985,
-6740,-64,11524,-3219,2319,-6572,1000,14000,90000,269998,
-6712,-184,11584,-3337,2298,-6539,1000,14000,90000,270000,
-6920,-200,11752,-3414,2288,-6473,1000,14000,90000,270002,
-7000,-488,11836,-3841,2058,-6219,0,14000,89000,270015,
-7044,-528,11860,-3920,2017,-6201,0,14000,89000,270017,
-7168,-476,11868,-4004,2033,-6142,0,14000,89000,270019,
-8552,-584,12712,-4216,1714,-5207,0,14000,89000,270032,
-8596,-628,12852,-4202,1645,-5051,0,14000,89000,270034,
-8532,-616,13224,-4222,1588,-4935,0,15000,88000,270036,
-8556,-580,13624,-4368,1557,-4528,0,15000,88000,270049,
-8596,-560,13872,-4447,1572,-4456,0,15000,88000,270051,
-8700,-540,13984,-4522,1605,-4388,0,15000,88000,270054,
-8776,-828,14092,-5026,1737,-3688,-1000,15000,87000,270066,
-8564,-988,14236,-5081,1746,-3537,-1000,15000,87000,270069,
-8688,-1080,14312,-5118,1765,-3400,-1000,15000,87000,270071,
-8932,-1168,14660,-5057,1736,-2417,-2000,15000,87000,270083,
-8872,-1016,14724,-5049,1705,-2232,-2000,16000,87000,270086,
-9008,-1040,14700,-5015,1677,-2068,-2000,16000,87000,270088,
-9044,-980,14924,-5152,1358,-1417,-3000,16000,87000,270101,
-9200,-1052,14888,-5195,1282,-1348,-3000,16000,87000,270103,
-9040,-1184,15032,-5251,1190,-1257,-3000,16000,87000,270105,
-8680,-1604,15276,-5384,1018,-922,-3000,16000,87000,270118,
-8588,-1568,15388,-5401,1036,-900,-3000,16000,87000,270120,
-8356,-1708,15432,-5354,1093,-817,-4000,16000,87000,270122,
-8060,-1260,15344,-5358,1475,-368,-4000,16000,87000,270135,
-8264,-1248,15240,-5380,1532,-212,-4000,16000,87000,270137,
-8324,-1176,15344,-5406,1575,-60,-4000,16000,87000,270140,
-8240,-1456,15608,-5525,1590,604,-5000,17000,87000,270152,
-8432,-1372,15496,-5541,1548,681,-5000,17000,87000,270154,
-8428,-1308,15796,-5531,1461,738,-5000,17000,87000,270157,
-8752,-1220,15872,-5700,980,1046,-5000,17000,87000,270169,
-8792,-1196,15916,-5739,879,1084,-6000,17000,87000,270172,
-8952,-1268,15892,-5795,722,1156,-6000,17000,87000,270174,
-8804,-1972,16064,-5922,-39,1303,-6000,17000,87000,270186,
-8772,-2144,16400,-5884,-138,1349,-6000,17000,87000,270189,
-8624,-2244,16404,-5850,-164,1347,-6000,17000,87000,270191,
-7736,-2000,16364,-5624,80,1537,-7000,17000,87000,270204,
-7664,-1924,16276,-5600,264,1626,-7000,17000,87000,270206,
-7544,-1936,16248,-5578,394,1743,-7000,17000,87000,270208,
-7196,-1896,16336,-5538,1318,2482,-8000,17000,87000,270221,
-7392,-1932,16528,-5531,1454,2645,-8000,17000,87000,270223,
-7568,-2032,16580,-5532,1567,2784,-8000,17000,88000,270226,
-8084,-2428,16400,-5589,1807,3381,-8000,18000,88000,270238,
-8196,-2636,16288,-5612,1733,3428,-8000,18000,88000,270241,
-8372,-2580,16340,-5595,1637,3459,-8000,18000,88000,270243,
-9380,-2744,16432,-5594,664,3435,-9000,18000,88000,270256,
-9508,-2576,16476,-5572,371,3447,-9000,18000,88000,270258,
-9488,-2540,16456,-5568,58,3438,-9000,18000,88000,270260,
-9420,-2396,17264,-5537,-1359,3342,-9000,18000,89000,270273,
-9404,-2336,17344,-5520,-1521,3362,-9000,18000,89000,270275,
-9168,-2392,17028,-5514,-1661,3455,-9000,18000,89000,270277,
-7820,-3056,17492,-5474,-1553,3967,-10000,18000,89000,270290,
-7492,-3312,17492,-5420,-1411,4080,-10000,18000,89000,270292,
-7516,-3368,17528,-5396,-1210,4220,-10000,18000,89000,270295,
-7128,-3848,17436,-5123,-25,5087,-10000,18000,90000,270307,
-7156,-3960,17232,-5072,161,5213,-10000,18000,90000,270310,
-7220,-3876,17332,-4991,357,5343,-10000,18000,90000,270312,
-7728,-3664,17760,-4610,826,5732,-11000,18000,91000,270324,
-7860,-3640,17844,-4539,829,5742,-11000,18000,91000,270327,
-7912,-3556,18072,-4427,757,5777,-11000,18000,91000,270329,
-8468,-3188,18296,-4157,103,5732,-11000,19000,92000,270342,
-8316,-3144,18452,-4167,-64,5731,-11000,19000,92000,270344,
-8396,-3272,18620,-4161,-287,5698,-11000,19000,92000,270346,
-7688,-3524,19068,-4015,-1027,5579,-11000,19000,92000,270359,
-7464,-3720,18888,-3988,-1120,5592,-11000,19000,92000,270361,
-7420,-3780,18928,-3892,-1155,5594,-11000,19000,93000,270364,
-6720,-4132,19096,-3419,-1149,5735,-12000,19000,93000,270376,
-6640,-4096,19088,-3398,-1104,5768,-12000,19000,93000,270379,
-6612,-4136,19168,-3291,-1106,5782,-12000,19000,93000,270381,
-6476,-4324,19668,-2846,-913,5921,-12000,19000,94000,270394,
-6460,-4344,19732,-2765,-887,5950,-12000,19000,94000,270396,
-6412,-4276,19780,-2652,-824,5958,-12000,19000,94000,270398,
-6348,-4296,19940,-2171,-636,6039,-12000,19000,95000,270411,
-6348,-4232,19928,-2086,-608,6067,-12000,19000,95000,270413,
-6248,-4420,19808,-2002,-563,6125,-12000,19000,95000,270416,
-6140,-4596,20176,-1477,-415,6303,-12000,19000,96000,270428,
-6240,-4680,19832,-1379,-372,6322,-12000,19000,96000,270430,
-6180,-4652,19860,-1304,-374,6369,-12000,19000,96000,270433,
-5988,-4748,19920,-869,-534,6402,-11000,19000,97000,270445,
-6016,-4732,19736,-811,-589,6389,-11000,19000,97000,270448,
-5864,-4848,19724,-770,-643,6397,-11000,19000,97000,270450,
-5692,-5032,19964,-336,-987,6382,-11000,19000,97000,270462,
-5696,-5024,20124,-276,-963,6403,-11000,19000,98000,270465,
-5552,-5004,20068,-179,-996,6373,-11000,19000,98000,270467,
-4984,-4992,19696,238,-918,6427,-11000,19000,98000,270479,
-4864,-5108,19748,280,-848,6454,-11000,19000,98000,270482,
-4864,-5092,19940,405,-813,6481,-11000,19000,99000,270484,
-4784,-5264,19596,873,-657,6660,-11000,19000,99000,270497,
-4680,-5248,19752,963,-647,6702,-11000,19000,99000,270499,
-4596,-5308,19512,1070,-671,6741,-10000,19000,99000,270501,
-4708,-5140,19440,1507,-930,6698,-10000,19000,100000,270514,
-4716,-5116,19316,1603,-1018,6702,-10000,19000,100000,270516,
-4620,-5076,19356,1661,-1099,6661,-10000,19000,100000,270518,
-4144,-5124,19144,2011,-1453,6379,-10000,19000,101000,270531,
-4032,-5120,19012,2059,-1510,6344,-10000,19000,101000,270533,
-3380,-4896,18712,2377,-1534,6134,-9000,19000,102000,270546,
-3392,-4848,18504,2434,-1552,6087,-9000,19000,102000,270548,
-3416,-4796,18424,2474,-1512,6070,-9000,19000,102000,270551,
-3288,-4572,18088,2766,-1563,5880,-9000,19000,103000,270563,
-3260,-4644,18280,2804,-1585,5830,-8000,19000,103000,270566,
-3160,-4528,18156,2835,-1602,5748,-8000,19000,103000,270568,
-3136,-4256,17872,3024,-1843,5410,-8000,18000,103000,270580,
-3112,-4260,18076,3076,-1878,5335,-8000,18000,104000,270583,
-3160,-4208,17744,3081,-1935,5267,-8000,18000,104000,270585,
-3036,-4020,17824,3200,-2252,4909,-7000,18000,104000,270598,
-2844,-4100,17628,3224,-2309,4814,-7000,18000,104000,270600,
-2820,-4032,17812,3258,-2387,4758,-7000,18000,104000,270602,
-2564,-3868,17484,3449,-2460,4418,-7000,18000,105000,270615,
-2472,-3928,17524,3520,-2457,4383,-7000,18000,105000,270617,
-2340,-3940,17336,3542,-2393,4289,-7000,18000,105000,270620,
-1916,-3748,17348,3818,-2071,3940,-6000,18000,105000,270632,
-1912,-3600,17272,3870,-1994,3860,-6000,17000,105000,270635,
-1856,-3580,17252,3917,-1925,3781,-6000,17000,106000,270637,
-1864,-3436,17060,4167,-1605,3377,-5000,17000,106000,270649,
-1912,-3376,17080,4185,-1591,3284,-5000,17000,106000,270652,
-1900,-3332,16980,4197,-1578,3216,-5000,17000,106000,270654,
-2188,-3148,16596,4229,-1711,2801,-5000,17000,106000,270667,
-2232,-3088,16592,4243,-1758,2735,-5000,17000,106000,270669,
-2352,-3072,16656,4243,-1860,2625,-5000,17000,106000,270671,
-2496,-2912,16564,4228,-2355,2161,-4000,17000,107000,270684,
-2540,-2884,16548,4222,-2437,2090,-4000,17000,107000,270686,
-2508,-2988,16568,4238,-2493,1990,-4000,17000,107000,270689,
-2296,-2988,16444,4206,-2679,1596,-4000,16000,107000,270701,
-2208,-2976,16252,4201,-2671,1570,-3000,16000,107000,270704,
-2068,-2976,16204,4225,-2625,1523,-3000,16000,107000,270706,
-1812,-3032,16088,4332,-2243,1357,-3000,16000,107000,270718,
-1796,-3020,15936,4398,-2135,1341,-3000,16000,107000,270721,
-1660,-2736,15832,4670,-1545,1095,-2000,16000,107000,270733,
-1700,-2660,15764,4683,-1456,1038,-2000,16000,107000,270736,
-1728,-2460,15840,4705,-1371,1007,-2000,16000,107000,270738,
-2264,-2068,15732,4653,-1195,769,-2000,15000,107000,270751,
-2256,-2008,15688,4618,-1218,742,-2000,15000,107000,270753,
-2320,-2088,15684,4583,-1287,709,-2000,15000,107000,270755,
-2604,-1936,15564,4478,-1751,415,-1000,15000,107000,270768,
-2680,-1984,15596,4446,-1863,337,-1000,15000,107000,270770,
-2756,-2072,15540,4445,-1966,263,-1000,15000,107000,270772,
-2432,-2004,15520,4381,-2245,-158,-1000,15000,107000,270785,
-2220,-2012,15432,4364,-2219,-247,-1000,15000,107000,270787,
-2216,-1860,15304,4382,-2212,-312,-1000,15000,107000,270790,
-1892,-1832,15204,4362,-1933,-581,0,14000,107000,270802,
-2020,-1628,15080,4371,-1866,-612,0,14000,107000,270805,
-1860,-1536,15292,4361,-1831,-630,0,14000,107000,270807,
-2128,-1252,15296,4296,-1620,-763,0,14000,107000,270819,
-2144,-1200,15160,4251,-1644,-772,0,14000,107000,270822,
-2364,-1232,15236,4239,-1632,-800,0,14000,107000,270824,
-2320,-1108,14980,4050,-1705,-1047,0,14000,107000,270837,
-2280,-1124,15196,4032,-1723,-1136,0,14000,107000,270839,
-2288,-1220,15372,4013,-1712,-1178,0,14000,107000,270841,
-2404,-1196,15168,3969,-1641,-1483,0,14000,107000,270854,
-2404,-1176,15088,3974,-1624,-1526,0,14000,107000,270856,
-2292,-1156,15256,3966,-1594,-1534,0,14000,107000,270858,
-2212,-1044,15176,4000,-1402,-1732,1000,13000,107000,270871,
-2208,-1080,14876,3999,-1339,-1765,1000,13000,107000,270873,
-2128,-1032,15168,4016,-1286,-1774,1000,13000,107000,270876,
-2340,-680,15196,4019,-909,-1705,1000,13000,106000,270888,
-2304,-844,15060,4004,-907,-1737,1000,13000,106000,270891,
-2276,-736,14908,3950,-843,-1732,1000,13000,106000,270893,
-2380,-528,14828,3799,-533,-1956,1000,13000,106000,270905,
-2480,-564,14948,3759,-513,-2026,1000,13000,106000,270908,
-2468,-420,14936,3772,-489,-2120,2000,13000,106000,270910,
-2952,-180,15160,3757,-415,-2487,2000,13000,106000,270923,
-2856,-260,15092,3736,-463,-2513,2000,13000,106000,270925,
-2928,-128,15100,3733,-491,-2557,2000,13000,106000,270927,
-2988,-140,14844,3508,-701,-2808,2000,13000,105000,270940,
-3012,-196,14952,3495,-739,-2828,2000,13000,105000,270942,
-2956,-152,14892,3473,-748,-2866,2000,13000,105000,270944,
-3012,-116,14812,3420,-827,-2991,3000,13000,105000,270957,
-3072,-84,14648,3432,-797,-3018,3000,13000,105000,270959,
-2996,-100,14736,3419,-764,-3029,3000,13000,105000,270961,
-2872,132,14692,3342,-581,-3076,3000,13000,105000,270974,
-3144,272,14704,3325,-499,-3093,3000,13000,105000,270976,
-2924,236,14612,3274,-466,-3096,3000,13000,104000,270978,
-3128,456,14600,3060,-167,-3074,3000,13000,104000,270991,
-3036,456,14684,3008,-101,-3086,3000,13000,104000,270993,
-3080,408,14724,2954,-38,-3075,3000,13000,104000,270996,
-3340,348,14504,2753,240,-3165,3000,13000,104000,271008,
-3356,264,14524,2707,276,-3185,3000,13000,104000,271010,
-3488,424,14608,2719,267,-3185,3000,13000,104000,271013,
-3620,504,14440,2638,90,-3267,4000,13000,103000,271025,
-3944,480,14536,2598,50,-3288,4000,13000,103000,271027,
-3940,552,14432,2586,-72,-3300,4000,13000,103000,271030,
-4280,1016,14520,2392,-555,-3419,4000,13000,103000,271042,
-4140,952,14448,2331,-605,-3478,4000,13000,103000,271045,
-4124,972,14448,2288,-685,-3492,4000,13000,103000,271047,
-3908,932,14484,2017,-818,-3624,4000,13000,102000,271060,
-4032,920,14472,1967,-808,-3648,4000,13000,102000,271062,
-4012,904,14512,1922,-781,-3629,4000,13000,102000,271064,
-4020,1020,14372,1636,-608,-3583,4000,13000,102000,271077,
-4236,1084,14460,1574,-611,-3532,4000,13000,102000,271079,
-4268,1008,14416,1509,-574,-3534,4000,13000,102000,271081,
-4780,924,14540,1299,-776,-3414,4000,13000,101000,271094,
-4872,964,14512,1304,-841,-3422,4000,13000,101000,271096,
-4748,976,14676,1260,-879,-3442,4000,13000,101000,271098,
-4792,1124,14836,1174,-893,-3546,4000,13000,101000,271111,
-4684,1156,14964,1167,-813,-3550,4000,13000,101000,271113,
-4660,1272,14972,1153,-770,-3572,4000,13000,101000,271116,
-4624,1304,15004,1048,-268,-3450,4000,13000,100000,271128,
-4860,1316,15196,1036,-193,-3374,4000,13000,100000,271130,
-4824,1320,14636,999,-165,-3320,4000,13000,100000,271133,
-5060,1324,15024,948,-122,-3068,4000,13000,100000,271145,
-5072,1208,15316,924,-168,-3048,4000,13000,100000,271148,
-5148,1208,15308,948,-166,-3031,4000,13000,100000,271150,
-5252,1300,15456,908,-365,-3047,4000,13000,100000,271162,
-5384,1276,15372,884,-366,-3085,4000,13000,100000,271165,
-5296,1384,15268,877,-340,-3109,4000,13000,99000,271167,
-5200,1556,15564,863,-269,-3086,4000,13000,99000,271180,
-5216,1616,15496,867,-222,-3041,4000,13000,99000,271182,
-5144,1716,15364,870,-142,-3005,4000,13000,99000,271184,
-5064,1548,15312,772,221,-2703,4000,13000,99000,271197,
-5040,1564,15428,746,280,-2629,4000,13000,99000,271199,
-5036,1380,15436,762,358,-2590,4000,13000,99000,271201,
-5348,1228,15668,755,646,-2337,4000,13000,98000,271214,
-5452,1364,15468,730,688,-2276,4000,13000,98000,271216,
-5452,1332,15496,731,693,-2266,4000,13000,98000,271218,
-5696,1332,15556,598,478,-2129,4000,13000,98000,271231,
-5800,1412,15352,541,376,-2143,4000,13000,98000,271233,
-5736,1444,15280,558,297,-2107,4000,13000,98000,271236,
-5728,1432,15288,398,-156,-1983,4000,13000,98000,271248,
-5740,1236,15364,411,-201,-1961,4000,13000,98000,271250,
-5744,1372,15320,383,-238,-1959,4000,13000,98000,271253,
-5472,1300,15648,309,-417,-1794,4000,13000,98000,271265,
-5368,1356,15568,291,-421,-1788,4000,13000,98000,271267,
-5348,1308,15728,265,-366,-1749,4000,13000,98000,271270,
-5256,1476,15572,115,-188,-1431,4000,13000,97000,271282,
-5140,1372,15640,81,-172,-1362,4000,13000,97000,271285,
-5252,1456,15492,67,-115,-1284,4000,13000,97000,271287,
-5200,1332,15652,45,-38,-953,4000,13000,97000,271299,
-5180,1224,15640,49,-44,-902,4000,13000,97000,271302,
-5128,1220,15752,64,-33,-901,4000,13000,97000,271304,
-4988,1176,15688,62,12,-836,4000,13000,97000,271306,
-5008,1316,15928,133,125,-790,4000,13000,97000,271319,
-5004,1368,15932,128,137,-810,4000,13000,97000,271321,
-4944,1316,15772,104,139,-788,4000,13000,97000,271323,
-5060,1308,15968,63,122,-703,4000,13000,97000,271336,
-5028,1320,15928,67,49,-677,4000,13000,97000,271338,
-4980,1256,16036,40,69,-677,4000,13000,97000,271341,
-4996,1304,16152,37,13,-671,4000,14000,97000,271343,
-5072,1256,15964,-18,-111,-649,4000,14000,97000,271356,
-4892,1220,16028,-20,-122,-629,4000,14000,97000,271358,
-4828,1180,16048,-45,-156,-630,4000,14000,97000,271360,
-4676,1220,16080,-19,-154,-603,4000,14000,97000,271373,
-4820,1120,16136,-32,-153,-576,4000,14000,97000,271375,
-4732,1140,15976,-21,-128,-565,4000,14000,97000,271377,
-4664,1252,16072,-40,-18,-428,4000,14000,97000,271390,
-4708,1260,16092,-43,-51,-409,4000,14000,97000,271392,
-4664,1340,16084,-45,-31,-388,4000,14000,97000,271394,
-4772,1232,16260,-122,-84,-228,4000,14000,97000,271407,
-4860,1112,16352,-162,-126,-229,4000,14000,97000,271409,
-4804,1152,16224,-186,-159,-208,4000,14000,97000,271411,
-4548,1092,16436,-194,-307,-211,4000,14000,97000,271424,
-4592,1168,16088,-174,-303,-208,4000,14000,97000,271426,
-4500,1200,16172,-186,-277,-212,4000,14000,97000,271428,
-4380,1148,15984,-167,-114,-54,4000,14000,97000,271441,
-4288,1092,16060,-142,-103,-24,4000,14000,97000,271443,
-4304,1080,16120,-167,-32,-5,4000,14000,97000,271446,
-4428,952,16196,-151,42,76,4000,14000,97000,271458,
-4460,948,16212,-141,28,81,4000,14000,97000,271460,
-4476,900,16316,-134,23,89,4000,14000,97000,271463,
-4444,888,16128,-127,5,69,4000,14000,97000,271465,
-4324,1200,16208,-152,-105,-17,4000,14000,97000,271478,
-4428,1168,16224,-128,-140,-41,4000,14000,97000,271480,
-4240,1112,16296,-129,-167,-50,4000,14000,97000,271482,
-4200,968,16208,-146,-259,-71,4000,14000,97000,271495,
-4248,988,16156,-136,-268,-102,4000,14000,97000,271497,
-4272,1064,16232,-123,-281,-91,4000,14000,97000,271499,
-4160,1168,16472,-146,-249,-106,4000,13000,97000,271512,
-4072,1092,16116,-144,-229,-112,4000,13000,97000,271514,
-4112,928,16328,-177,-200,-90,4000,13000,97000,271516,
-4196,980,16392,-181,-188,-15,4000,13000,97000,271529,
-4184,920,16304,-189,-171,-26,4000,13000,97000,271531,
-4120,820,16256,-164,-157,-12,4000,13000,97000,271534,
-4160,952,16368,-99,-153,67,4000,13000,97000,271546,
-4252,952,16156,-95,-173,38,4000,13000,97000,271548,
-4216,940,16296,-104,-146,54,4000,13000,97000,271551,
-4200,976,16168,-87,-157,60,4000,13000,97000,271553,
-4220,936,16468,-89,-216,33,4000,13000,97000,271566,
-4100,884,16504,-74,-223,19,4000,13000,97000,271568,
-4144,1004,16216,-86,-223,2,4000,13000,97000,271570,
-4116,960,16316,-115,-252,58,4000,13000,97000,271583,
-4288,900,16456,-138,-249,84,4000,13000,97000,271585,
-4228,788,16288,-137,-257,81,4000,13000,97000,271587,
-4068,828,16312,-94,-223,90,4000,13000,97000,271589,
-3992,772,16168,-27,-60,103,4000,13000,97000,271602,
-4016,728,16348,-6,-16,100,4000,13000,97000,271604,
-4032,792,16272,2,29,125,4000,13000,97000,271607,
-3896,708,16188,42,199,168,4000,13000,97000,271619,
-3996,816,16384,68,216,161,4000,13000,97000,271621,
-3932,724,16340,83,263,185,4000,13000,97000,271624,
-3936,848,16040,78,272,193,4000,13000,97000,271626,
-4204,784,15932,60,251,262,4000,13000,97000,271639,
-4220,864,15964,22,227,269,4000,13000,97000,271641,
-4076,776,15872,18,193,282,4000,13000,97000,271643,
-4468,824,15856,-74,-37,268,4000,13000,97000,271656,
-4432,776,15812,-79,-74,240,4000,13000,97000,271658,
-4420,852,15836,-108,-170,262,4000,13000,97000,271660,
-4432,808,15884,-153,-232,257,4000,13000,97000,271662,
-4472,752,15844,-273,-598,178,4000,13000,97000,271675,
-4464,832,16168,-275,-670,169,4000,13000,97000,271677,
-4376,660,16088,-271,-739,158,4000,13000,97000,271679,
-3948,640,16100,-257,-746,225,4000,13000,97000,271692,
-3880,508,16224,-233,-671,204,4000,13000,97000,271694,
-3720,564,16340,-239,-584,218,4000,13000,97000,271697,
-3468,588,16296,-105,67,355,4000,13000,97000,271709,
-3316,620,16216,-93,162,378,4000,13000,97000,271711,
-3344,640,16068,-71,270,394,4000,13000,97000,271714,
-3356,752,16184,-42,339,416,4000,13000,97000,271716,
-3844,748,16132,30,556,461,4000,13000,97000,271729,
-3900,692,16172,34,515,472,4000,13000,97000,271731,
-3916,748,16232,42,496,441,4000,13000,97000,271733,
-4108,832,16144,-24,223,231,4000,13000,97000,271746,
-4080,840,16284,-29,168,180,4000,13000,97000,271748,
-4020,780,16192,-44,106,138,4000,13000,97000,271750,
-4068,816,16168,-37,80,111,4000,13000,97000,271753,
-3976,660,16244,-120,-124,-31,4000,13000,97000,271765,
-3928,648,16216,-96,-124,-25,4000,13000,97000,271768,
