Ax,Ay,Az,Gx,Gy,Gz,Roll,Pitch,Yaw,Timestamp,Target
688,1704,16740,-634,-350,133,-1000,0,221000,847011,
1280,1828,16700,-598,-400,68,-1000,0,221000,847023,
1300,1804,16768,-586,-311,30,-1000,0,221000,847026,
1388,1864,16656,-562,-311,11,-1000,0,221000,847028,
1480,1960,16860,-570,-268,26,-1000,0,221000,847030,
1280,1816,16928,-509,138,-29,-1000,0,221000,847043,
1412,1712,16952,-572,225,-33,-1000,0,221000,847045,
1360,1740,16792,-577,296,-46,-1000,0,221000,847048,
824,1504,16884,-536,496,111,-1000,0,221000,847060,
800,1412,16876,-534,525,90,-1000,0,221000,847063,
824,1644,16900,-499,514,131,-1000,0,221000,847065,
632,1444,17068,-540,469,156,-1000,0,221000,847067,
568,1636,17076,-477,199,283,-1000,0,221000,847080,
568,1624,16940,-490,146,279,-1000,0,221000,847082,
632,1636,17032,-461,124,244,-1000,0,221000,847085,
692,1680,17076,-461,61,287,-1000,0,221000,847087,
876,1696,16940,-346,22,163,-1000,0,221000,847100,
1048,1744,16912,-368,4,136,-1000,0,221000,847102,
1004,1756,16948,-352,19,126,-1000,0,221000,847105,
1172,1744,16848,-303,-22,61,-1000,0,221000,847107,
1332,1740,16832,-356,-278,61,-1000,0,221000,847120,
1344,1664,16864,-277,-330,57,-1000,0,221000,847122,
1332,1696,16848,-306,-312,111,-1000,0,221000,847124,
1296,1580,16972,-315,-303,107,-1000,0,221000,847127,
1208,1740,16804,-269,-2,166,-1000,0,221000,847139,
1144,1720,16864,-276,40,144,-1000,0,221000,847142,
1168,1848,16836,-218,70,153,-1000,0,221000,847144,
1140,1760,16756,-253,66,196,-1000,0,221000,847147,
1188,1784,16592,-278,166,129,-1000,0,221000,847159,
1116,1920,16656,-350,171,134,-1000,0,221000,847162,
1208,1760,16576,-354,224,109,-1000,0,221000,847164,
1244,1896,16660,-345,217,106,-1000,0,221000,847167,
1296,1852,16412,-389,269,73,-1000,0,222000,847179,
1292,1784,16612,-368,281,65,-1000,0,222000,847182,
1260,1800,16456,-413,334,67,-1000,0,222000,847184,
1340,1848,16532,-411,385,68,-1000,0,222000,847186,
812,1824,16456,-411,608,91,-1000,0,222000,847199,
900,1792,16472,-430,621,79,-1000,0,222000,847201,
764,1628,16604,-365,516,142,-1000,0,222000,847214,
824,1640,16640,-372,478,133,-1000,0,222000,847216,
712,1516,16668,-351,434,81,-1000,0,222000,847219,
728,1560,16476,-323,344,129,-1000,0,222000,847221,
848,1612,16540,-249,132,118,-1000,0,222000,847234,
880,1596,16644,-231,83,147,-1000,0,222000,847236,
808,1656,16392,-262,120,153,-1000,0,222000,847239,
920,1732,16480,-264,170,141,-1000,0,222000,847241,
1036,1784,16432,-239,468,159,-1000,0,222000,847254,
1060,1940,16688,-231,539,143,-1000,0,222000,847256,
1120,1868,16496,-223,545,182,-1000,0,222000,847258,
1016,1836,16432,-281,551,181,-1000,0,222000,847261,
1000,1912,16292,-262,626,305,-1000,0,222000,847273,
1096,1904,16284,-328,659,302,-1000,0,222000,847276,
968,1828,16264,-293,719,302,-1000,0,222000,847278,
940,1816,16192,-316,737,379,-1000,0,222000,847280,
744,1560,16212,-367,909,456,-1000,0,222000,847293,
660,1628,16096,-335,832,497,-1000,0,222000,847295,
644,1664,16140,-417,861,513,-1000,0,222000,847298,
696,1652,16088,-433,809,522,-1000,0,222000,847300,
544,1564,15964,-557,460,649,-1000,0,222000,847313,
592,1656,16148,-558,444,635,-1000,0,222000,847315,
496,1628,16064,-540,390,662,-1000,0,222000,847317,
512,1588,16032,-621,325,655,-1000,0,222000,847320,
572,1668,15892,-652,187,752,-1000,0,222000,847332,
632,1640,15908,-696,171,757,-1000,0,222000,847335,
644,1720,15832,-698,192,739,-1000,0,222000,847337,
724,1736,15948,-692,129,777,-1000,0,222000,847339,
948,1656,16140,-745,22,727,-1000,0,222000,847352,
1128,1672,16024,-751,-33,719,-1000,0,222000,847354,
1076,1656,16148,-784,-32,726,-1000,0,222000,847357,
1068,1716,16256,-757,8,679,-1000,0,222000,847359,
1456,1728,16372,-767,-89,622,-1000,0,222000,847372,
1400,1792,16364,-751,-47,571,-1000,0,222000,847374,
1416,1732,16412,-734,-105,581,-1000,0,222000,847376,
1456,1704,16440,-764,116,532,-1000,0,222000,847389,
1360,1656,16532,-721,108,554,-1000,0,222000,847391,
1328,1560,16604,-750,179,557,-1000,0,222000,847394,
1328,1500,16380,-733,262,537,-1000,0,222000,847396,
1312,1608,16316,-738,509,555,-1000,0,222000,847409,
1320,1672,16444,-751,568,573,-1000,0,222000,847411,
1348,1784,16444,-694,559,575,-1000,0,222000,847414,
1312,1920,16536,-747,592,579,-1000,0,222000,847416,
1428,2156,16756,-779,544,511,-1000,0,222000,847429,
1440,2212,16716,-828,541,473,-1000,0,222000,847431,
1504,2192,16764,-862,548,418,-1000,0,222000,847433,
1488,2084,16976,-845,502,370,-1000,0,222000,847436,
1136,1924,16920,-927,677,175,-1000,0,222000,847448,
980,1800,16768,-872,679,182,-1000,0,222000,847451,
1072,1652,16804,-897,705,187,-1000,0,222000,847453,
912,1452,17044,-838,449,292,-1000,0,222000,847466,
820,1548,17236,-904,365,317,-1000,0,222000,847468,
852,1572,17080,-902,293,335,-1000,0,222000,847470,
764,1592,17352,-859,187,310,-1000,0,222000,847473,
828,1644,17176,-854,-211,301,-1000,0,222000,847485,
808,1604,17128,-791,-220,289,-1000,0,222000,847488,
740,1576,17072,-794,-244,286,-1000,0,222000,847490,
648,1632,17036,-821,-180,229,-1000,0,222000,847492,
788,1556,17040,-690,-159,142,-1000,0,222000,847505,
784,1412,17068,-690,-181,164,-1000,0,222000,847507,
808,1452,17172,-638,-196,133,-1000,0,222000,847510,
748,1420,17136,-643,-249,157,-1000,0,222000,847512,
1052,1596,17200,-528,-368,76,-1000,0,222000,847525,
1224,1672,17372,-515,-397,122,-1000,0,222000,847527,
1320,1700,16976,-526,-366,126,-1000,0,222000,847530,
1208,1716,17204,-471,-314,110,-1000,0,222000,847532,
1232,1492,16932,-515,-113,237,-1000,0,222000,847545,
1164,1512,16816,-430,-46,242,-1000,0,222000,847547,
1120,1588,16876,-443,-6,290,-1000,0,222000,847549,
984,1324,16464,-359,235,287,-1000,0,223000,847562,
936,1356,16320,-369,285,273,-1000,0,223000,847564,
848,1132,16176,-361,357,267,-1000,0,223000,847567,
748,1156,16252,-303,339,285,-1000,0,223000,847569,
708,1328,16276,-297,279,370,-1000,0,223000,847582,
720,1360,16292,-223,244,336,-1000,0,223000,847584,
712,1424,16352,-271,170,384,-1000,0,223000,847587,
764,1312,16288,-306,134,383,-1000,0,223000,847589,
1076,1556,16096,-264,11,475,-1000,0,223000,847602,
984,1532,16136,-255,62,507,-1000,0,223000,847604,
1148,1492,16160,-207,83,444,-1000,0,223000,847606,
1172,1472,15848,-222,117,503,-1000,0,223000,847609,
960,1108,15444,-180,396,463,-1000,0,223000,847621,
896,1100,15264,-190,435,504,-1000,0,223000,847624,
904,992,15364,-180,540,510,-1000,0,223000,847626,
864,984,15056,-122,650,525,-1000,0,223000,847628,
764,820,14788,-129,1029,638,-1000,0,223000,847641,
748,848,14780,-74,1021,644,-1000,0,223000,847643,
824,1236,14388,-312,925,761,-1000,0,223000,847656,
760,1328,14476,-278,862,790,-1000,0,223000,847658,
840,1496,14476,-364,823,869,-1000,0,223000,847661,
764,1500,14512,-428,803,916,-1000,0,223000,847663,
396,1968,14808,-702,767,1283,-1000,0,223000,847676,
488,2052,14788,-779,795,1345,-1000,0,223000,847678,
388,1728,14928,-750,825,1360,-1000,0,223000,847681,
280,1708,15016,-777,853,1413,-1000,0,223000,847683,
140,924,14732,-802,770,1345,-1000,0,223000,847696,
116,720,14644,-817,727,1315,-1000,0,223000,847698,
200,760,14740,-830,669,1274,-1000,0,223000,847700,
156,660,14436,-822,501,1285,-1000,0,223000,847703,
740,1100,14044,-943,-270,1225,-1000,0,223000,847715,
832,1240,14160,-950,-460,1241,-1000,0,223000,847718,
820,1452,14160,-1022,-614,1272,-1000,0,223000,847720,
1000,1644,13896,-1039,-704,1285,-1000,0,224000,847722,
1308,2204,14088,-1156,-851,1546,-1000,0,224000,847735,
1404,2160,14364,-1158,-746,1579,-1000,0,224000,847737,
1384,2112,14248,-1122,-730,1612,-1000,0,224000,847740,
1368,1340,14744,-1045,-70,1625,-1000,0,224000,847752,
1336,956,14808,-946,-14,1604,-1000,0,224000,847755,
1292,748,14892,-907,34,1582,-1000,0,224000,847757,
1312,708,15044,-881,177,1537,-1000,0,224000,847759,
720,144,15140,-639,476,1464,-1000,0,224000,847772,
768,196,15260,-621,525,1455,-1000,0,224000,847774,
472,244,15296,-558,526,1450,-1000,0,224000,847777,
424,328,15288,-584,475,1480,-1000,0,224000,847779,
12,704,15336,-516,431,1705,-2000,0,224000,847791,
24,892,15380,-565,398,1783,-2000,0,224000,847794,
16,780,15304,-561,446,1840,-2000,0,224000,847796,
96,860,15364,-557,489,1867,-2000,0,224000,847798,
364,1020,15116,-592,545,2051,-2000,0,225000,847811,
468,1108,14816,-595,576,2075,-2000,0,225000,847813,
588,1216,14976,-591,597,2092,-2000,0,225000,847816,
624,1092,14992,-603,665,2078,-2000,0,225000,847818,
1020,1592,14796,-778,984,1975,-2000,0,225000,847831,
1196,1796,14844,-909,1047,1976,-2000,0,225000,847833,
1180,1964,14620,-963,1126,1968,-2000,0,225000,847836,
1392,2696,14868,-1533,1381,2032,-2000,0,225000,847848,
1208,2728,14996,-1569,1403,2025,-2000,0,225000,847851,
1188,2808,15088,-1637,1424,2080,-2000,0,225000,847853,
980,2772,15284,-1697,1436,2084,-2000,0,225000,847856,
792,2532,15372,-1997,1222,1907,-2000,0,225000,847868,
756,2252,15440,-2043,1190,1834,-2000,0,226000,847871,
756,2164,15276,-2086,1109,1726,-2000,0,226000,847873,
648,1560,15260,-2368,400,1256,-2000,0,226000,847886,
572,1384,15232,-2343,355,1206,-2000,0,226000,847888,
744,1376,15184,-2372,209,1136,-2000,0,226000,847890,
784,1344,15104,-2412,144,1108,-2000,0,226000,847893,
1328,1700,14648,-2884,-145,893,-2000,0,226000,847905,
1472,1776,14696,-2962,-115,848,-2000,0,226000,847908,
1468,1764,14548,-3034,-27,845,-2000,0,226000,847910,
1912,2116,14344,-3602,691,918,-3000,0,226000,847923,
1992,2280,14612,-3727,882,969,-3000,0,226000,847925,
1956,2100,14592,-3813,1024,1009,-3000,0,226000,847927,
2040,2168,14716,-3974,1210,1066,-3000,0,226000,847930,
1244,1748,15644,-4277,2200,1328,-3000,0,226000,847942,
1172,1784,15668,-4336,2346,1338,-3000,0,226000,847945,
1020,1668,15836,-4388,2518,1282,-3000,0,226000,847947,
780,952,16168,-4534,2442,872,-4000,0,226000,847960,
832,824,16004,-4517,2401,746,-4000,1000,226000,847962,
756,620,16040,-4483,2258,678,-4000,1000,226000,847964,
824,576,15904,-4499,2140,586,-4000,1000,226000,847967,
912,72,14948,-4546,1703,153,-4000,1000,226000,847979,
916,248,14648,-4625,1697,106,-4000,1000,226000,847982,
912,136,14632,-4651,1744,58,-5000,1000,226000,847984,
1172,832,14716,-4997,1785,84,-5000,1000,226000,847997,
1084,876,14900,-5099,1878,114,-5000,1000,226000,847999,
1128,1036,15148,-5131,1913,150,-5000,1000,226000,848001,
1392,748,15624,-5305,2377,215,-6000,1000,226000,848014,
1320,516,15792,-5326,2419,181,-6000,1000,226000,848016,
1328,280,15772,-5362,2573,84,-6000,1000,226000,848019,
884,-436,15724,-5395,2998,-380,-6000,1000,226000,848031,
892,-492,15664,-5418,3055,-465,-6000,2000,226000,848034,
796,-596,15656,-5399,3136,-489,-6000,2000,226000,848036,
820,-452,15036,-5650,3414,-466,-7000,2000,226000,848049,
668,-328,15092,-5718,3550,-476,-7000,2000,226000,848051,
652,-128,15196,-5772,3616,-421,-7000,2000,226000,848053,
752,732,15396,-6290,4085,-268,-8000,2000,226000,848066,
716,1060,15520,-6402,4081,-199,-8000,2000,226000,848068,
704,972,15748,-6506,4140,-212,-8000,2000,226000,848071,
460,620,16572,-6764,4517,-230,-9000,3000,226000,848083,
232,332,16752,-6819,4542,-322,-9000,3000,226000,848086,
28,120,17152,-6794,4555,-349,-9000,3000,226000,848088,
-580,-868,17456,-6917,4198,-515,-9000,3000,226000,848101,
-668,-892,17632,-6918,4028,-580,-9000,3000,226000,848103,
-848,-956,17668,-6947,3805,-547,-10000,4000,226000,848106,
-1536,-1100,18088,-6744,2319,-690,-10000,4000,225000,848122,
-1460,-1000,18084,-6715,2150,-688,-11000,4000,225000,848124,
-1608,-1004,18292,-6632,1860,-731,-11000,4000,225000,848127,
-1380,-1480,18096,-6434,989,-801,-11000,4000,225000,848139,
-1168,-1500,18300,-6331,797,-828,-11000,4000,225000,848142,
-1064,-1532,18480,-6320,638,-830,-11000,4000,225000,848144,
-680,-1208,18564,-6278,160,-776,-12000,4000,225000,848157,
-592,-992,18676,-6299,95,-739,-12000,4000,225000,848159,
-552,-788,18740,-6332,93,-710,-12000,4000,225000,848162,
-544,-824,19364,-6289,382,-397,-13000,4000,225000,848174,
-524,-852,19388,-6320,527,-373,-13000,4000,225000,848177,
-516,-952,19624,-6270,629,-350,-13000,4000,225000,848179,
-772,-1484,19924,-6246,1030,-412,-14000,4000,225000,848192,
-824,-1680,20084,-6231,981,-389,-14000,4000,225000,848194,
-908,-1680,20236,-6258,982,-394,-14000,4000,225000,848196,
-1484,-1904,21312,-6015,346,-130,-14000,4000,225000,848209,
-1536,-2040,21384,-5978,180,-33,-14000,4000,225000,848211,
-1556,-2088,21544,-5885,-39,-2,-14000,4000,225000,848214,
-1684,-2420,21824,-5478,-1116,125,-15000,4000,225000,848226,
-1588,-2452,21924,-5340,-1281,74,-15000,4000,225000,848229,
-1468,-2436,21900,-5212,-1543,59,-15000,4000,225000,848231,
-1116,-2448,22864,-4685,-2490,-98,-15000,4000,225000,848244,
-888,-2544,23032,-4563,-2694,-101,-16000,4000,225000,848246,
-684,-2520,23300,-4547,-2822,-133,-16000,4000,225000,848249,
148,-2416,24176,-3921,-3231,-41,-16000,3000,225000,848261,
228,-2420,24532,-3804,-3304,-16,-16000,3000,225000,848264,
276,-2400,24660,-3651,-3240,-28,-16000,3000,225000,848266,
1040,-2884,25780,-2627,-2500,430,-16000,3000,225000,848278,
1180,-2924,25728,-2427,-2350,456,-16000,3000,225000,848281,
1268,-3172,25788,-2292,-2263,495,-16000,3000,225000,848283,
1500,-3696,26076,-1059,-1257,364,-16000,3000,226000,848296,
1296,-3772,26020,-829,-1110,329,-16000,3000,226000,848298,
1320,-3768,25812,-629,-928,337,-16000,3000,226000,848301,
768,-3628,26020,333,-238,621,-16000,3000,226000,848313,
600,-3476,25960,519,-108,690,-16000,3000,226000,848316,
552,-3348,26112,724,21,748,-16000,3000,226000,848318,
576,-3304,25936,929,80,841,-16000,3000,226000,848320,
300,-3388,25924,1941,474,1084,-16000,3000,226000,848333,
300,-3264,26088,2089,522,1147,-16000,3000,226000,848335,
252,-3264,25560,1916,265,1107,-16000,3000,226000,848338,
40,-3988,25460,3071,-58,1145,-15000,3000,226000,848350,
8,-3928,25436,3198,-104,1205,-15000,3000,226000,848353,
-104,-4064,25316,3415,-131,1196,-15000,3000,226000,848355,
-228,-3788,24424,4187,-479,1503,-15000,3000,226000,848368,
-368,-3744,24024,4384,-471,1601,-15000,3000,226000,848370,
-384,-3668,24028,4555,-533,1644,-15000,3000,226000,848372,
-576,-3004,23560,5167,-710,1802,-14000,3000,226000,848385,
-544,-2916,23492,5245,-804,1814,-14000,3000,226000,848388,
-496,-2696,23312,5270,-919,1855,-14000,3000,226000,848390,
8,-2576,23040,5668,-1547,1853,-13000,2000,227000,848402,
-16,-2524,22868,5703,-1613,1902,-13000,2000,227000,848405,
112,-2468,22952,5768,-1663,1870,-13000,2000,227000,848407,
332,-2708,22440,6122,-1798,1928,-12000,2000,227000,848420,
148,-2628,22504,6159,-1781,1966,-12000,2000,227000,848422,
236,-2720,22380,6273,-1794,1982,-12000,2000,227000,848424,
36,-2300,21772,6451,-1883,2122,-12000,2000,227000,848437,
80,-2272,21804,6527,-1934,2162,-11000,2000,227000,848440,
-12,-2240,21656,6544,-1929,2189,-11000,2000,227000,848442,
-88,-1776,21528,6561,-2148,2119,-11000,2000,228000,848455,
-228,-1496,21120,6554,-2200,2073,-10000,2000,228000,848457,
-220,-1548,21080,6593,-2258,2018,-10000,2000,228000,848459,
-208,-1672,20448,6729,-2651,1937,-10000,2000,228000,848472,
-124,-1740,20484,6885,-2703,1905,-9000,1000,228000,848474,
-292,-1808,20188,6843,-2727,1935,-9000,1000,228000,848477,
-468,-2304,19524,7116,-3039,1819,-9000,1000,228000,848489,
-348,-2268,19656,7114,-3101,1773,-9000,1000,228000,848492,
-472,-2408,19480,7200,-3136,1761,-8000,1000,228000,848494,
-500,-2128,19192,7378,-3610,1623,-8000,1000,229000,848507,
-324,-1864,19272,7400,-3702,1601,-7000,1000,229000,848509,
-348,-1812,19048,7455,-3865,1569,-7000,1000,229000,848511,
92,-1144,18292,7600,-4444,1448,-7000,0,229000,848524,
168,-1108,18364,7713,-4504,1403,-6000,0,229000,848526,
344,-664,17768,7667,-4705,1220,-6000,0,229000,848539,
372,-712,17732,7715,-4721,1201,-6000,0,229000,848541,
516,-528,17564,7675,-4762,1175,-5000,0,229000,848544,
688,-448,17560,7648,-4699,1168,-5000,0,229000,848546,
964,-312,17400,7520,-4852,1196,-4000,0,229000,848559,
1100,-368,17504,7437,-4859,1201,-4000,0,229000,848561,
1096,-400,17296,7468,-4918,1193,-4000,0,229000,848564,
944,-428,16764,7215,-5025,1287,-3000,-1000,230000,848576,
960,-392,16816,7277,-4987,1276,-3000,-1000,230000,848579,
708,-512,16808,7229,-4872,1288,-3000,-1000,230000,848581,
0,-980,16280,7289,-4343,895,-3000,-1000,230000,848593,
80,-940,16476,7767,-3968,873,-2000,-1000,230000,848596,
140,-628,15924,7672,-4102,826,-2000,-1000,230000,848598,
1024,-464,15716,7648,-5958,141,-2000,-2000,230000,848611,
1068,-196,15632,7563,-6427,-28,-1000,-2000,230000,848613,
1272,-136,15620,7587,-6698,-113,-1000,-2000,230000,848616,
2452,576,15224,7477,-7624,-352,0,-3000,230000,848628,
2680,588,15160,7488,-7585,-410,0,-3000,230000,848631,
2936,808,15456,7469,-7506,-399,0,-3000,230000,848633,
2984,820,15572,7414,-7348,-438,0,-3000,230000,848635,
3972,1360,15772,7085,-6227,-635,0,-4000,230000,848648,
4112,1304,15644,7029,-5934,-655,0,-4000,230000,848650,
4228,1372,15760,7008,-5667,-696,0,-4000,230000,848653,
4108,1116,15536,6789,-4086,-725,1000,-5000,230000,848665,
4160,1004,15528,6846,-3754,-713,1000,-5000,230000,848668,
3808,688,15180,6890,-3418,-671,1000,-5000,230000,848670,
2820,252,14376,6975,-1502,-651,2000,-5000,229000,848683,
2768,36,14204,7010,-1266,-647,2000,-5000,229000,848685,
2552,4,13912,6976,-1060,-666,2000,-5000,229000,848687,
2360,196,13260,7146,-1040,-911,2000,-5000,229000,848700,
2268,188,13116,7068,-1135,-949,3000,-5000,229000,848702,
2372,356,13288,7097,-1248,-1032,3000,-5000,229000,848705,
2800,940,13556,7093,-2546,-1267,3000,-6000,229000,848717,
2876,1260,13356,7093,-2793,-1304,4000,-6000,229000,848720,
2988,1296,13468,7122,-2986,-1318,4000,-6000,229000,848722,
3584,1544,13368,7018,-3599,-1307,4000,-6000,229000,848735,
3628,1488,13468,7062,-3613,-1332,5000,-6000,229000,848737,
3648,1492,13252,6961,-3602,-1313,5000,-6000,229000,848740,
4008,1304,12860,6948,-3165,-1521,5000,-7000,229000,848752,
4136,1216,12956,6884,-3078,-1530,6000,-7000,229000,848755,
4124,1340,12928,6838,-3049,-1584,6000,-7000,229000,848757,
4292,1456,12640,6756,-3152,-1925,6000,-7000,228000,848770,
4384,1572,12484,6759,-3158,-1998,6000,-7000,228000,848772,
4412,1544,12548,6755,-3126,-2072,7000,-7000,228000,848774,
4728,1812,12496,6506,-3050,-2439,7000,-8000,228000,848787,
4792,1800,12648,6512,-3044,-2522,7000,-8000,228000,848789,
4936,1892,12672,6460,-3104,-2567,8000,-8000,228000,848792,
5556,2028,12884,6370,-2843,-2888,8000,-8000,228000,848804,
5688,1908,12884,6328,-2825,-2898,8000,-8000,228000,848807,
5632,2092,12932,6283,-2802,-2934,8000,-8000,228000,848809,
5920,2220,13080,6141,-2492,-3102,9000,-8000,227000,848822,
5860,2228,13440,6118,-2474,-3166,9000,-9000,227000,848824,
5952,2280,13320,6155,-2391,-3217,9000,-9000,227000,848826,
5656,2300,12684,6257,-2218,-3290,10000,-9000,227000,848839,
5648,2360,12476,6313,-2172,-3363,10000,-9000,227000,848841,
5616,2288,12448,6328,-2129,-3352,10000,-9000,227000,848844,
5416,2640,12396,6316,-1774,-3656,11000,-9000,226000,848856,
5436,2664,12428,6246,-1756,-3684,11000,-9000,226000,848859,
5480,2776,12384,6222,-1732,-3762,11000,-9000,226000,848861,
5680,3516,12492,6035,-1879,-4105,12000,-9000,226000,848874,
5784,3492,12356,5971,-1894,-4145,12000,-9000,225000,848876,
5756,3528,12328,5932,-1882,-4254,12000,-9000,225000,848879,
5984,4068,12388,5496,-2026,-4502,13000,-10000,225000,848891,
6100,4168,12416,5451,-1920,-4592,13000,-10000,225000,848894,
6104,4268,12432,5381,-1878,-4605,13000,-10000,225000,848896,
5920,4408,12460,5143,-1209,-4852,14000,-10000,224000,848909,
5940,4288,12348,5049,-1161,-4858,14000,-10000,224000,848911,
5616,4528,12008,4682,-1137,-5177,14000,-10000,224000,848924,
5444,4640,11976,4578,-1177,-5182,14000,-10000,224000,848926,
5460,4636,11836,4486,-1163,-5282,15000,-10000,223000,848929,
5280,4776,12132,4278,-1284,-5579,15000,-10000,223000,848942,
5248,4872,12084,4211,-1312,-5678,15000,-10000,223000,848944,
5172,4936,12564,4219,-1391,-5734,15000,-10000,223000,848946,
5412,5616,12440,3882,-1836,-5975,16000,-10000,222000,848959,
5560,5484,12464,3891,-1846,-6065,16000,-10000,222000,848961,
5556,5648,12388,3821,-1835,-6049,16000,-10000,222000,848964,
5352,5664,12216,3580,-1329,-6336,17000,-10000,221000,848977,
5304,5576,12264,3536,-1182,-6380,17000,-10000,221000,848979,
5112,5700,12468,3504,-1036,-6436,17000,-10000,221000,848981,
5048,6052,12364,3179,-749,-6614,17000,-10000,220000,848994,
4980,6176,12404,3166,-756,-6697,17000,-10000,220000,848996,
4948,6200,12340,3103,-792,-6661,17000,-10000,220000,848999,
4792,6608,12504,2733,-916,-6825,18000,-10000,219000,849011,
4752,6564,12264,2648,-1017,-6814,18000,-10000,219000,849014,
4796,6740,12424,2570,-1075,-6854,18000,-10000,219000,849016,
4088,6648,12444,2282,-1226,-7168,18000,-10000,218000,849029,
4028,6640,12312,2241,-1153,-7233,19000,-10000,218000,849031,
3792,6532,12344,2202,-1098,-7340,19000,-10000,218000,849034,
3328,6032,11904,1982,-1038,-7642,19000,-10000,217000,849046,
3228,6124,11780,1954,-1047,-7714,19000,-10000,217000,849049,
3228,6248,11760,1920,-1155,-7693,19000,-10000,217000,849051,
2980,6760,12032,1456,-1820,-7757,19000,-10000,216000,849064,
2968,7000,11956,1401,-1965,-7692,19000,-10000,216000,849066,
3032,7092,12072,1295,-2031,-7672,20000,-10000,216000,849068,
2992,7120,11936,978,-1933,-7598,20000,-9000,215000,849081,
2924,7132,11916,921,-1850,-7565,20000,-9000,215000,849083,
2884,7116,11880,842,-1769,-7613,20000,-9000,215000,849086,
3108,6728,11224,740,-1326,-7686,20000,-9000,214000,849098,
3060,6692,10980,766,-1175,-7735,20000,-9000,214000,849101,
3092,6656,10856,799,-1069,-7767,20000,-9000,214000,849103,
2992,7140,10924,489,-282,-7781,21000,-9000,213000,849116,
3064,7184,11188,442,-150,-7752,21000,-9000,213000,849118,
3016,7320,11260,344,-102,-7668,21000,-9000,213000,849120,
2616,7244,11596,108,202,-7541,21000,-9000,212000,849133,
2488,7208,11796,53,262,-7496,21000,-9000,212000,849135,
2400,7212,11616,18,401,-7518,21000,-9000,212000,849138,
1940,6868,11188,-166,720,-7611,21000,-8000,211000,849150,
1956,6932,11000,-168,794,-7655,21000,-8000,211000,849153,
1800,6896,10808,-161,830,-7661,21000,-8000,211000,849155,
1680,7516,10304,-559,930,-7634,21000,-8000,210000,849168,
1640,7780,10472,-669,876,-7577,21000,-8000,210000,849170,
1584,7920,10528,-782,892,-7531,21000,-8000,210000,849172,
1404,8564,10536,-1287,1232,-7221,21000,-7000,209000,849185,
1236,8448,10396,-1446,1320,-7161,21000,-7000,209000,849187,
1268,8380,10476,-1574,1474,-7188,21000,-7000,209000,849190,
644,7768,10668,-2071,1674,-7175,21000,-7000,209000,849202,
408,7612,10676,-2173,1687,-7189,21000,-7000,208000,849205,
288,7588,10748,-2217,1608,-7166,21000,-6000,208000,849207,
-424,7200,11268,-2533,1101,-7075,21000,-6000,208000,849220,
-468,7108,11320,-2538,922,-7017,21000,-6000,208000,849222,
-524,7160,11424,-2609,754,-6966,21000,-6000,207000,849224,
-288,7268,11640,-2795,-204,-6828,21000,-6000,207000,849237,
-292,7464,11804,-2842,-342,-6817,21000,-6000,207000,849239,
-228,7560,11704,-2873,-405,-6813,21000,-6000,207000,849242,
192,8068,11556,-3194,-440,-6640,21000,-5000,206000,849254,
88,8196,11484,-3266,-319,-6621,21000,-5000,206000,849257,
276,8252,11716,-3292,-296,-6563,21000,-5000,206000,849259,
148,8544,11856,-3830,34,-6348,21000,-5000,205000,849272,
188,8412,11700,-3876,110,-6296,20000,-5000,205000,849274,
32,8392,11952,-3993,172,-6243,20000,-5000,205000,849277,
-548,7856,12232,-4295,567,-6128,20000,-5000,204000,849289,
-632,7720,12296,-4362,544,-6078,20000,-5000,204000,849291,
-700,7580,12528,-4399,560,-6063,20000,-4000,204000,849294,
-1184,7248,12552,-4537,78,-5937,20000,-4000,204000,849306,
-1248,7188,12752,-4568,15,-5952,20000,-4000,204000,849309,
-1244,7684,12772,-4890,-468,-5759,19000,-4000,203000,849321,
-1168,7680,12900,-4961,-461,-5753,19000,-4000,203000,849324,
-1088,8012,12952,-4954,-495,-5740,19000,-4000,203000,849326,
-916,7948,13332,-5268,-218,-5605,19000,-4000,202000,849339,
-948,7704,13348,-5280,-157,-5578,19000,-4000,202000,849341,
-996,7592,13492,-5330,-74,-5555,19000,-4000,202000,849344,
-1012,6424,13652,-5384,439,-5392,18000,-3000,202000,849356,
-1068,6236,13560,-5399,468,-5350,18000,-3000,202000,849358,
-1072,6100,13616,-5387,527,-5310,18000,-3000,201000,849361,
-1280,6348,13484,-5321,870,-4923,18000,-3000,201000,849374,
-1292,6524,13452,-5323,991,-4862,17000,-3000,201000,849376,
-1324,6800,13528,-5312,1082,-4762,17000,-3000,201000,849378,
-1852,7888,13540,-5718,1543,-4073,17000,-3000,201000,849391,
-1984,8172,13576,-5767,1667,-3926,17000,-2000,200000,849393,
-2252,8252,13632,-5883,1785,-3784,17000,-2000,200000,849396,
-3120,8160,13492,-6343,2273,-3324,16000,-2000,200000,849408,
-3152,8036,13640,-6403,2288,-3237,16000,-2000,200000,849411,
-3376,7728,13680,-6523,2344,-3234,16000,-2000,200000,849413,
-4132,6480,14824,-6926,1880,-3035,15000,-1000,200000,849426,
-4332,6084,14980,-6946,1758,-2979,15000,-1000,200000,849428,
-4380,5928,15060,-6869,1493,-2920,15000,-1000,200000,849430,
-4884,5784,15588,-6748,173,-2388,15000,-1000,200000,849443,
-4940,5828,15672,-6670,-69,-2286,14000,-1000,199000,849445,
-4968,5916,15532,-6699,-241,-2179,14000,-1000,199000,849448,
-4944,6264,15412,-6513,-880,-1611,14000,-1000,199000,849460,
-4744,6180,15360,-6550,-938,-1520,14000,-1000,199000,849463,
-4672,6244,15428,-6582,-979,-1458,14000,-1000,199000,849465,
-4016,5856,15072,-6485,-1063,-896,13000,-1000,199000,849478,
-3904,5672,14824,-6484,-944,-805,13000,-1000,199000,849480,
-3712,5700,14972,-6416,-892,-700,13000,-1000,199000,849482,
-3232,5196,15304,-6417,180,-24,12000,-1000,199000,849495,
-3264,5272,15436,-6364,407,93,12000,-1000,199000,849497,
-3140,5304,15496,-6364,607,285,12000,-1000,199000,849500,
-3420,5732,15464,-6350,1839,1123,11000,-1000,199000,849512,
-3460,5740,15548,-6375,2018,1293,11000,-1000,199000,849515,
-3656,5800,15604,-6454,2147,1450,11000,-1000,199000,849517,
-4256,5420,15892,-6542,2662,2064,11000,0,200000,849530,
-4316,5392,16024,-6585,2604,2146,10000,0,200000,849532,
-4368,5368,15996,-6616,2484,2242,10000,0,200000,849534,
-4488,4836,16040,-6564,1334,2601,10000,0,200000,849547,
-4224,4780,15788,-6500,1189,2655,10000,0,200000,849549,
-4120,4848,15960,-6444,1072,2781,10000,0,200000,849552,
-3524,4508,16028,-6304,1010,3116,9000,0,200000,849564,
-3440,4500,16164,-6277,1028,3190,9000,0,200000,849567,
-3316,4408,16384,-6249,1052,3251,9000,0,200000,849569,
-3132,4496,16580,-6171,1082,3305,9000,0,200000,849571,
-2908,4776,16932,-6004,1308,3707,8000,0,201000,849584,
-2772,4700,16968,-5982,1455,3760,8000,0,201000,849586,
-2764,4672,16960,-5945,1559,3851,8000,0,201000,849589,
-2580,3840,17440,-5762,2501,4145,7000,0,201000,849601,
-2536,3684,17300,-5715,2603,4198,7000,0,202000,849603,
-2356,3448,17188,-5670,2779,4217,7000,0,202000,849606,
-1908,3388,16708,-5377,3020,4469,7000,0,202000,849618,
-1920,3464,16768,-5385,3089,4532,7000,0,202000,849621,
-1904,3700,17048,-5344,3146,4644,6000,0,202000,849623,
-1948,3960,17084,-5372,3149,4742,6000,0,202000,849626,
-2544,5084,17788,-5595,3381,5371,6000,1000,203000,849638,
-2556,5068,17868,-5631,3381,5513,6000,1000,203000,849640,
-2584,5292,17868,-5605,3454,5576,6000,1000,203000,849643,
-3108,4324,17848,-5611,3105,5747,5000,1000,204000,849655,
-3028,4004,17804,-5632,2950,5741,5000,1000,204000,849658,
-3212,3832,17984,-5640,2823,5699,5000,1000,204000,849660,
-2832,2672,18264,-5272,1648,5686,5000,1000,204000,849673,
-2632,2532,18044,-5171,1383,5710,5000,1000,205000,849675,
-2544,2484,18180,-5127,1144,5730,4000,1000,205000,849678,
-1836,2512,18388,-4923,651,5841,4000,1000,205000,849690,
-1684,2508,18472,-4861,633,5849,4000,1000,205000,849693,
-1732,2616,18396,-4842,700,5900,4000,1000,205000,849695,
-1104,2904,18344,-4643,1139,6182,3000,1000,206000,849708,
-1076,2828,18048,-4654,1264,6225,3000,1000,206000,849710,
-1084,2968,17968,-4612,1438,6257,3000,1000,206000,849712,
-1128,3176,17864,-4654,1977,6295,3000,2000,207000,849725,
-1080,3128,17924,-4653,2065,6300,3000,2000,207000,849727,
-1116,2952,18120,-4639,2059,6304,3000,2000,207000,849730,
-1188,2172,19468,-4550,1592,6469,2000,2000,208000,849746,
-996,2012,19624,-4508,1473,6477,2000,2000,208000,849748,
-996,1828,19480,-4411,1325,6486,2000,2000,208000,849751,
244,836,19212,-3819,893,6458,2000,2000,209000,849763,
336,848,19064,-3658,856,6459,2000,2000,209000,849766,
408,760,18884,-3559,902,6405,2000,2000,209000,849768,
408,852,18756,-3452,995,6376,2000,2000,209000,849770,
792,1224,18236,-2984,1633,6382,1000,2000,210000,849783,
764,1328,18048,-2934,1833,6358,1000,2000,210000,849785,
776,1608,18204,-2855,1998,6422,1000,2000,210000,849788,
704,2144,18224,-2844,2718,6414,1000,2000,211000,849800,
428,2108,18264,-2821,2728,6413,1000,2000,211000,849803,
424,2148,18504,-2854,2722,6401,1000,2000,211000,849805,
-172,2108,18896,-2913,2326,6366,1000,3000,212000,849818,
-232,2068,18972,-2981,2165,6358,1000,3000,212000,849820,
-244,1888,18708,-3021,2037,6385,1000,3000,212000,849823,
-736,1076,18700,-3165,811,6402,0,3000,212000,849835,
-852,1080,18656,-3165,635,6475,0,3000,212000,849838,
-852,928,18892,-3100,382,6498,0,3000,213000,849840,
-836,848,18864,-3128,196,6521,0,3000,213000,849842,
-516,112,19644,-2793,-803,6741,0,3000,213000,849855,
-292,116,19612,-2721,-936,6819,0,3000,214000,849857,
104,-200,19564,-2611,-1066,6805,0,3000,214000,849860,
268,-208,19432,-2474,-1248,6808,0,3000,214000,849862,
1808,-464,19260,-2006,-1858,6668,0,2000,214000,849875,
1896,-420,19340,-1854,-1955,6616,0,2000,215000,849877,
2008,-428,19452,-1755,-2016,6517,0,2000,215000,849880,
2888,284,19516,-1278,-1730,6318,0,2000,215000,849892,
2944,372,19516,-1231,-1609,6301,0,2000,215000,849895,
3088,440,19416,-1166,-1454,6328,0,2000,215000,849897,
3264,552,19560,-1064,-1326,6292,0,2000,216000,849899,
3568,936,19696,-880,-611,6143,0,2000,216000,849912,
3708,988,19544,-771,-516,6091,0,2000,216000,849914,
3684,928,19536,-756,-365,6033,0,2000,216000,849917,
