Ax,Ay,Az,Gx,Gy,Gz,Roll,Pitch,Yaw,Timestamp,Target
2088,-420,15964,-425,93,-175,-7000,-6000,78000,82815,
1920,-388,16176,-443,86,-140,-7000,-6000,78000,82817,
2000,-348,15896,-499,-20,-92,-7000,-6000,78000,82820,
2040,-312,15716,-426,32,-21,-7000,-6000,78000,82822,
2688,-192,15708,-507,63,-77,-7000,-6000,78000,82835,
2568,-200,15684,-456,110,-134,-7000,-6000,78000,82837,
2472,-116,15804,-480,48,-198,-7000,-6000,78000,82839,
1984,-480,16116,-434,-46,-96,-7000,-6000,78000,82852,
2112,-396,16220,-434,-107,-67,-7000,-6000,78000,82854,
2196,-312,16040,-437,5,-38,-7000,-6000,78000,82856,
2376,-416,16084,-454,-58,-3,-7000,-6000,78000,82859,
2568,-336,15760,-511,159,-102,-7000,-6000,78000,82871,
2604,-232,15752,-456,243,-150,-7000,-6000,78000,82874,
2596,-288,15752,-532,244,-152,-7000,-6000,78000,82876,
2268,-548,16012,-523,537,-108,-7000,-6000,78000,82888,
2104,-320,15928,-499,529,-133,-7000,-6000,78000,82891,
2156,-248,15836,-413,463,-144,-7000,-6000,78000,82893,
2176,-320,16060,-525,-42,2,-7000,-6000,78000,82905,
2156,-384,15944,-463,-3,-1,-7000,-6000,78000,82908,
2264,-448,15872,-480,-38,-9,-7000,-6000,78000,82910,
2340,-408,16012,-418,-1,-15,-7000,-6000,78000,82912,
2552,-168,15884,-517,68,-42,-7000,-6000,77000,82925,
2568,-212,15844,-470,199,-26,-7000,-6000,77000,82927,
2536,-260,15812,-549,186,-61,-7000,-6000,77000,82930,
2356,-348,15848,-478,290,-155,-7000,-6000,77000,82942,
2204,-268,15944,-498,255,-169,-7000,-6000,77000,82944,
2124,-184,16040,-466,197,-129,-7000,-6000,77000,82947,
2024,-236,15900,-490,173,-110,-7000,-6000,77000,82949,
2292,-252,15912,-442,49,-44,-7000,-6000,77000,82962,
2444,-352,15940,-473,60,-46,-7000,-6000,77000,82964,
2404,-436,16132,-436,102,-83,-7000,-6000,77000,82966,
2408,-256,15836,-505,211,-127,-7000,-6000,77000,82979,
2420,-240,15908,-449,240,-129,-7000,-6000,77000,82981,
2432,-288,15804,-507,217,-135,-7000,-6000,77000,82983,
2200,-332,15784,-447,169,-171,-7000,-6000,77000,82996,
2376,-292,15908,-493,118,-167,-7000,-6000,77000,82998,
2180,-344,16052,-414,146,-133,-7000,-6000,77000,83000,
2200,-320,15992,-486,81,-148,-7000,-6000,77000,83003,
2304,-268,15968,-454,112,-85,-7000,-6000,77000,83015,
2252,-348,15904,-482,116,-132,-7000,-6000,77000,83018,
2324,-244,15928,-452,99,-116,-7000,-6000,77000,83020,
2304,-336,15880,-465,135,-139,-7000,-6000,77000,83032,
2200,-184,15804,-440,69,-142,-7000,-6000,77000,83035,
2232,-340,15944,-453,119,-141,-7000,-6000,77000,83037,
2244,-264,15948,-478,69,-116,-7000,-6000,77000,83050,
2408,-276,15912,-447,135,-127,-7000,-6000,77000,83052,
2412,-236,15916,-486,93,-147,-7000,-6000,77000,83054,
2356,-324,15936,-429,136,-152,-7000,-6000,77000,83057,
2200,-320,15956,-467,76,-112,-7000,-6000,77000,83069,
2232,-428,16036,-425,189,-137,-7000,-6000,77000,83071,
2288,-252,15964,-494,100,-109,-7000,-6000,77000,83074,
2328,-260,15848,-441,159,-138,-7000,-6000,77000,83086,
2280,-308,15900,-485,157,-151,-7000,-6000,77000,83089,
2368,-416,15828,-446,186,-136,-7000,-6000,77000,83091,
2332,-340,15872,-460,137,-152,-7000,-6000,77000,83103,
2272,-320,15800,-485,96,-156,-7000,-6000,77000,83106,
2308,-276,15912,-419,125,-155,-7000,-6000,77000,83108,
2140,-244,16012,-480,63,-159,-7000,-6000,77000,83110,
2236,-244,15848,-430,113,-138,-7000,-6000,77000,83123,
2344,-328,15932,-464,103,-180,-7000,-6000,77000,83125,
2352,-324,15936,-425,114,-151,-7000,-6000,77000,83128,
2420,-332,15836,-468,47,-141,-7000,-6000,77000,83140,
2244,-396,15964,-431,120,-137,-7000,-6000,77000,83143,
2236,-312,15904,-459,53,-125,-7000,-6000,77000,83145,
2344,-232,15856,-417,125,-154,-7000,-6000,77000,83147,
2264,-280,15812,-474,67,-142,-7000,-6000,77000,83160,
2348,-372,15944,-444,137,-163,-7000,-6000,77000,83162,
2368,-356,15844,-496,62,-138,-7000,-6000,77000,83164,
2428,-300,15908,-427,179,-154,-7000,-6000,77000,83177,
2300,-288,15832,-450,93,-169,-7000,-6000,77000,83179,
2324,-224,15892,-432,186,-151,-7000,-6000,77000,83181,
2320,-240,15988,-448,127,-196,-7000,-6000,77000,83194,
2300,-288,15936,-466,177,-187,-7000,-6000,77000,83196,
2160,-308,15880,-436,114,-155,-7000,-6000,77000,83199,
2292,-348,15888,-459,146,-175,-7000,-6000,77000,83201,
2208,-288,15752,-444,101,-146,-7000,-6000,77000,83213,
2224,-260,15916,-450,125,-160,-7000,-6000,77000,83216,
2356,-332,15952,-421,105,-135,-7000,-6000,77000,83218,
2296,-300,15972,-482,101,-165,-7000,-6000,77000,83230,
2324,-348,16044,-408,106,-175,-7000,-6000,77000,83233,
2364,-296,16028,-475,103,-185,-7000,-6000,77000,83235,
2384,-260,15988,-400,55,-173,-7000,-6000,77000,83248,
2388,-300,15796,-445,99,-144,-7000,-6000,77000,83250,
2332,-260,16036,-457,78,-154,-7000,-6000,77000,83252,
2448,-344,15820,-425,108,-183,-7000,-6000,77000,83255,
2368,-280,15748,-444,161,-180,-7000,-6000,77000,83267,
2340,-260,15856,-446,134,-164,-7000,-6000,77000,83270,
2260,-296,15936,-444,144,-195,-7000,-6000,77000,83272,
2264,-276,15940,-467,74,-202,-7000,-6000,77000,83284,
2240,-248,15948,-421,146,-193,-7000,-6000,77000,83287,
2380,-288,16004,-483,58,-185,-7000,-6000,77000,83289,
2256,-232,15940,-433,147,-157,-7000,-6000,77000,83291,
2380,-220,16136,-434,114,-241,-7000,-6000,77000,83304,
2216,-260,16116,-473,27,-263,-7000,-6000,77000,83306,
2172,-344,16116,-405,-46,-253,-7000,-6000,77000,83309,
2444,-296,16184,-473,135,-45,-7000,-6000,77000,83321,
2516,-288,15900,-451,97,-92,-7000,-6000,77000,83324,
2496,-176,16072,-467,124,-140,-7000,-6000,77000,83326,
2588,-212,15776,-474,99,-173,-7000,-6000,77000,83328,
2340,-268,15972,-425,254,-161,-7000,-6000,77000,83340,
2144,-364,16156,-487,102,-233,-7000,-6000,77000,83343,
2132,-312,16080,-432,123,-226,-7000,-6000,77000,83345,
2364,-264,15824,-461,176,-108,-7000,-6000,77000,83358,
2364,-296,15800,-497,123,-141,-7000,-6000,77000,83360,
2356,-280,15764,-442,161,-181,-7000,-6000,77000,83362,
2204,-340,15920,-486,113,-140,-7000,-6000,77000,83375,
2220,-360,15848,-438,138,-138,-7000,-6000,77000,83377,
2192,-388,16004,-503,84,-138,-7000,-6000,77000,83379,
2220,-216,15768,-423,97,-146,-7000,-6000,77000,83382,
2260,-296,15824,-432,78,-156,-7000,-6000,77000,83394,
2240,-248,16020,-454,42,-155,-7000,-6000,77000,83396,
2300,-320,16000,-446,38,-157,-7000,-6000,77000,83399,
2380,-344,15952,-415,-2,-141,-7000,-6000,77000,83411,
2316,-348,16236,-420,16,-143,-7000,-6000,77000,83414,
2364,-360,16104,-429,-26,-139,-7000,-6000,77000,83416,
2436,-332,16040,-449,3,-145,-7000,-6000,77000,83418,
2496,-312,15868,-452,164,-151,-7000,-6000,77000,83431,
2488,-300,15744,-452,167,-182,-7000,-6000,77000,83433,
2384,-244,15704,-451,195,-197,-7000,-6000,77000,83436,
2256,-260,15900,-467,150,-186,-7000,-6000,77000,83448,
2372,-312,15788,-458,152,-193,-7000,-6000,77000,83450,
2240,-284,15944,-464,106,-201,-7000,-6000,77000,83453,
2244,-232,16104,-467,99,-164,-7000,-6000,77000,83465,
2256,-256,15868,-429,42,-175,-7000,-6000,77000,83467,
2360,-340,15992,-461,73,-175,-7000,-6000,77000,83470,
2428,-340,15980,-435,51,-147,-7000,-6000,77000,83472,
2412,-296,15928,-449,96,-152,-7000,-6000,77000,83485,
2368,-240,15892,-455,17,-115,-7000,-6000,77000,83487,
2340,-348,15872,-439,112,-144,-7000,-6000,77000,83489,
2296,-268,15892,-441,27,-135,-7000,-6000,77000,83502,
2324,-236,15864,-456,64,-167,-7000,-6000,77000,83504,
2296,-256,15912,-439,23,-161,-7000,-6000,77000,83506,
2384,-228,15980,-447,69,-139,-7000,-6000,77000,83509,
2352,-240,15952,-450,43,-129,-7000,-6000,77000,83521,
2436,-332,16000,-442,107,-168,-7000,-6000,77000,83524,
2412,-288,15848,-469,66,-125,-7000,-6000,77000,83526,
2348,-316,15904,-444,115,-186,-7000,-6000,77000,83538,
2372,-328,15944,-466,81,-162,-7000,-6000,77000,83541,
2260,-204,16000,-447,127,-143,-7000,-6000,76000,83543,
2252,-192,15836,-466,30,-136,-7000,-6000,76000,83545,
2444,-300,15912,-450,79,-145,-7000,-6000,76000,83558,
2348,-220,15728,-438,37,-147,-7000,-6000,76000,83560,
2368,-232,15960,-467,104,-137,-7000,-6000,76000,83563,
2344,-248,16004,-467,78,-112,-7000,-6000,76000,83575,
2328,-300,15956,-446,158,-116,-7000,-6000,76000,83577,
2312,-240,15752,-479,106,-143,-7000,-6000,76000,83580,
2336,-356,16068,-457,147,-130,-7000,-6000,76000,83582,
2384,-288,15796,-497,86,-138,-7000,-6000,76000,83595,
2332,-352,15832,-440,139,-142,-7000,-6000,76000,83597,
2320,-348,15840,-504,81,-137,-7000,-6000,76000,83599,
2196,-284,15908,-434,114,-157,-7000,-6000,76000,83611,
2232,-280,15724,-518,67,-157,-7000,-6000,76000,83614,
2356,-244,15856,-423,111,-138,-7000,-6000,76000,83616,
2284,-340,15924,-482,23,-157,-7000,-6000,76000,83628,
2296,-228,15948,-434,57,-137,-7000,-6000,76000,83631,
2332,-280,15948,-506,0,-115,-7000,-6000,76000,83633,
2232,-300,15892,-423,80,-143,-7000,-6000,76000,83635,
2336,-244,16008,-485,21,-147,-7000,-6000,76000,83648,
2356,-208,15900,-418,67,-131,-7000,-6000,76000,83650,
2464,-300,15840,-459,-17,-137,-7000,-6000,76000,83652,
2252,-216,15824,-439,89,-154,-7000,-6000,76000,83665,
2444,-352,15900,-468,31,-150,-7000,-6000,76000,83667,
2308,-284,15832,-434,85,-134,-7000,-6000,76000,83669,
2408,-216,15796,-464,38,-126,-7000,-6000,76000,83672,
2316,-304,15672,-460,222,-159,-7000,-6000,76000,83684,
2468,-288,15872,-493,110,-168,-7000,-6000,76000,83687,
2304,-224,15956,-445,123,-215,-7000,-6000,76000,83689,
2108,-440,16232,-409,-50,-92,-7000,-6000,76000,83701,
2112,-480,16288,-464,-35,-64,-7000,-6000,76000,83704,
2356,-336,16084,-424,11,-65,-7000,-6000,76000,83706,
2456,-288,16004,-453,29,-30,-7000,-6000,76000,83708,
2492,-240,15684,-430,225,-148,-7000,-6000,76000,83721,
2584,-300,15700,-462,150,-211,-7000,-6000,76000,83723,
2416,-200,15784,-419,184,-225,-7000,-6000,76000,83725,
2340,-340,15976,-466,12,-120,-7000,-6000,76000,83738,
2376,-396,15900,-452,92,-75,-7000,-6000,76000,83740,
2528,-180,15936,-475,17,-88,-7000,-6000,76000,83742,
2600,-288,15804,-427,127,-97,-7000,-6000,76000,83745,
2420,-272,15992,-450,141,-181,-7000,-6000,76000,83757,
2412,-316,16152,-432,168,-170,-7000,-6000,76000,83760,
2308,-336,15944,-457,132,-184,-7000,-6000,76000,83762,
2256,-368,15868,-441,84,-76,-7000,-6000,76000,83775,
2368,-196,15728,-458,65,-100,-7000,-6000,76000,83777,
2456,-256,15712,-441,131,-100,-7000,-6000,76000,83779,
2392,-208,15900,-487,100,-108,-7000,-6000,76000,83782,
2244,-264,15976,-424,42,-161,-7000,-6000,76000,83794,
2252,-364,16080,-458,35,-167,-7000,-6000,76000,83796,
2228,-292,15968,-419,13,-142,-7000,-6000,76000,83799,
2452,-156,15912,-461,56,-113,-7000,-6000,76000,83811,
2456,-292,16024,-414,82,-115,-7000,-6000,76000,83814,
2444,-292,15896,-484,92,-133,-7000,-6000,76000,83816,
2536,-344,15952,-427,114,-144,-7000,-6000,76000,83818,
2356,-292,15908,-457,146,-124,-7000,-6000,76000,83831,
2360,-332,15960,-448,152,-116,-7000,-6000,76000,83833,
2332,-212,15860,-462,144,-122,-7000,-6000,76000,83835,
2408,-256,15808,-427,160,-157,-7000,-6000,76000,83848,
2320,-276,15860,-508,127,-174,-7000,-6000,76000,83850,
2308,-292,15848,-431,162,-137,-7000,-6000,76000,83853,
2284,-272,16036,-479,92,-120,-7000,-6000,76000,83865,
2260,-268,15984,-472,89,-117,-7000,-6000,76000,83867,
2260,-340,16128,-434,152,-98,-7000,-6000,76000,83870,
2368,-292,15940,-456,62,-120,-7000,-6000,76000,83872,
2492,-200,15948,-479,98,-113,-7000,-6000,76000,83884,
2476,-296,15748,-430,141,-128,-7000,-6000,76000,83887,
2340,-264,15972,-463,106,-175,-7000,-6000,76000,83889,
2252,-312,15908,-426,88,-156,-7000,-6000,76000,83902,
2376,-268,15924,-478,87,-124,-7000,-6000,76000,83904,
2400,-212,15896,-460,65,-134,-7000,-6000,76000,83906,
2336,-356,16020,-464,115,-137,-7000,-6000,76000,83908,
2448,-236,15900,-451,183,-132,-7000,-6000,76000,83921,
2408,-184,15856,-512,94,-128,-7000,-6000,76000,83923,
2396,-204,15904,-452,191,-104,-7000,-6000,76000,83925,
2168,-332,15816,-467,105,-143,-7000,-6000,76000,83938,
2256,-344,15892,-445,158,-142,-7000,-6000,76000,83940,
2360,-264,15816,-493,85,-147,-7000,-6000,76000,83942,
2412,-412,15876,-501,198,-126,-7000,-6000,76000,83955,
2396,-468,15856,-544,233,-124,-7000,-6000,76000,83957,
2468,-644,15924,-529,386,-152,-7000,-6000,76000,83959,
2028,-100,15784,-506,165,-184,-7000,-6000,76000,83972,
1960,-112,15852,-485,201,-140,-7000,-6000,76000,83974,
2052,-212,15884,-506,87,-109,-7000,-6000,76000,83977,
2100,-256,15968,-455,98,-88,-7000,-6000,76000,83979,
2376,-284,15936,-477,-47,-91,-7000,-6000,76000,83991,
2480,-208,15888,-442,56,-107,-7000,-6000,76000,83994,
2420,-200,15968,-480,31,-93,-7000,-6000,76000,83996,
2476,-280,15792,-469,203,-150,-7000,-6000,76000,84009,
2424,-284,15872,-498,95,-143,-7000,-6000,76000,84011,
2444,-292,16036,-466,210,-122,-7000,-6000,76000,84013,
2368,-300,15840,-492,115,-138,-7000,-6000,76000,84015,
2328,-312,15824,-461,122,-94,-7000,-6000,76000,84028,
2392,-356,15936,-466,94,-90,-7000,-6000,76000,84030,
2428,-224,16024,-462,160,-106,-7000,-6000,76000,84033,
2356,-244,15984,-457,186,-136,-7000,-6000,76000,84045,
2372,-264,15912,-458,243,-153,-7000,-6000,76000,84047,
2236,-276,15832,-443,149,-130,-7000,-6000,76000,84050,
2316,-280,15792,-446,171,-141,-7000,-6000,76000,84062,
2308,-272,15940,-479,181,-135,-7000,-6000,76000,84065,
2292,-244,15820,-462,125,-112,-7000,-6000,76000,84067,
2372,-284,16016,-458,160,-166,-7000,-6000,76000,84069,
2524,-252,16000,-452,134,-195,-7000,-6000,76000,84082,
2576,-292,16104,-449,206,-200,-7000,-6000,76000,84084,
2688,-284,15992,-466,185,-215,-7000,-6000,76000,84086,
2844,-72,16068,-501,487,-304,-7000,-6000,76000,84099,
2872,-72,15912,-507,527,-331,-7000,-6000,76000,84101,
2796,-192,15968,-533,609,-355,-7000,-6000,76000,84104,
2972,8,15964,-538,995,-490,-7000,-6000,76000,84116,
3060,48,16096,-610,998,-511,-7000,-6000,76000,84118,
2996,-36,16204,-547,1202,-594,-7000,-6000,76000,84121,
2988,4,16068,-620,1226,-631,-7000,-6000,76000,84123,
3084,-40,16040,-570,1922,-847,-7000,-6000,75000,84135,
3020,16,16248,-622,1993,-879,-7000,-6000,75000,84138,
3044,4,16196,-540,2186,-906,-7000,-6000,75000,84140,
2864,4,16376,-637,2491,-1074,-7000,-6000,75000,84153,
2776,112,16456,-588,2570,-1114,-7000,-6000,75000,84155,
2640,84,16608,-673,2612,-1110,-7000,-6000,75000,84157,
2616,72,16516,-608,2685,-1102,-7000,-6000,75000,84160,
2400,-172,16848,-845,2893,-1097,-7000,-5000,75000,84172,
2372,-28,16976,-901,2874,-1117,-7000,-5000,75000,84174,
2280,76,17056,-924,2791,-1073,-7000,-5000,75000,84177,
2708,392,18164,-1154,2598,-553,-7000,-5000,75000,84189,
2836,384,18324,-1234,2440,-516,-7000,-5000,75000,84192,
2944,236,18480,-1266,2345,-557,-7000,-5000,75000,84194,
3336,16,19500,-1575,1841,-591,-7000,-5000,75000,84206,
3372,48,19760,-1609,1941,-525,-7000,-5000,75000,84209,
3376,180,20176,-1653,2069,-501,-7000,-5000,75000,84211,
3472,8,20532,-2098,2846,-320,-7000,-5000,75000,84223,
3612,440,19340,-2428,4009,24,-7000,-5000,75000,84226,
5092,1472,16416,-2761,6887,1079,-7000,-4000,75000,84228,
5868,-224,19744,-2688,10953,-229,-8000,-3000,74000,84240,
4640,-328,20356,-2564,11170,-707,-8000,-3000,74000,84243,
3656,-196,20496,-2394,11050,-754,-8000,-3000,74000,84245,
556,292,21032,-3044,8829,560,-8000,-2000,74000,84258,
700,388,20952,-3161,8287,596,-8000,-2000,74000,84260,
760,228,21032,-3150,7602,497,-8000,-2000,74000,84262,
900,68,21172,-3139,6986,396,-8000,-2000,74000,84265,
256,-592,21364,-3277,4304,-187,-8000,-1000,74000,84277,
40,-528,21440,-3222,3897,-157,-8000,-1000,74000,84279,
-344,-388,21968,-3180,3351,-56,-8000,-1000,74000,84282,
-1412,-1512,22212,-1850,515,99,-9000,-1000,74000,84294,
-1524,-1372,22436,-1885,175,98,-9000,-1000,74000,84297,
-1800,-1556,21820,-2000,-136,121,-9000,-1000,74000,84299,
-2424,-2268,22504,-816,-3453,560,-9000,-1000,74000,84311,
-2612,-2472,22432,-399,-3945,638,-9000,-2000,74000,84314,
-2824,-2812,22708,-13,-4477,706,-9000,-2000,74000,84316,
-2740,-3824,23648,2814,-6622,1210,-8000,-2000,75000,84329,
-2680,-3888,23784,3384,-6907,1280,-8000,-2000,75000,84331,
-2540,-3948,24168,4004,-7253,1324,-8000,-2000,75000,84333,
-988,-3484,25496,7014,-8329,1489,-8000,-3000,75000,84346,
-628,-3500,25660,7604,-8478,1502,-7000,-3000,75000,84348,
-444,-3516,25792,8076,-8508,1535,-7000,-3000,75000,84351,
1528,-3476,26864,10777,-8015,1324,-6000,-4000,75000,84363,
1692,-3580,27048,11274,-7784,1264,-6000,-4000,75000,84365,
1824,-3528,27056,11762,-7516,1247,-6000,-4000,75000,84368,
2356,-3392,27304,14225,-5546,979,-5000,-5000,75000,84380,
2340,-3408,27140,14738,-5424,909,-4000,-5000,75000,84383,
2080,-3432,27276,15225,-5117,849,-4000,-5000,75000,84385,
580,-3388,27116,18009,-5424,477,-2000,-6000,76000,84397,
308,-3516,27120,18553,-5655,453,-2000,-6000,76000,84400,
100,-3404,27108,19146,-6114,428,-2000,-6000,76000,84402,
-668,-3512,26728,22292,-8739,106,0,-7000,76000,84415,
-660,-3428,26508,22972,-9416,37,0,-7000,76000,84417,
-532,-3596,26376,23490,-9823,-6,0,-7000,76000,84419,
-408,-3536,26324,24096,-10433,-41,1000,-7000,76000,84421,
936,-3108,25112,26962,-12338,-402,3000,-8000,76000,84434,
1208,-3000,24920,27521,-12659,-507,4000,-8000,75000,84436,
1568,-2832,24396,27918,-12728,-628,4000,-9000,75000,84439,
2732,-2728,22956,30479,-12598,-1292,7000,-10000,75000,84451,
2880,-2748,22484,30834,-12322,-1410,8000,-10000,75000,84454,
2916,-2612,22204,31358,-12234,-1509,8000,-10000,75000,84456,
3512,-2228,20784,32767,-11245,-2038,11000,-11000,75000,84468,
3652,-2260,20524,32767,-11152,-2113,12000,-11000,75000,84471,
3576,-2100,20480,32767,-10911,-2219,12000,-12000,75000,84473,
3392,-2144,19380,32767,-10284,-2697,16000,-13000,74000,84486,
3488,-2064,19252,32767,-10081,-2805,16000,-13000,74000,84488,
3224,-2108,17556,32767,-9401,-3117,19000,-13000,73000,84500,
3128,-2028,17212,32767,-9192,-3229,20000,-14000,73000,84503,
3344,-2104,16824,32767,-9143,-3286,20000,-14000,73000,84505,
3024,-1924,15080,32767,-8411,-3537,24000,-14000,73000,84518,
3020,-1948,14796,32767,-8245,-3556,24000,-14000,73000,84520,
2988,-1960,14384,32767,-7951,-3567,25000,-14000,72000,84522,
2744,-1576,12236,32767,-7016,-3643,28000,-15000,72000,84535,
2940,-1672,11564,32767,-6695,-3630,28000,-15000,72000,84537,
2984,-1696,11264,32767,-6652,-3642,29000,-15000,72000,84539,
2652,-1096,9324,32767,-5110,-3727,32000,-15000,71000,84552,
2380,-920,9080,32767,-4879,-3708,33000,-15000,71000,84554,
2424,-844,8696,32767,-4480,-3671,33000,-15000,71000,84557,
1920,-276,6848,32767,-2905,-3249,36000,-15000,71000,84569,
1800,-140,6516,32767,-2608,-3120,37000,-15000,70000,84571,
1712,72,6276,32767,-2446,-3023,37000,-15000,70000,84574,
1280,672,4256,32767,-1613,-2457,40000,-15000,70000,84586,
1180,736,4112,32767,-1593,-2327,41000,-15000,70000,84589,
1012,880,3912,32767,-1498,-2195,42000,-15000,70000,84591,
556,1616,2012,32767,-1641,-1385,45000,-15000,70000,84603,
408,1760,1904,32767,-1776,-1255,45000,-15000,70000,84606,
348,2004,1636,32767,-2029,-1094,46000,-15000,70000,84608,
-636,3004,164,32767,-3706,-29,49000,-16000,69000,84621,
-696,2960,52,32767,-4226,158,50000,-16000,69000,84623,
-732,3488,-404,32767,-4684,324,51000,-16000,69000,84625,
-1200,5000,-600,32767,-7795,864,54000,-16000,69000,84638,
-920,3824,-1912,32767,-8474,1020,55000,-16000,69000,84640,
-620,4432,-3020,32767,-9031,1148,56000,-16000,68000,84642,
-192,5620,-3936,32767,-11289,1749,59000,-17000,67000,84655,
-160,5868,-4552,32767,-11573,1881,60000,-17000,67000,84657,
-28,5956,-4768,32767,-11938,1944,61000,-17000,67000,84660,
896,6280,-6616,32767,-12866,2062,65000,-18000,66000,84672,
700,6568,-6940,32767,-13004,2142,65000,-18000,66000,84675,
1028,6712,-7172,32767,-13290,2125,66000,-18000,65000,84677,
1392,7764,-8224,32767,-13328,2313,70000,-19000,64000,84689,
1500,7852,-8880,32767,-13071,2364,71000,-19000,64000,84692,
1776,7996,-9192,32517,-12981,2449,71000,-19000,64000,84694,
2528,8696,-10540,30148,-11450,2669,75000,-20000,62000,84707,
2628,8872,-10608,29756,-11130,2740,76000,-20000,62000,84709,
2888,8976,-11000,29283,-10581,2757,76000,-20000,62000,84711,
3412,9524,-12452,26820,-8085,2919,79000,-20000,61000,84724,
3536,9776,-12828,26313,-7512,2936,80000,-20000,61000,84726,
3676,9840,-13168,25845,-7030,2966,81000,-20000,61000,84729,
3844,10464,-14264,23192,-4114,3197,83000,-21000,60000,84741,
3916,10612,-14524,22748,-3742,3271,84000,-21000,60000,84743,
3880,10556,-14768,22182,-3295,3324,84000,-21000,60000,84746,
4020,11212,-15192,19214,-1489,3564,86000,-21000,60000,84758,
3912,11156,-15560,18551,-1185,3585,87000,-21000,60000,84761,
3848,11268,-15436,17971,-1084,3711,87000,-21000,60000,84763,
3740,11312,-15540,14603,-773,4183,89000,-22000,60000,84776,
3864,11524,-15436,13966,-828,4291,89000,-22000,60000,84778,
3752,11724,-15516,13316,-749,4388,90000,-22000,60000,84780,
4132,12504,-15636,9972,-1236,4917,91000,-22000,59000,84793,
4148,12292,-15356,9439,-1468,4932,91000,-22000,59000,84795,
4516,12796,-16124,8533,-1463,4996,91000,-22000,59000,84797,
4872,11896,-16152,4988,-2283,5129,92000,-23000,59000,84810,
4864,11748,-15612,4450,-2491,5078,92000,-23000,59000,84812,
5060,11756,-15792,3757,-2741,5047,92000,-23000,59000,84815,
5560,12144,-15332,432,-2831,4728,93000,-24000,58000,84827,
5636,12224,-15176,-104,-2867,4692,93000,-24000,58000,84829,
5684,12092,-15100,-625,-2889,4599,93000,-24000,58000,84831,
6156,11744,-14888,-3660,-2856,4158,93000,-24000,58000,84844,
6284,11684,-14660,-4238,-2909,4031,93000,-24000,58000,84846,
6460,11900,-14768,-5125,-3121,3904,93000,-24000,58000,84849,
6500,11908,-14812,-5997,-2298,3635,93000,-25000,57000,84861,
6516,11792,-14816,-6346,-2760,3583,93000,-25000,57000,84864,
6644,11684,-13612,-6463,-2994,3482,93000,-25000,57000,84866,
6892,11908,-12632,-7927,-2239,3062,92000,-25000,57000,84879,
6924,11996,-12480,-8074,-2306,2962,92000,-25000,57000,84881,
7016,11948,-12492,-8227,-2551,2895,92000,-25000,57000,84883,
7384,12212,-11208,-8939,-2095,2377,92000,-25000,56000,84896,
7396,12368,-11184,-9039,-2064,2305,92000,-25000,56000,84898,
7420,12276,-11184,-9107,-2032,2197,92000,-25000,56000,84900,
7604,12580,-10124,-9396,-1823,1673,91000,-26000,56000,84913,
7732,12568,-10136,-9428,-1678,1603,91000,-26000,56000,84915,
7676,12628,-10124,-9440,-1667,1499,91000,-26000,56000,84918,
7844,12736,-9444,-9481,-1379,922,90000,-26000,55000,84930,
7780,12740,-9364,-9397,-1179,821,90000,-26000,55000,84933,
7804,12768,-9404,-9447,-1120,682,90000,-26000,55000,84935,
7756,12936,-9076,-9082,-512,-31,89000,-26000,55000,84947,
7660,12844,-9128,-9109,-363,-145,89000,-26000,55000,84950,
7756,12724,-9124,-8976,-159,-297,89000,-26000,55000,84952,
7640,13056,-9196,-8657,658,-968,88000,-26000,55000,84965,
7692,13088,-9100,-8550,990,-1072,88000,-26000,55000,84967,
7568,13000,-9100,-8533,1294,-1224,88000,-26000,55000,84969,
7684,12788,-9644,-8136,2896,-2029,87000,-26000,55000,84982,
7608,12808,-9800,-8013,3297,-2179,87000,-26000,55000,84984,
7564,12844,-9748,-8014,3625,-2306,87000,-26000,55000,84987,
7396,12908,-10020,-7781,5547,-3005,86000,-25000,56000,84999,
7224,12872,-9768,-7825,5869,-3121,86000,-25000,56000,85002,
7220,12944,-9816,-7797,6244,-3227,86000,-25000,56000,85004,
6752,12804,-9848,-8172,7732,-3764,85000,-25000,57000,85016,
6692,12784,-9892,-8301,8035,-3877,85000,-25000,57000,85019,
6560,12724,-9828,-8353,8316,-3969,85000,-25000,57000,85021,
6016,12496,-10144,-9292,9532,-4432,84000,-24000,58000,85034,
6036,12512,-10032,-9500,9763,-4489,84000,-24000,58000,85036,
5876,12452,-10124,-9715,9967,-4574,83000,-24000,58000,85038,
5444,12008,-10144,-11265,10950,-5046,82000,-23000,59000,85051,
5232,11924,-10260,-11515,11129,-5126,82000,-23000,59000,85053,
5312,11868,-10348,-11925,11253,-5227,82000,-23000,60000,85056,
4828,11608,-10220,-13956,11806,-5657,80000,-22000,61000,85068,
4672,11644,-10192,-14309,11826,-5722,80000,-22000,61000,85070,
4348,11524,-9796,-16669,11984,-5987,78000,-21000,62000,85083,
4316,11364,-9868,-17216,11914,-6077,78000,-21000,62000,85085,
4260,11420,-9744,-17610,11957,-6049,78000,-21000,62000,85088,
3952,11136,-9560,-20344,11931,-6291,75000,-20000,63000,85100,
3892,10940,-9364,-20812,11933,-6294,75000,-20000,63000,85102,
3932,10900,-9488,-21386,11921,-6374,75000,-20000,63000,85105,
3520,10332,-9192,-24233,11815,-6567,72000,-19000,64000,85117,
3540,10256,-9140,-24733,11757,-6586,72000,-19000,64000,85120,
3560,10240,-8940,-25351,11707,-6621,71000,-19000,65000,85122,
3444,9640,-8240,-28359,11153,-6807,69000,-18000,65000,85134,
3368,9648,-8052,-28899,11068,-6834,68000,-18000,65000,85137,
3256,9004,-6976,-32061,10347,-6878,65000,-17000,66000,85149,
3200,9052,-6588,-32658,10198,-6844,65000,-17000,66000,85151,
3216,9012,-6296,-32768,10067,-6843,64000,-16000,66000,85154,
3236,8832,-4988,-32768,9171,-6596,61000,-15000,67000,85166,
3124,8716,-4664,-32768,8962,-6552,61000,-15000,67000,85169,
3228,8776,-4396,-32768,8752,-6490,60000,-15000,67000,85171,
3476,7892,-2700,-32768,8101,-6059,57000,-14000,67000,85184,
3068,7724,-2420,-32768,7937,-5938,57000,-14000,67000,85186,
3256,7604,-1944,-32768,7655,-5898,56000,-14000,67000,85188,
3276,6892,68,-32768,6521,-5444,53000,-13000,67000,85201,
3192,6700,608,-32768,6426,-5407,52000,-13000,67000,85203,
3156,6612,700,-32768,6065,-5271,52000,-13000,67000,85205,
3260,5688,2224,-32768,5163,-4646,49000,-12000,68000,85218,
3100,5368,2484,-32768,5199,-4540,48000,-12000,68000,85220,
3112,5144,2412,-32768,5318,-4533,48000,-12000,68000,85223,
3420,3196,2100,-32768,7090,-4437,45000,-12000,68000,85235,
2988,2760,2776,-32768,7084,-4246,44000,-12000,68000,85237,
3156,2780,3380,-32768,7254,-4070,43000,-11000,68000,85240,
2484,1860,5852,-32768,8964,-3833,40000,-11000,68000,85252,
2216,1536,6676,-32768,9108,-3688,39000,-10000,68000,85255,
1904,1316,7032,-32768,9145,-3624,39000,-10000,68000,85257,
80,-472,10728,-32768,9326,-3115,35000,-9000,69000,85270,
-400,-1092,11572,-32768,9310,-2984,35000,-9000,69000,85272,
-880,-1392,12364,-32768,9308,-2886,34000,-9000,69000,85274,
-3472,-2428,16980,-32768,7705,-2130,31000,-8000,69000,85287,
-3732,-2544,17752,-32768,7416,-1878,30000,-8000,69000,85289,
-4196,-2784,18528,-32768,6959,-1698,29000,-8000,69000,85291,
-5504,-2720,21016,-32768,3661,-1093,26000,-7000,69000,85304,
-5724,-2660,21260,-32768,2938,-848,25000,-7000,69000,85306,
-5720,-2656,21860,-32768,2163,-593,25000,-7000,69000,85309,
-4820,-2672,22780,-32768,-675,893,21000,-7000,69000,85321,
-4600,-2696,23052,-32768,-973,1139,21000,-7000,69000,85324,
-4136,-2648,23036,-32768,-1415,1425,20000,-7000,69000,85326,
-2940,-2360,24688,-32768,-3340,2452,17000,-8000,70000,85338,
-2656,-2440,25072,-32768,-3589,2636,16000,-8000,70000,85341,
-2484,-2452,25036,-32768,-3725,2789,16000,-8000,70000,85343,
-1012,-2588,26240,-29079,-4680,3492,13000,-8000,70000,85356,
-732,-2600,26416,-28275,-4599,3563,12000,-8000,70000,85358,
-488,-2396,26340,-27721,-4615,3634,12000,-8000,70000,85360,
1768,-1916,25504,-23518,-2850,3884,9000,-9000,70000,85373,
2164,-1768,25252,-22891,-2403,3877,9000,-9000,70000,85375,
2596,-1676,25092,-22168,-1751,3854,8000,-9000,70000,85378,
4368,-1032,23676,-18321,2048,3664,6000,-9000,71000,85390,
4628,-980,23624,-17532,2700,3653,6000,-8000,71000,85393,
4956,-776,24172,-16891,3172,3572,6000,-8000,71000,85395,
4732,-300,24384,-14070,6007,2959,4000,-8000,71000,85407,
4524,-300,24332,-13620,6440,2861,4000,-8000,71000,85410,
4228,-252,24156,-13166,6748,2765,4000,-8000,71000,85412,
2964,160,23240,-11037,7728,2258,3000,-7000,72000,85424,
2720,176,23080,-10718,7776,2157,3000,-7000,72000,85427,
2552,76,22844,-10415,7815,2092,2000,-7000,72000,85429,
2060,404,21788,-9038,7230,1671,1000,-6000,72000,85441,
2024,316,21512,-8914,7025,1616,1000,-6000,72000,85444,
1980,364,21296,-8673,6853,1568,1000,-6000,72000,85446,
1952,184,21392,-8028,4840,1217,0,-5000,72000,85458,
1948,136,21484,-7964,4348,1213,0,-5000,72000,85461,
1824,128,21452,-7923,3839,1147,0,-5000,72000,85463,
1772,68,21340,-7905,3242,1130,0,-5000,72000,85465,
1872,-284,21548,-7826,102,980,0,-5000,72000,85478,
1916,-304,21304,-7712,-405,955,0,-5000,72000,85480,
1944,-292,21224,-7721,-900,899,0,-5000,72000,85482,
2100,-420,21272,-7603,-1380,858,0,-5000,72000,85485,
3000,-808,20608,-7185,-2715,742,-1000,-5000,72000,85497,
3148,-844,20392,-6976,-2722,733,-1000,-5000,72000,85500,
3168,-936,20328,-6878,-2740,725,-1000,-5000,72000,85502,
4164,-1272,19384,-5973,-1822,631,-2000,-6000,73000,85514,
4264,-1156,19188,-5818,-1542,591,-2000,-6000,73000,85517,
4284,-1192,19052,-5597,-1264,571,-2000,-6000,73000,85519,
4420,-1240,18704,-4676,610,436,-2000,-6000,73000,85531,
4368,-1300,18804,-4611,927,394,-3000,-6000,73000,85534,
4300,-1148,18812,-4421,1268,337,-3000,-6000,73000,85536,
3380,-1184,18416,-3949,2661,139,-3000,-5000,73000,85549,
3148,-1124,18360,-3823,2859,158,-3000,-5000,73000,85551,
2960,-1092,18304,-3847,2887,99,-3000,-5000,73000,85553,
2252,-1048,18100,-3623,2952,-5,-4000,-5000,73000,85566,
2084,-1156,17828,-3692,2790,-67,-4000,-5000,73000,85568,
1932,-976,17932,-3631,2720,-16,-4000,-5000,73000,85570,
1416,-1048,17404,-3714,1766,-54,-4000,-5000,73000,85583,
1468,-1032,17256,-3660,1672,-83,-4000,-5000,73000,85585,
1364,-1124,17028,-3748,1478,-99,-4000,-5000,73000,85588,
1704,-3884,18040,-1369,843,-203,-4000,-5000,73000,85600,
1608,-4420,19164,-205,1306,-191,-4000,-5000,73000,85602,
1608,-4072,19336,406,1909,-131,-4000,-5000,73000,85605,
2888,-2004,19940,1962,3254,394,-4000,-4000,73000,85617,
3124,-1800,20116,2110,3249,177,-4000,-4000,73000,85620,
3076,-1524,19984,2006,3097,-65,-4000,-4000,73000,85622,
2504,-1620,20420,1967,2779,-689,-4000,-4000,72000,85634,
2404,-1716,20352,2035,2877,-710,-4000,-4000,72000,85637,
2360,-1644,19928,1992,2890,-759,-4000,-4000,72000,85639,
-892,1412,22056,3060,-1945,-1933,-3000,-4000,72000,85652,
-1764,1952,19404,1033,-2130,-2338,-3000,-4000,72000,85654,
-1344,904,20568,80,-1034,-2230,-3000,-4000,72000,85656,
3072,-620,18180,2106,1322,71,-3000,-4000,72000,85669,
3176,-152,18584,1964,863,-636,-3000,-4000,72000,85671,
2552,700,18736,1956,359,-1115,-3000,-4000,72000,85674,
1904,1240,18264,1958,32,-1450,-3000,-4000,72000,85676,
-136,92,16892,1347,-1044,-665,-3000,-4000,72000,85688,
12,-20,16764,1260,-1320,-519,-3000,-4000,72000,85691,
272,-204,16424,1202,-1524,-432,-3000,-4000,72000,85693,
1068,480,15720,1009,-2832,-319,-3000,-4000,72000,85706,
1228,544,15744,978,-3028,-307,-3000,-4000,72000,85708,
1296,472,15692,881,-3186,-267,-3000,-5000,72000,85710,
2064,-20,15420,632,-3005,227,-3000,-5000,72000,85723,
2244,-120,15204,548,-2937,295,-3000,-5000,72000,85725,
2468,-116,15180,645,-2743,360,-3000,-5000,72000,85727,
2616,-140,15192,549,-2640,366,-3000,-5000,72000,85729,
2860,-88,15436,475,-1809,151,-2000,-5000,72000,85742,
2696,-212,15264,387,-1745,144,-2000,-5000,72000,85744,
2608,-216,15376,411,-1535,140,-2000,-5000,72000,85747,
2320,-356,15696,310,-692,215,-2000,-5000,72000,85759,
2312,-360,15980,282,-449,220,-2000,-5000,72000,85762,
2132,-352,16012,250,-431,180,-2000,-5000,72000,85764,
2060,-408,16396,-37,193,146,-2000,-5000,72000,85776,
1992,-364,16320,-93,231,177,-2000,-5000,72000,85779,
1948,-332,16432,-104,442,193,-2000,-5000,72000,85781,
1944,-288,16388,-215,468,201,-2000,-5000,72000,85783,
1504,68,16212,-453,642,214,-2000,-5000,72000,85796,
1504,56,16376,-493,514,242,-2000,-5000,72000,85798,
1356,124,16280,-538,322,249,-2000,-5000,72000,85800,
1176,-184,16268,-680,-762,279,-2000,-5000,72000,85813,
1340,-276,16172,-613,-865,275,-3000,-5000,72000,85815,
1364,-100,16300,-669,-1082,297,-3000,-5000,72000,85818,
1620,8,16176,-644,-1778,208,-3000,-5000,72000,85830,
1744,76,16156,-596,-1808,196,-3000,-6000,72000,85832,
1784,48,16160,-651,-1887,146,-3000,-6000,72000,85835,
1764,76,16104,-588,-1912,117,-3000,-6000,72000,85837,
1944,-32,15740,-551,-2138,48,-3000,-6000,72000,85850,
1932,-96,15568,-520,-2087,50,-3000,-6000,72000,85852,
1996,-120,15596,-571,-2135,23,-3000,-6000,72000,85854,
2292,-132,15432,-435,-1868,-30,-3000,-6000,72000,85867,
2240,-108,15492,-455,-1921,-35,-3000,-6000,72000,85869,
2316,-168,15496,-408,-1798,-52,-3000,-6000,72000,85871,
2524,-296,15612,-404,-1287,-38,-3000,-6000,72000,85884,
2608,-204,15768,-393,-1093,-42,-3000,-6000,72000,85886,
2696,-224,15620,-398,-1087,-82,-3000,-6000,72000,85889,
2788,-236,15912,-372,-522,-303,-3000,-6000,72000,85901,
2752,-116,16020,-389,-498,-379,-3000,-6000,72000,85903,
2484,-20,16000,-388,-396,-375,-3000,-6000,72000,85906,
2392,-164,16060,-400,-232,-445,-3000,-6000,72000,85918,
2436,-212,15948,-429,-226,-460,-3000,-6000,72000,85921,
2348,-128,16056,-388,-162,-476,-3000,-6000,72000,85923,
2256,-124,16072,-396,-178,-540,-3000,-6000,72000,85935,
2344,-96,16072,-374,-127,-588,-3000,-6000,72000,85938,
2280,-200,16060,-404,-270,-591,-3000,-6000,72000,85940,
2132,-60,16096,-399,-410,-625,-3000,-7000,72000,85953,
2180,-116,16140,-399,-488,-610,-3000,-7000,72000,85955,
2124,-96,15956,-372,-454,-616,-3000,-7000,72000,85957,
2248,-168,15964,-364,-731,-684,-3000,-7000,72000,85970,
2160,-60,16072,-331,-665,-663,-3000,-7000,72000,85972,
2224,-124,16016,-394,-749,-680,-3000,-7000,72000,85974,
2304,-188,15808,-319,-790,-747,-3000,-7000,72000,85987,
2404,-216,16120,-351,-861,-753,-3000,-7000,72000,85989,
2296,-168,15956,-298,-777,-785,-3000,-7000,72000,85991,
2416,-160,15888,-322,-743,-819,-3000,-7000,72000,86004,
2512,-140,15808,-298,-679,-843,-3000,-7000,72000,86006,
2472,-192,15892,-296,-708,-864,-3000,-7000,72000,86009,
