Ax,Ay,Az,Gx,Gy,Gz,Roll,Pitch,Yaw,Timestamp,Target
-3736,1200,16132,-834,726,-58,-1000,16000,290000,162005,
-3560,1260,16092,-815,755,-94,-1000,16000,290000,162007,
-3748,1212,15988,-751,688,-109,-1000,16000,290000,162009,
-3808,1188,16048,-734,690,-155,-1000,16000,290000,162022,
-3756,1256,16060,-723,666,-165,-1000,16000,290000,162024,
-3964,1240,16200,-744,638,-179,-1000,16000,290000,162027,
-3892,1248,16136,-688,521,-159,-1000,16000,290000,162039,
-4116,1152,16100,-690,550,-211,-1000,16000,290000,162042,
-4028,1164,16052,-623,499,-243,-1000,16000,290000,162044,
-4144,1032,16288,-568,420,-183,-1000,16000,290000,162057,
-4324,1104,16048,-541,407,-179,-1000,16000,290000,162059,
-4188,1172,16160,-558,358,-166,-1000,16000,290000,162061,
-4232,1084,16136,-536,212,-165,-1000,16000,290000,162074,
-4292,1144,16056,-533,221,-163,-1000,16000,290000,162076,
-4236,1064,16156,-513,225,-173,-1000,16000,290000,162079,
-4228,1188,16124,-444,173,-182,-1000,16000,290000,162091,
-4136,1104,16156,-431,192,-198,-1000,16000,290000,162094,
-4156,1204,16228,-421,194,-181,-1000,16000,290000,162096,
-4260,1120,16112,-290,304,-146,-1000,16000,290000,162109,
-4100,1168,16056,-292,323,-100,-1000,16000,290000,162111,
-4172,1192,16144,-331,372,-119,-1000,16000,290000,162114,
-4360,1248,15912,-236,495,-17,-1000,16000,290000,162126,
-4352,1280,15840,-283,558,-51,-1000,16000,290000,162129,
-4396,1280,15816,-209,527,-33,-1000,16000,290000,162131,
-4440,1156,15816,-243,515,-8,-1000,16000,290000,162144,
-4516,1224,15888,-206,465,-1,-1000,16000,290000,162146,
-4436,1256,15968,-216,418,39,-1000,16000,290000,162148,
-4436,1280,15868,-288,248,47,-1000,16000,290000,162161,
-4560,1216,15888,-282,268,48,-1000,16000,290000,162163,
-4416,1300,15952,-275,229,38,-1000,16000,290000,162166,
-4344,1212,15736,-391,155,51,-1000,16000,290000,162178,
-4240,1156,15832,-344,116,41,-1000,16000,290000,162180,
-4192,1244,15612,-371,75,66,-1000,16000,290000,162183,
-3860,1320,15544,-386,151,-4,-1000,16000,290000,162195,
-3972,1356,15596,-417,180,9,-1000,16000,290000,162198,
-3848,1328,15564,-450,222,-30,-1000,16000,290000,162200,
-3960,1356,15536,-403,329,24,-1000,16000,290000,162213,
-4000,1328,15528,-422,393,94,-1000,16000,290000,162215,
-4120,1376,15636,-374,415,66,-1000,16000,290000,162217,
-4320,1180,15528,-554,403,210,-1000,16000,290000,162230,
-4296,1180,15564,-543,332,209,-1000,16000,290000,162233,
-4280,1208,15552,-570,291,235,-1000,16000,290000,162235,
-4064,1216,15460,-697,39,106,-1000,16000,290000,162248,
-4052,1356,15540,-731,53,111,-1000,16000,290000,162250,
-4056,1392,15392,-711,42,64,-1000,16000,290000,162252,
-3992,1404,15524,-758,15,77,-1000,16000,290000,162255,
-3760,1464,15364,-788,196,4,-1000,16000,290000,162267,
-3544,1460,15516,-838,203,35,-1000,16000,290000,162270,
-3748,1364,15428,-864,305,10,-1000,16000,290000,162272,
-3776,1376,15660,-860,497,34,-1000,16000,290000,162285,
-3864,1396,15724,-867,586,24,-1000,16000,290000,162287,
-3972,1276,15716,-790,577,54,-1000,16000,290000,162289,
-4228,1148,15856,-925,591,89,-1000,16000,290000,162302,
-4260,1168,15896,-862,562,115,-1000,17000,290000,162304,
-4260,1080,16032,-912,524,86,-1000,17000,290000,162307,
-4212,1200,16068,-936,387,-48,-1000,17000,290000,162323,
-4084,1108,16128,-855,373,-30,-1000,17000,290000,162325,
-4004,1260,15952,-887,393,-44,-1000,17000,290000,162328,
-4136,1196,16248,-749,356,-108,-1000,17000,290000,162340,
-4152,1216,16196,-778,384,-84,-1000,17000,290000,162343,
-4292,1184,16268,-713,414,-79,-1000,17000,290000,162345,
-4628,1004,16380,-645,278,95,-1000,17000,290000,162358,
-4592,924,16208,-611,217,72,-1000,17000,290000,162360,
-4684,932,16192,-615,149,119,-1000,17000,290000,162362,
-4724,872,16372,-547,-213,59,-1000,17000,290000,162375,
-4496,948,16356,-522,-317,50,-1000,17000,290000,162377,
-4572,956,16224,-532,-363,67,-1000,17000,290000,162380,
-3924,1192,16240,-452,-490,8,-1000,16000,290000,162392,
-4032,1160,16248,-452,-441,-12,-1000,16000,290000,162395,
-3940,1200,16316,-442,-382,-17,-1000,16000,290000,162397,
-3836,1148,16176,-327,-141,41,-1000,16000,290000,162410,
-3988,1192,16180,-275,-97,51,-1000,16000,290000,162412,
-3920,1116,16200,-280,-25,88,-1000,16000,290000,162414,
-4040,928,16020,-152,169,120,-1000,16000,290000,162427,
-4024,884,16088,-171,168,127,-1000,16000,290000,162429,
-4064,948,16140,-162,210,125,-1000,16000,290000,162432,
-3892,1072,15808,-141,178,77,-1000,16000,290000,162444,
-3872,1080,15824,-142,192,52,-1000,16000,290000,162447,
-3904,1116,15832,-119,159,37,-1000,16000,290000,162449,
-3876,1264,15700,-234,156,10,-1000,16000,290000,162462,
-3804,1156,15564,-213,125,5,-1000,16000,290000,162464,
-3780,1152,15568,-260,129,-7,-1000,16000,290000,162466,
-3788,1208,15672,-295,230,-20,-1000,16000,290000,162479,
-3716,1236,15312,-304,294,-38,-1000,16000,290000,162481,
-3668,1256,15392,-317,374,-21,-1000,16000,290000,162484,
-3812,1224,15724,-311,508,9,-1000,16000,290000,162496,
-3860,1312,15760,-291,511,-13,-1000,16000,290000,162499,
-4028,1304,15568,-279,525,6,-1000,16000,290000,162501,
-4376,1176,15696,-330,441,134,-1000,16000,290000,162514,
-4496,1188,15860,-372,341,170,-1000,16000,290000,162516,
-4524,1264,15836,-424,302,183,-1000,16000,290000,162519,
-4404,1232,15876,-554,-123,147,-1000,16000,290000,162531,
-4316,1112,15820,-567,-180,99,-1000,16000,290000,162533,
-4260,1192,15808,-566,-231,80,-1000,16000,290000,162536,
-4004,1188,15812,-653,-326,-13,-1000,16000,290000,162548,
-3876,1184,15868,-594,-337,-24,-1000,16000,290000,162551,
-3652,1204,15824,-615,-321,-26,-1000,16000,290000,162553,
-3472,1304,15664,-580,-41,-54,-1000,16000,290000,162566,
-3384,1284,15664,-620,24,-65,-1000,16000,290000,162568,
-3428,1388,15740,-641,133,-88,-1000,16000,290000,162571,
-3596,1276,15724,-582,472,-67,-1000,16000,290000,162583,
-3628,1300,15724,-595,531,-73,-1000,16000,290000,162586,
-3756,1228,15504,-550,590,-61,-1000,16000,290000,162588,
-4028,1260,15632,-624,659,-10,-1000,16000,290000,162601,
-4072,1124,15600,-636,576,18,-1000,16000,290000,162603,
-4084,1160,15780,-675,572,2,-1000,16000,290000,162605,
-4204,1240,15848,-683,384,-59,-1000,16000,290000,162618,
-4176,1112,15972,-744,308,-85,-1000,16000,290000,162620,
-4176,1196,15776,-692,348,-97,-1000,16000,290000,162623,
-4024,1420,15804,-812,296,-130,-1000,16000,290000,162635,
-3932,1380,15788,-742,321,-127,-1000,16000,290000,162638,
-3952,1364,15844,-751,331,-84,-1000,17000,290000,162640,
-4012,1360,16056,-612,488,-60,-1000,17000,290000,162653,
-3944,1160,16212,-649,518,-56,-1000,17000,290000,162655,
-4108,1160,16268,-630,554,-55,-1000,17000,290000,162657,
-4440,984,16076,-626,532,15,-1000,17000,290000,162670,
-4524,872,16056,-615,540,10,-1000,17000,290000,162672,
-4528,864,15932,-598,446,56,-1000,17000,290000,162675,
-4460,800,15876,-593,421,51,-1000,17000,290000,162677,
-4396,932,15996,-617,122,-1,-2000,17000,290000,162690,
-4404,928,15912,-658,43,-79,-2000,17000,290000,162692,
-4404,984,15984,-617,49,-83,-2000,17000,290000,162694,
-4128,1136,15928,-626,-40,-55,-2000,17000,290000,162707,
-4236,1032,16016,-548,-36,-68,-2000,17000,290000,162709,
-4180,1120,16080,-575,-67,-21,-2000,17000,290000,162712,
-4100,1132,15956,-522,112,69,-2000,17000,290000,162724,
-4084,1108,15860,-562,115,123,-2000,17000,290000,162727,
-4132,1152,15928,-558,177,97,-2000,17000,290000,162729,
-4172,1084,15876,-482,310,133,-2000,17000,290000,162742,
-4212,1140,15932,-462,385,132,-2000,17000,290000,162744,
-4276,1048,15888,-394,391,156,-2000,17000,290000,162747,
-4540,1204,15664,-410,578,275,-2000,17000,290000,162759,
-4508,1220,15768,-420,536,308,-2000,17000,290000,162762,
-4656,1124,15876,-448,548,380,-2000,17000,290000,162764,
-4840,1180,15620,-513,529,538,-2000,17000,290000,162780,
-4868,1096,15632,-493,496,561,-2000,17000,290000,162783,
-4884,1148,15568,-529,472,592,-2000,17000,290000,162785,
-4932,1104,15724,-542,382,740,-2000,17000,291000,162798,
-4732,1216,15860,-612,399,806,-2000,17000,291000,162800,
-4764,1136,15984,-634,411,813,-2000,17000,291000,162802,
-4552,1060,16048,-723,546,896,-2000,17000,291000,162815,
-4576,1176,16224,-733,673,905,-2000,17000,291000,162817,
-4556,1104,16324,-669,679,904,-2000,17000,291000,162820,
-4356,984,16508,-499,1226,1019,-2000,17000,291000,162832,
-4356,840,16516,-444,1303,1009,-2000,17000,291000,162835,
-4440,820,16588,-444,1425,1016,-2000,17000,291000,162837,
-4260,872,17064,-179,1865,904,-1000,17000,291000,162850,
-4372,916,17316,-156,1878,873,-1000,17000,291000,162852,
-4276,868,17464,-95,1961,814,-1000,17000,291000,162854,
-4884,772,18288,356,1750,794,-1000,17000,291000,162867,
-4924,648,18456,535,1666,742,-1000,17000,291000,162869,
-4988,600,18904,606,1455,745,-1000,17000,291000,162872,
-5252,132,20972,1465,-25,534,-1000,17000,291000,162884,
-5388,212,21380,1647,-432,505,-1000,17000,291000,162887,
-5644,4,22268,1831,-902,475,-1000,17000,291000,162889,
-5632,-512,25092,3237,-3323,82,-1000,17000,291000,162902,
-5412,-564,25748,3648,-3769,-82,-1000,17000,291000,162904,
-5344,-504,26232,4079,-4259,-380,-1000,17000,291000,162906,
-5828,-1452,28928,6100,-6229,-967,0,16000,291000,162919,
-5532,-1568,29436,6799,-6685,-1014,0,16000,291000,162921,
-5076,-1676,29968,7553,-7191,-1191,0,16000,291000,162924,
-4368,-2300,30540,11068,-10007,-2477,0,15000,291000,162937,
-4128,-2212,30432,11599,-10303,-2631,0,15000,291000,162939,
-3648,-2176,30592,12281,-10518,-2771,1000,15000,291000,162941,
-1632,-796,29684,15592,-11065,-2969,2000,13000,290000,162954,
-1156,-440,29372,16306,-10945,-2846,2000,13000,290000,162956,
-764,-184,29404,16822,-10757,-2714,3000,13000,290000,162959,
572,1464,27964,19897,-9441,-2411,4000,12000,290000,162971,
696,1780,27792,20392,-9027,-2449,5000,12000,290000,162974,
432,2004,27704,21030,-8578,-2635,5000,12000,290000,162976,
-1388,3392,26076,23272,-6762,-3477,7000,11000,289000,162989,
-1972,3604,25600,23678,-6616,-3541,8000,11000,289000,162991,
-2336,3932,25240,23984,-6457,-3544,8000,11000,289000,162993,
-4888,3472,24264,24946,-6802,-2986,10000,10000,289000,163006,
-5264,3328,23816,25092,-7009,-2800,11000,10000,289000,163008,
-5600,3380,23292,25155,-7334,-2625,11000,10000,289000,163011,
-6300,3856,21968,25383,-9987,-2082,14000,9000,288000,163023,
-6400,4080,21552,25341,-10540,-2015,14000,9000,288000,163026,
-6416,4196,21192,25369,-11102,-2053,15000,9000,288000,163028,
-6232,4748,18592,25177,-13355,-1692,17000,8000,288000,163041,
-6200,4876,18260,25237,-13795,-1594,17000,7000,287000,163043,
-6176,4952,18064,25165,-14227,-1528,18000,7000,287000,163046,
-5684,6232,14812,24711,-16548,-1394,20000,6000,287000,163058,
-5724,6336,14224,24523,-16942,-1303,21000,5000,287000,163061,
-5616,6412,13532,24293,-17447,-1193,21000,5000,286000,163063,
-4608,6804,12028,22889,-19303,231,23000,4000,286000,163076,
-4112,6852,12064,22710,-19549,429,24000,3000,286000,163078,
-3748,6760,11904,22449,-19759,630,24000,3000,285000,163080,
-820,6960,10228,21202,-19912,390,26000,1000,285000,163093,
-584,7016,10128,20933,-19717,237,26000,1000,285000,163095,
-328,7104,9868,20799,-19499,-2,27000,1000,284000,163098,
156,7216,8316,19759,-17603,-1042,29000,0,283000,163110,
120,7192,7884,19539,-17237,-1155,29000,0,283000,163113,
40,7300,7616,19348,-16859,-1229,30000,0,283000,163115,
-268,7392,6804,17861,-15052,-1068,31000,-2000,282000,163128,
-232,7364,6728,17654,-14750,-1038,32000,-2000,282000,163130,
-384,7540,6624,17261,-14450,-973,32000,-2000,282000,163133,
-356,7672,5716,15623,-13161,-1126,34000,-3000,281000,163145,
-452,7632,5556,15266,-13030,-1134,34000,-3000,281000,163148,
-404,7596,5620,14970,-12883,-1164,34000,-3000,281000,163150,
-280,7552,4936,13267,-11601,-1143,36000,-4000,280000,163162,
-300,7512,4496,12964,-11436,-1159,36000,-4000,280000,163165,
-148,7620,4504,12633,-11213,-1156,36000,-4000,280000,163167,
288,7792,3252,10754,-9762,-1059,38000,-5000,279000,163180,
452,7744,3116,10374,-9512,-1056,38000,-5000,279000,163182,
468,7664,3000,10153,-9270,-1129,38000,-5000,279000,163185,
196,7828,1824,8689,-7606,-981,39000,-6000,278000,163197,
-20,7980,1516,8338,-7249,-922,39000,-6000,278000,163200,
-8,7896,1412,7947,-6905,-878,40000,-6000,278000,163202,
-592,7756,1620,5496,-5247,12,40000,-6000,278000,163215,
-616,7428,1984,5222,-5045,167,41000,-6000,278000,163217,
-672,7492,2436,5026,-5088,364,41000,-6000,278000,163219,
-812,7256,2348,3332,-5160,914,41000,-7000,277000,163232,
-844,7248,2256,3016,-5137,993,41000,-7000,277000,163234,
-688,7336,2224,2604,-5143,1039,41000,-7000,277000,163237,
-312,7116,2252,1039,-5000,974,42000,-7000,277000,163249,
-172,7244,2136,734,-4876,874,42000,-7000,277000,163252,
76,7480,1872,-742,-3908,743,42000,-8000,277000,163264,
192,7544,1900,-1012,-3624,789,42000,-8000,277000,163267,
216,7544,1760,-1270,-3357,818,42000,-8000,277000,163269,
624,7876,1608,-2723,-1767,1071,42000,-8000,277000,163282,
836,7892,1724,-2928,-1469,1138,42000,-8000,277000,163284,
824,7872,1840,-3194,-1171,1202,42000,-8000,277000,163286,
1452,8080,1344,-4923,1302,1528,42000,-8000,277000,163299,
1408,7872,2096,-5110,1283,1572,42000,-8000,277000,163301,
1780,7956,1968,-5234,1875,1561,42000,-8000,277000,163304,
2368,7964,2348,-6464,4286,1708,41000,-8000,277000,163316,
2356,7916,2584,-6647,4679,1613,41000,-8000,277000,163319,
2388,8056,2468,-6794,5032,1634,41000,-8000,277000,163321,
2596,8016,3432,-7808,6872,1417,40000,-7000,278000,163334,
2692,8016,3544,-7961,7102,1374,40000,-7000,278000,163336,
2652,8024,3804,-8142,7426,1303,40000,-7000,278000,163339,
2668,8272,4556,-8822,8804,942,39000,-7000,279000,163351,
2732,8160,4716,-9030,9151,830,39000,-7000,279000,163354,
2620,8168,4888,-9130,9427,762,39000,-7000,279000,163356,
1996,8560,4988,-9953,11086,440,38000,-6000,280000,163369,
1904,8464,4720,-10118,11412,388,38000,-6000,280000,163371,
1688,8532,4704,-10341,11756,364,38000,-5000,280000,163373,
1044,8624,4116,-11588,13536,160,36000,-4000,281000,163386,
728,8596,3856,-11868,13781,152,36000,-4000,281000,163388,
516,8544,3936,-12194,14132,116,36000,-4000,281000,163391,
-384,8164,3636,-13684,15240,74,35000,-3000,282000,163403,
-756,8112,3644,-14040,15550,-14,35000,-3000,282000,163406,
-1168,8104,3888,-14271,15590,83,34000,-2000,282000,163408,
-1604,7424,4880,-16084,16220,116,33000,-1000,283000,163421,
-1616,7224,5072,-16419,16274,175,33000,-1000,283000,163423,
-1540,7104,5264,-16866,16487,189,32000,0,283000,163426,
-1712,6252,7240,-19021,17807,140,31000,0,284000,163438,
-1656,6080,8112,-19214,17946,126,30000,0,284000,163441,
-1644,5676,9688,-19081,17596,31,30000,1000,285000,163443,
-1524,5220,10080,-19365,17880,-303,28000,2000,285000,163456,
-1708,5132,10204,-19340,18513,-278,28000,3000,286000,163458,
-1636,5284,10076,-19352,18606,-339,27000,3000,286000,163460,
-2216,5532,11004,-20380,19696,-508,25000,5000,287000,163473,
-2500,5648,11040,-20407,19675,-455,25000,5000,287000,163475,
-2796,5804,10816,-20508,19828,-409,25000,5000,287000,163478,
-4420,6352,11732,-21407,19995,-184,23000,7000,288000,163491,
-4700,6360,11876,-21662,19925,-65,22000,7000,288000,163493,
-4856,6424,11928,-21979,19905,-9,22000,8000,288000,163495,
-6116,5968,13316,-23068,18549,477,20000,10000,289000,163508,
-6208,5700,13536,-23310,18253,623,20000,10000,289000,163510,
-6248,5612,13848,-23425,17715,708,19000,10000,289000,163513,
-6280,4516,15592,-24405,15419,881,17000,12000,289000,163526,
-6116,4476,15720,-24490,14939,873,16000,12000,290000,163528,
-6068,4064,15832,-24637,14613,837,16000,12000,290000,163530,
-6328,3072,18184,-24638,12881,992,14000,13000,290000,163543,
-6420,2920,18872,-24583,12651,1144,13000,14000,290000,163545,
-6496,2788,19284,-24543,12441,1257,13000,14000,290000,163548,
-7028,2260,21232,-24232,11364,2102,10000,15000,291000,163560,
-7020,2188,21684,-24097,11154,2274,10000,15000,291000,163563,
-7140,1908,22504,-23837,10865,2447,10000,15000,291000,163565,
-7152,932,24620,-22618,9499,3324,8000,16000,291000,163578,
-6992,728,24900,-22324,9237,3416,7000,16000,291000,163580,
-6780,568,25032,-22150,9103,3494,7000,16000,291000,163583,
-5896,-128,26284,-20145,8072,3509,5000,17000,292000,163595,
-5760,-288,26328,-19745,7880,3440,5000,17000,292000,163598,
-5592,-156,26436,-19268,7618,3437,4000,17000,292000,163600,
-5180,-56,25828,-17077,6570,3262,3000,18000,292000,163613,
-5244,96,25812,-16670,6401,3214,2000,18000,292000,163615,
-5136,136,25928,-16298,6273,3124,2000,18000,293000,163618,
-5644,588,25608,-14318,4967,3357,1000,19000,293000,163630,
-5604,568,25496,-14012,4754,3556,1000,19000,293000,163633,
-5584,620,25296,-13652,4481,3722,0,19000,293000,163635,
-5168,952,24640,-11853,3568,4407,0,19000,293000,163648,
-5004,884,24600,-11455,3353,4352,0,19000,294000,163650,
-4656,1176,24792,-11102,3085,4163,0,19000,294000,163652,
-4056,1804,24444,-9489,2064,3547,-1000,19000,294000,163665,
-4668,2004,25212,-9081,1694,3568,-1000,19000,294000,163667,
-4060,2028,25304,-8900,1824,3559,-1000,19000,294000,163670,
-2896,1228,26112,-7314,910,2530,-2000,19000,294000,163682,
-2900,1060,25888,-6906,921,2457,-2000,19000,294000,163685,
-2528,744,25740,-6579,930,2277,-2000,19000,295000,163687,
-2604,-1180,24380,-4093,667,452,-2000,19000,295000,163703,
-2428,-1328,24156,-3634,950,336,-2000,19000,295000,163706,
-2508,-1448,23880,-3204,1163,171,-2000,19000,295000,163708,
-2532,-1592,21876,-1180,2203,-14,-3000,20000,295000,163721,
-2424,-1588,21240,-1019,2221,183,-3000,20000,295000,163723,
-2636,-1532,21208,-782,2224,241,-3000,20000,295000,163726,
-2824,-552,19624,303,2141,286,-3000,20000,295000,163738,
-2968,-540,19524,415,2084,206,-3000,20000,295000,163741,
-3044,-448,19268,568,2032,16,-3000,20000,295000,163743,
-3280,-624,17936,823,1072,-723,-2000,20000,294000,163756,
-3376,-684,17660,891,906,-753,-2000,20000,294000,163758,
-3572,-768,17584,967,772,-801,-2000,20000,294000,163760,
-3552,-1020,16464,1435,697,-869,-2000,20000,294000,163773,
-3608,-924,16244,1485,781,-919,-2000,20000,294000,163776,
-3580,-920,16084,1563,876,-959,-2000,20000,294000,163778,
-3908,-612,15544,1926,1345,-1225,-2000,20000,294000,163790,
-3888,-624,15504,1971,1455,-1295,-2000,20000,294000,163793,
-4120,-712,15532,2033,1486,-1332,-2000,20000,294000,163795,
-4388,-432,15128,2048,1647,-1605,-2000,20000,294000,163808,
-4504,-296,15096,2037,1604,-1625,-2000,20000,294000,163810,
-4512,-260,14940,1959,1606,-1675,-2000,20000,294000,163813,
-4756,-76,14816,1806,1430,-1810,-2000,20000,294000,163825,
-4720,68,14808,1742,1468,-1831,-2000,20000,294000,163828,
-4724,56,14916,1733,1369,-1862,-2000,20000,294000,163830,
-4728,240,14752,1458,1446,-1836,-2000,20000,293000,163843,
-4736,252,14832,1447,1458,-1848,-2000,20000,293000,163845,
-4728,344,14792,1378,1485,-1791,-2000,20000,293000,163848,
-5120,584,14724,1144,1696,-1681,-2000,21000,293000,163860,
-5180,632,14512,1057,1763,-1641,-2000,21000,293000,163863,
-5224,748,14552,946,1816,-1613,-2000,21000,293000,163865,
-5508,1136,14328,519,1808,-1342,-1000,21000,293000,163878,
-5580,1140,14452,440,1846,-1353,-1000,21000,293000,163880,
-5652,1172,14512,354,1748,-1285,-1000,21000,293000,163883,
-5960,1280,14520,-132,1155,-1160,-1000,21000,293000,163895,
-5960,1276,14520,-244,1036,-1065,-1000,21000,293000,163898,
-5936,1408,14576,-364,978,-1050,-2000,21000,293000,163900,
-5760,1272,14968,-660,764,-898,-2000,21000,293000,163913,
-5680,1512,15312,-723,789,-918,-2000,21000,293000,163915,
-5668,1456,15248,-697,808,-907,-2000,21000,293000,163918,
-5692,1440,15356,-744,1152,-794,-2000,21000,293000,163930,
-5544,1348,15332,-693,1167,-769,-2000,21000,293000,163933,
-5676,1436,15268,-725,1244,-723,-2000,21000,293000,163935,
-5876,1476,15124,-702,1530,-524,-2000,21000,293000,163948,
-5824,1664,15120,-717,1591,-507,-2000,21000,293000,163950,
-5884,1516,15296,-733,1628,-482,-2000,21000,293000,163953,
-6056,1724,15360,-645,1655,-342,-2000,22000,293000,163965,
-6140,1756,15224,-647,1629,-351,-2000,22000,293000,163968,
-6032,1756,15152,-657,1609,-339,-2000,22000,293000,163970,
