Ax,Ay,Az,Gx,Gy,Gz,Roll,Pitch,Yaw,Timestamp,Target
-256,11408,11084,-549,-2,-60,39000,3000,255000,799130,
-340,11340,11008,-514,90,-128,39000,3000,255000,799142,
-324,11296,10968,-575,121,-107,39000,3000,255000,799145,
-280,11424,11124,-541,111,-129,39000,3000,255000,799147,
-376,11232,11116,-540,183,-132,39000,3000,255000,799160,
-284,11252,11084,-525,98,-174,39000,3000,255000,799162,
-268,11280,11084,-482,180,-156,39000,3000,255000,799164,
-288,11284,11240,-487,50,-154,39000,3000,255000,799177,
-368,11372,11300,-450,65,-161,39000,3000,255000,799179,
-380,11388,11268,-461,57,-207,39000,3000,255000,799181,
-360,11364,11108,-435,156,-201,39000,3000,255000,799194,
-300,11356,11176,-411,207,-221,39000,3000,255000,799196,
-220,11372,11024,-451,193,-200,39000,3000,255000,799199,
-268,11456,11052,-360,271,-241,39000,3000,255000,799211,
-252,11404,11196,-382,313,-286,39000,3000,255000,799214,
-304,11404,11124,-400,328,-256,39000,3000,255000,799216,
-480,11436,11088,8644,12664,-662,-208,-156,29000,-13000,
5264,9004,12588,-577,211,-213,29000,-13000,311000,801815,
5268,8976,12672,-701,277,-190,29000,-13000,311000,801827,
5316,8964,12652,-684,259,-163,29000,-13000,311000,801829,
5264,8800,12604,-694,303,-192,29000,-13000,311000,801832,
0,0,0,0,0,0,29000,-13000,311000,801832,
-564,11272,11040,-450,350,-111,39000,3000,255000,799263,
-584,11372,11000,-515,313,-108,39000,3000,255000,799265,
-524,11276,10996,-482,286,-78,39000,3000,255000,799268,
-532,11372,11068,-523,299,-32,39000,3000,255000,799280,
-540,11320,10804,-561,223,-60,39000,3000,255000,799282,
-592,11200,10772,-533,226,-59,39000,3000,255000,799285,
-508,11284,10864,-597,124,-19,39000,3000,255000,799297,
-536,11244,10892,-568,58,2,39000,3000,255000,799300,
-544,11292,10876,-579,88,-17,39000,3000,255000,799302,
-552,11264,10788,-589,37,34,39000,3000,255000,799304,
-468,11424,10908,-628,13,6,39000,3000,255000,799317,
-476,11304,11024,-687,-24,33,39000,3000,255000,799319,
-492,11312,10972,-630,34,17,39000,3000,255000,799321,
-360,11368,11064,-713,41,23,39000,3000,255000,799334,
-312,11284,11068,-642,69,26,39000,3000,255000,799336,
-304,11352,11176,-692,115,30,39000,3000,255000,799338,
-232,11368,11020,-688,48,14,39000,3000,255000,799341,
-176,11276,11044,-637,211,-18,38000,3000,255000,799353,
-144,11276,11064,-678,309,-33,38000,3000,255000,799355,
-188,11192,11096,-650,288,-29,38000,3000,255000,799358,
-96,11352,11124,-574,468,-90,38000,3000,255000,799370,
-124,11380,10948,-649,470,-97,38000,3000,255000,799373,
-92,11324,11072,-588,518,-120,38000,3000,255000,799375,
-280,11336,11024,-620,661,-138,38000,3000,255000,799388,
-224,11348,11248,-664,598,-162,38000,3000,255000,799390,
-248,11348,11028,-592,661,-175,38000,3000,255000,799392,
-280,11292,11124,-575,657,-213,38000,3000,255000,799405,
-364,11308,11052,-627,600,-237,38000,3000,255000,799407,
-320,11348,11072,-590,622,-207,38000,3000,255000,799409,
-528,11460,11180,-604,467,-284,38000,3000,255000,799422,
-360,11340,11148,-648,416,-247,38000,3000,255000,799424,
-520,11328,11276,-581,397,-311,38000,3000,255000,799426,
-452,11396,11036,-608,240,-284,38000,3000,255000,799439,
-472,11376,11184,-631,179,-266,38000,3000,255000,799441,
-404,11384,11116,-618,180,-248,38000,3000,255000,799444,
-332,11296,11148,-609,151,-277,38000,3000,255000,799456,
-368,11360,11308,-675,123,-273,38000,3000,255000,799459,
-428,11260,11140,-583,173,-271,38000,3000,255000,799461,
-348,11376,11168,-620,255,-274,38000,3000,255000,799473,
-316,11420,11284,-631,233,-263,38000,3000,255000,799476,
-412,11264,11180,-602,315,-288,38000,3000,255000,799478,
-444,11416,11200,-706,326,-291,38000,3000,255000,799491,
-576,11360,11180,-634,391,-281,38000,3000,255000,799493,
-440,11352,11256,-673,375,-280,38000,3000,255000,799495,
-624,11328,11160,-705,302,-273,38000,3000,255000,799508,
-496,11228,11152,-661,302,-257,38000,3000,255000,799510,
-520,11332,11340,-686,282,-272,38000,3000,255000,799512,
-576,11328,11216,-650,134,-251,38000,3000,255000,799525,
-612,11304,11428,-716,60,-283,38000,3000,255000,799527,
-508,11208,11280,-644,29,-272,38000,3000,255000,799529,
-524,11212,11324,-612,4,-273,38000,3000,255000,799542,
-552,11200,11312,-647,-78,-257,38000,3000,255000,799544,
-524,11196,11392,-600,-47,-266,38000,3000,255000,799547,
-424,11300,11240,-507,51,-299,38000,3000,255000,799559,
-444,11336,11196,-563,7,-312,38000,3000,255000,799562,
-524,11220,11336,-478,87,-300,38000,3000,255000,799564,
-552,11384,11308,-539,148,-328,38000,3000,255000,799576,
-612,11416,11352,-513,96,-292,38000,3000,255000,799579,
-560,11328,11400,-517,168,-291,38000,3000,255000,799581,
-672,11304,11360,-515,125,-296,38000,3000,255000,799594,
-516,11292,11272,-480,156,-319,38000,3000,255000,799596,
-620,11268,11292,-527,120,-300,38000,3000,255000,799598,
-660,11152,11384,-452,63,-307,38000,3000,255000,799610,
-692,11220,11320,-452,10,-279,38000,3000,255000,799613,
-668,11120,11276,-426,-7,-292,38000,3000,255000,799615,
-604,11276,11136,-354,-61,-257,38000,3000,255000,799628,
-712,11288,11300,-410,-82,-271,38000,3000,255000,799630,
-688,11088,11108,-359,-46,-260,38000,3000,255000,799632,
-648,11340,11308,-397,-166,-206,38000,3000,255000,799645,
-624,11276,11280,-341,-119,-245,38000,3000,255000,799647,
-460,11436,11088,-360,-123,-241,38000,3000,255000,799649,
-496,11288,11028,-383,-120,-176,38000,3000,255000,799662,
-564,11392,11256,-341,-12,-160,38000,3000,255000,799664,
-520,11416,11116,-410,-44,-162,38000,3000,255000,799666,
-644,11476,11124,-424,-27,-121,38000,3000,255000,799679,
-556,11440,11168,-362,31,-158,38000,3000,255000,799681,
-528,11456,11016,-436,10,-157,38000,3000,255000,799683,
-456,11484,11224,-426,34,-176,38000,3000,255000,799696,
-488,11504,11088,-388,100,-185,38000,3000,255000,799698,
-452,11420,11220,-428,84,-163,38000,3000,255000,799700,
-424,11452,11096,-428,71,-212,38000,3000,255000,799713,
-432,11368,11128,-387,134,-208,38000,3000,255000,799715,
-440,11380,11008,-471,135,-231,38000,3000,255000,799717,
-604,11364,11148,-403,198,-207,38000,3000,255000,799730,
-596,11284,11148,-406,185,-240,38000,3000,255000,799732,
-512,11184,11208,-444,139,-218,38000,3000,255000,799734,
-656,11208,11072,-337,201,-233,38000,3000,255000,799747,
-596,11276,11048,-372,126,-208,38000,3000,255000,799749,
-560,11228,11192,-326,223,-198,38000,3000,255000,799751,
-572,11164,10988,-316,239,-191,38000,3000,255000,799764,
-528,11160,11152,-343,150,-153,38000,3000,255000,799766,
-588,11292,11108,-317,241,-168,38000,3000,255000,799768,
-496,11228,11008,-335,295,-119,38000,3000,255000,799781,
-612,11204,11168,-337,264,-138,38000,3000,255000,799783,
-572,11332,11072,-317,342,-75,38000,3000,255000,799786,
-612,11340,11000,-356,303,-132,38000,3000,255000,799798,
-484,11348,10924,-376,244,-91,38000,3000,255000,799800,
-616,11304,11024,-335,290,-74,38000,3000,255000,799803,
-620,11316,10812,-413,269,-19,38000,3000,255000,799815,
-560,11336,11052,-428,206,-39,38000,3000,255000,799818,
-564,11280,10972,-407,285,-1,38000,3000,255000,799820,
-536,11356,11104,-480,156,-26,38000,3000,255000,799832,
-608,11360,10944,-447,184,-34,38000,3000,255000,799835,
-484,11452,11140,-532,171,-31,38000,3000,255000,799837,
-448,11248,11028,-520,105,-40,38000,3000,255000,799850,
-480,11260,11176,-477,149,-53,38000,3000,255000,799852,
-456,11336,11052,-522,76,-73,38000,3000,255000,799854,
-412,11284,11148,-492,93,-118,38000,3000,255000,799867,
-464,11312,10980,-540,107,-91,38000,3000,255000,799869,
-560,11248,10876,-539,53,-86,38000,3000,255000,799871,
-456,11148,11128,-516,165,-113,38000,3000,255000,799884,
-320,11272,11104,-497,134,-112,38000,3000,255000,799886,
-368,11212,11052,-507,222,-104,38000,3000,255000,799889,
-384,11160,11132,-515,230,-161,38000,3000,255000,799901,
-524,11164,11012,-529,184,-155,38000,3000,255000,799904,
-504,11240,11096,-482,278,-152,38000,3000,255000,799906,
-568,11296,10880,-503,213,-164,38000,3000,255000,799918,
-500,11292,11068,-524,166,-165,38000,3000,255000,799921,
-432,11288,10876,-478,238,-153,38000,3000,255000,799923,
-420,11440,11084,-552,118,-194,38000,3000,255000,799936,
-512,11252,11000,-520,93,-169,38000,3000,255000,799938,
-516,11320,10932,-504,145,-179,38000,3000,255000,799940,
-368,11292,11040,-593,133,-201,38000,3000,255000,799953,
-476,11404,11028,-496,156,-210,38000,3000,255000,799955,
-416,11312,11100,-532,133,-195,38000,3000,255000,799957,
-496,11392,10872,-574,121,-242,38000,3000,255000,799970,
-336,11356,11096,-507,145,-239,38000,3000,255000,799972,
-424,11300,11012,-565,155,-274,38000,3000,255000,799975,
-304,11320,11060,-552,186,-260,38000,3000,255000,799987,
-472,11364,11068,-534,265,-261,38000,3000,255000,799990,
-492,11312,11056,-598,194,-245,38000,3000,255000,799992,
-408,11376,11088,-571,283,-271,38000,3000,255000,800004,
-556,11308,11212,-605,301,-279,38000,3000,255000,800007,
-492,11284,11172,-581,284,-265,38000,3000,255000,800009,
-520,11228,11184,-554,328,-319,38000,3000,255000,800022,
-488,11208,11136,-596,278,-318,38000,3000,255000,800024,
-620,11248,11124,-527,338,-314,38000,3000,255000,800026,
-672,11260,11116,-556,329,-304,38000,4000,255000,800039,
-576,11156,11152,-600,213,-318,38000,4000,255000,800041,
-536,11236,11220,-540,250,-309,38000,4000,255000,800043,
-600,11336,11176,-560,239,-260,38000,4000,255000,800056,
-488,11180,11172,-538,171,-279,38000,4000,255000,800058,
-568,11232,11236,-552,189,-311,38000,4000,255000,800060,
-632,11232,11264,-569,234,-273,38000,4000,255000,800073,
-484,11220,11204,-480,279,-245,38000,4000,255000,800075,
-596,11204,11220,-555,196,-244,38000,4000,255000,800077,
-704,11248,11260,-503,261,-215,38000,4000,255000,800090,
-708,11160,11120,-475,281,-232,38000,4000,255000,800092,
-568,11208,11196,-483,213,-197,38000,4000,255000,800095,
-740,11416,11152,-472,91,-196,38000,4000,255000,800107,
-692,11440,11120,-494,135,-183,38000,4000,255000,800110,
-592,11420,11140,-537,62,-171,38000,4000,255000,800112,
-664,11384,11128,-590,-11,-91,38000,4000,255000,800124,
-752,11436,11072,-560,-20,-104,38000,4000,255000,800127,
-592,11420,11140,-619,-60,-90,38000,4000,255000,800129,
-524,11468,11220,-586,-32,-76,38000,4000,255000,800142,
-488,11348,11084,-624,-44,-96,38000,4000,255000,800144,
-516,11360,11224,-641,-95,-90,38000,4000,255000,800146,
-512,11292,11088,-597,53,-110,38000,4000,255000,800159,
-464,11196,11184,-623,97,-84,38000,4000,255000,800161,
-500,11260,11132,-621,52,-101,38000,4000,255000,800163,
-536,11308,11180,-582,206,-130,38000,4000,255000,800176,
-416,11204,11240,-659,173,-137,38000,4000,255000,800178,
-564,11328,11048,-598,199,-148,38000,4000,255000,800180,
-540,11188,11180,-610,316,-146,38000,4000,255000,800193,
-560,11332,11200,-654,221,-151,38000,4000,255000,800195,
-408,11132,11188,-607,284,-138,38000,4000,255000,800198,
-492,11300,11132,-591,296,-187,38000,4000,255000,800210,
-592,11184,11176,-642,229,-165,38000,4000,255000,800213,
-608,11144,11204,-577,259,-163,38000,4000,255000,800215,
-552,11284,11244,-610,208,-244,38000,4000,255000,800227,
-604,11212,11180,-576,191,-215,38000,4000,255000,800230,
-564,11252,11256,-559,246,-213,38000,4000,255000,800232,
-572,11168,11172,-636,203,-235,38000,4000,255000,800245,
-520,11204,11212,-612,294,-262,38000,4000,255000,800247,
-584,11112,11196,-643,276,-257,38000,4000,255000,800249,
-552,11136,11312,-587,503,-255,38000,4000,255000,800262,
-532,11176,11232,-620,457,-302,38000,4000,255000,800264,
-612,11100,11160,-627,491,-299,38000,4000,255000,800267,
-560,11208,11204,-576,658,-358,38000,4000,255000,800279,
-804,11212,11232,-614,662,-352,38000,4000,255000,800281,
-708,11168,11260,-624,594,-383,38000,4000,255000,800284,
-880,11284,11360,-612,581,-330,38000,4000,255000,800296,
-980,11080,11168,-635,569,-305,38000,4000,255000,800299,
-864,11180,11324,-623,529,-302,38000,4000,255000,800301,
-984,11124,11224,-536,387,-285,38000,4000,255000,800313,
-848,11116,11344,-531,335,-271,38000,4000,255000,800316,
-832,11112,11308,-520,335,-257,38000,4000,255000,800318,
-884,11348,11464,-475,275,-224,38000,4000,255000,800331,
-864,11332,11212,-498,194,-197,38000,4000,255000,800333,
-796,11352,11276,-459,238,-197,38000,4000,255000,800335,
-796,11444,11196,-514,100,-70,38000,4000,255000,800348,
-748,11264,11312,-476,111,-52,38000,4000,255000,800350,
-860,11196,11352,-510,105,-37,38000,4000,255000,800352,
-656,11312,11356,-429,-6,59,38000,4000,255000,800365,
-700,11272,11256,-380,61,41,38000,4000,255000,800367,
-724,11352,11228,-449,-36,68,38000,4000,255000,800369,
-592,11224,11332,-386,-32,99,38000,4000,255000,800372,
-516,11296,11240,-344,-18,95,38000,4000,255000,800384,
-580,11328,11268,-388,-33,100,38000,4000,255000,800387,
-492,11372,11264,-314,0,127,38000,4000,255000,800389,
-336,11504,10992,-348,46,62,38000,4000,255000,800401,
-360,11560,11168,-353,21,15,38000,4000,255000,800404,
-420,11452,11168,-321,12,55,38000,4000,255000,800406,
-468,11652,11204,-321,74,4,38000,4000,255000,800419,
-268,11672,11152,-367,-26,7,38000,4000,255000,800421,
-408,11748,11124,-330,37,11,38000,4000,255000,800423,
-364,11740,11068,-429,-43,13,38000,4000,255000,800425,
-352,11732,10904,-515,-46,42,38000,4000,255000,800438,
-300,11620,11016,-504,28,15,38000,4000,255000,800440,
-272,11576,10968,-560,-13,29,38000,4000,255000,800443,
-336,11340,11052,-514,225,-85,38000,4000,255000,800455,
-300,11308,11120,-572,198,-131,38000,4000,255000,800457,
-344,11368,10988,-493,228,-154,38000,4000,255000,800460,
-592,11308,11032,-495,292,-278,38000,4000,255000,800472,
-528,11344,11012,-545,244,-263,38000,4000,255000,800475,
-568,11224,11092,-480,234,-310,38000,4000,255000,800477,
-636,11264,11244,-517,209,-332,38000,4000,255000,800490,
-664,11160,11080,-599,166,-374,38000,4000,255000,800492,
-612,11060,10956,-516,210,-338,38000,4000,255000,800494,
-620,10844,11096,-531,163,-456,38000,4000,255000,800507,
-640,10816,11128,-477,165,-503,38000,4000,255000,800509,
-708,10824,11232,-506,205,-508,38000,4000,255000,800511,
-768,10656,11116,-499,-22,-574,38000,4000,255000,800524,
-872,10780,11260,-449,20,-562,38000,4000,255000,800526,
-776,10748,11108,-457,-47,-572,38000,4000,255000,800528,
-776,10796,11184,-420,-175,-485,38000,4000,255000,800541,
-804,10836,11112,-409,-113,-452,38000,4000,255000,800543,
-828,10808,11104,-496,-159,-442,38000,4000,255000,800546,
-816,10860,10948,-456,-19,-332,38000,4000,255000,800558,
-708,10980,11028,-485,9,-354,38000,4000,255000,800561,
-744,10976,11096,-522,7,-314,38000,4000,255000,800563,
-648,10988,11200,-515,185,-207,38000,4000,255000,800575,
-748,10940,11080,-572,177,-167,38000,4000,255000,800578,
-708,11028,11044,-550,196,-159,38000,4000,255000,800580,
-888,11156,11020,-558,311,-126,38000,4000,255000,800593,
-812,11224,10988,-606,319,-135,38000,4000,255000,800595,
-860,11280,11092,-575,415,-130,38000,4000,255000,800597,
-1040,11596,11220,-610,552,-303,38000,4000,255000,800610,
-928,11656,11124,-543,652,-338,38000,4000,255000,800612,
-1016,11724,11064,-570,695,-387,38000,4000,255000,800614,
-1476,12092,11020,-544,1349,-745,38000,4000,255000,800627,
-1760,12192,10892,-552,1568,-853,38000,4000,255000,800629,
-1836,12312,10816,-566,1670,-925,38000,4000,255000,800632,
-2856,12692,10800,-562,2729,-1387,38000,5000,255000,800644,
-3060,12936,10476,-581,2950,-1532,38000,5000,255000,800646,
-3316,12940,10228,-683,3076,-1612,38000,5000,255000,800649,
-4476,13024,10732,-619,3993,-2032,38000,5000,255000,800661,
-4956,13108,10600,-538,3980,-2050,38000,5000,255000,800663,
-5232,13152,10528,-522,4045,-2030,38000,5000,255000,800666,
-6832,13388,10116,-970,4765,-1688,38000,6000,256000,800678,
-7088,13428,10128,-1005,4853,-1519,38000,6000,256000,800681,
-7488,13336,9896,-1109,4905,-1380,38000,6000,256000,800683,
-9052,13056,9744,-1613,5433,-132,38000,7000,256000,800696,
-9204,12768,9832,-1675,5428,128,38000,7000,256000,800698,
5372,8676,12748,-572,-102,-194,29000,-13000,311000,801896,
5468,8688,12836,-601,-40,-226,29000,-13000,311000,801898,
5444,8772,12820,-591,-120,-226,29000,-13000,311000,801900,
5324,8708,12796,-554,-34,-209,28000,-13000,311000,801913,
5260,8776,12760,-618,-9,-210,28000,-13000,311000,801915,
5272,8808,12764,-596,-74,-162,28000,-13000,311000,801918,
5316,8608,12832,-586,-85,-136,28000,-13000,310000,801930,
5404,8648,12888,-596,-71,-167,28000,-13000,310000,801933,
5348,8580,12768,-639,-133,-152,28000,-13000,310000,801935,
5340,8472,12812,-514,-47,-165,28000,-13000,310000,801947,
5384,8468,12840,-539,-27,-205,28000,-13000,310000,801950,
5336,8428,12964,-502,-61,-180,28000,-13000,310000,801952,
5416,8420,12968,-415,-60,-170,28000,-13000,310000,801965,
5380,8520,12780,-404,-30,-213,28000,-13000,310000,801967,
5460,8484,12720,-418,-55,-217,28000,-13000,310000,801969,
5368,8596,12908,-323,-17,-180,28000,-13000,310000,801982,
5372,8564,12812,-368,-119,-179,28000,-13000,310000,801984,
5360,8632,12752,-344,-55,-152,28000,-13000,310000,801986,
5396,8568,12964,-307,-124,-95,28000,-13000,310000,801999,
5388,8544,12836,-309,-174,-113,28000,-13000,310000,802001,
5448,8612,12864,-256,-126,-97,28000,-13000,310000,802004,
5516,8732,12736,-205,-123,-130,28000,-13000,310000,802016,
5440,8724,12728,-272,-158,-162,28000,-13000,310000,802018,
5436,8732,12668,-189,-99,-192,28000,-13000,310000,802021,
5428,8744,12648,-251,-87,-187,28000,-13000,310000,802033,
5412,8704,12640,-309,-65,-190,28000,-13000,310000,802036,
5344,8676,12692,-253,-70,-181,28000,-13000,310000,802038,
5404,8480,12804,-285,-98,-199,28000,-13000,310000,802050,
5416,8364,12648,-262,-179,-217,28000,-13000,310000,802053,
5336,8488,12832,-205,-114,-249,28000,-13000,310000,802055,
5340,8364,12648,-159,-241,-269,28000,-13000,310000,802068,
5196,8416,12620,-155,-258,-216,29000,-13000,310000,802070,
5320,8428,12484,-99,-220,-232,29000,-13000,310000,802072,
5380,8476,12636,-92,-225,-197,29000,-14000,310000,802085,
5312,8596,12568,-67,-231,-160,29000,-14000,310000,802087,
5240,8600,12604,-77,-199,-170,29000,-14000,310000,802090,
5212,8560,12380,-103,-218,-90,29000,-14000,310000,802102,
5228,8580,12420,-60,-154,-98,29000,-14000,310000,802104,
5272,8620,12484,-95,-154,-76,29000,-14000,310000,802107,
5276,8676,12628,-67,-105,21,29000,-14000,310000,802119,
5172,8748,12292,-125,-133,5,29000,-14000,310000,802122,
5244,8804,12248,-119,-130,43,29000,-14000,310000,802124,
5208,8860,12456,-103,-101,77,29000,-14000,310000,802136,
5244,8860,12448,-149,-171,71,29000,-14000,310000,802139,
5268,8852,12552,-113,-111,81,29000,-14000,310000,802141,
5352,8868,12496,-195,-105,67,29000,-14000,310000,802153,
5344,8820,12412,-251,-177,105,29000,-14000,310000,802156,
5348,8884,12412,-228,-127,100,29000,-14000,310000,802158,
5412,8768,12428,-197,-112,116,29000,-14000,310000,802170,
5360,8768,12384,-280,-133,92,29000,-14000,310000,802173,
5464,8680,12564,-235,-157,98,29000,-14000,310000,802175,
5484,8688,12440,-149,-68,32,29000,-14000,310000,802188,
5352,8688,12488,-181,-37,-2,29000,-14000,310000,802190,
5560,8780,12344,-140,-51,-24,29000,-14000,310000,802192,
5456,9148,12704,-104,-42,-126,29000,-14000,310000,802205,
5432,9056,12508,-137,11,-138,29000,-14000,310000,802207,
5404,9148,12456,-211,-66,-132,29000,-14000,310000,802210,
5248,9036,12604,-212,-24,-106,29000,-14000,310000,802222,
5436,9132,12616,-228,23,-108,29000,-14000,310000,802224,
5456,9020,12536,-231,2,-91,29000,-14000,310000,802227,
5500,8920,12496,-166,109,-120,29000,-14000,310000,802239,
5452,8948,12428,-179,126,-113,29000,-14000,310000,802242,
5568,9052,12540,-168,115,-114,29000,-14000,310000,802244,
5360,9092,12492,-193,207,-79,29000,-14000,310000,802257,
5388,9192,12552,-306,184,-78,29000,-14000,310000,802259,
5448,9080,12428,-254,244,-29,29000,-14000,310000,802261,
5268,9004,12668,-266,322,17,29000,-14000,310000,802274,
5240,9032,12692,-325,298,3,29000,-14000,310000,802276,
5248,9080,12644,-271,312,39,29000,-14000,310000,802278,
5236,8988,12616,-250,198,80,29000,-14000,310000,802291,
5256,9128,12712,-302,92,88,29000,-14000,310000,802293,
5284,9128,12676,-249,65,100,29000,-14000,310000,802295,
5192,9044,12656,-280,3,116,29000,-14000,310000,802308,
5268,9020,12628,-305,-57,105,29000,-14000,310000,802310,
5300,8984,12596,-242,-21,149,29000,-14000,310000,802312,
5380,8836,12624,-224,-15,94,29000,-14000,310000,802325,
5336,8844,12856,-185,-66,104,29000,-14000,310000,802327,
5340,8864,12632,-124,-14,107,29000,-14000,310000,802330,
5488,8696,12688,-51,15,100,29000,-14000,310000,802342,
5500,8792,12676,35,99,81,29000,-14000,310000,802345,
5460,8780,12628,6,131,138,29000,-14000,310000,802347,
5488,8776,12708,75,107,93,29000,-14000,310000,802349,
5448,8856,12632,138,290,135,29000,-14000,310000,802362,
5376,8816,12644,93,262,130,29000,-14000,310000,802364,
5328,8888,12612,165,342,147,29000,-14000,310000,802366,
5488,8804,12604,198,310,222,29000,-14000,310000,802379,
5464,8768,12516,187,206,221,29000,-14000,310000,802381,
5556,8876,12620,269,263,194,29000,-14000,310000,802383,
5600,8788,12396,271,133,153,29000,-14000,310000,802396,
5572,8776,12336,254,64,189,29000,-14000,310000,802398,
5660,8736,12416,279,132,182,29000,-14000,310000,802400,
5732,8536,12220,237,-9,202,29000,-14000,310000,802413,
5796,8544,12272,277,37,160,29000,-14000,310000,802415,
5700,8504,12096,230,-32,203,29000,-14000,310000,802417,
5872,8424,12160,321,-67,-19,29000,-14000,310000,802430,
6000,8496,12148,262,-51,-26,29000,-14000,310000,802432,
5872,8528,12076,326,-133,-71,29000,-14000,310000,802435,
6004,8436,11812,283,-262,-180,29000,-14000,310000,802447,
5980,8384,11708,226,-310,-176,29000,-14000,310000,802449,
5976,8352,11596,229,-264,-225,29000,-14000,310000,802452,
6100,8368,11276,146,-365,-324,29000,-15000,310000,802464,
6092,8364,11432,198,-409,-338,29000,-15000,310000,802467,
6108,8400,11176,135,-370,-360,29000,-15000,310000,802469,
6304,8252,11032,-61,-364,-488,30000,-15000,310000,802482,
6300,8304,11108,-50,-235,-501,30000,-15000,310000,802484,
6344,8296,10948,-163,-256,-514,30000,-15000,310000,802486,
6436,8168,10616,-439,-60,-542,30000,-15000,310000,802499,
6408,8028,10560,-439,-5,-565,30000,-15000,310000,802501,
6420,7988,10660,-536,-19,-588,30000,-15000,310000,802503,
6516,7752,10132,-819,25,-759,30000,-15000,310000,802516,
6672,7820,10136,-865,123,-797,30000,-15000,310000,802518,
6692,7712,10044,-964,64,-870,30000,-15000,310000,802521,
6860,7652,9592,-1258,266,-1081,29000,-15000,310000,802533,
6796,7572,9524,-1336,321,-1151,29000,-15000,310000,802535,
6784,7536,9456,-1454,289,-1168,29000,-15000,310000,802538,
6812,7268,9072,-1986,475,-1442,29000,-15000,309000,802550,
6876,7232,8832,-2109,517,-1441,29000,-15000,309000,802553,
6732,7056,8968,-2264,451,-1505,29000,-15000,309000,802555,
6572,6072,8640,-2845,327,-1635,29000,-15000,309000,802568,
6560,5956,8616,-2935,227,-1661,29000,-15000,309000,802570,
6472,5748,8456,-3075,154,-1705,29000,-15000,309000,802572,
6364,4832,8240,-3499,-380,-1929,29000,-15000,309000,802585,
6232,4512,7984,-3540,-466,-1971,29000,-15000,309000,802587,
6216,4312,7860,-3688,-644,-2028,29000,-15000,309000,802589,
6108,3256,7344,-4062,-1137,-2167,28000,-15000,309000,802602,
6192,3092,7424,-4146,-1274,-2188,28000,-15000,309000,802604,
6208,3020,7468,-4143,-1266,-2211,28000,-15000,309000,802607,
6228,2136,6816,-4524,-1704,-2366,28000,-15000,308000,802619,
5572,2168,6964,-4521,-2075,-2242,28000,-15000,308000,802622,
6900,1916,6440,-4790,-2065,-2481,28000,-15000,308000,802624,
6780,1492,6192,-4822,-1920,-2775,27000,-16000,308000,802636,
6748,1356,6176,-4800,-1837,-2846,27000,-16000,308000,802639,
6972,1396,6076,-4928,-1811,-2909,27000,-16000,308000,802641,
7536,1252,5348,-5302,-1632,-3586,27000,-16000,307000,802654,
7656,1352,5360,-5381,-1539,-3756,26000,-16000,307000,802656,
7700,1400,5064,-5426,-1437,-3930,26000,-16000,307000,802658,
8096,1212,4380,-5988,-468,-4893,26000,-16000,307000,802671,
8200,1080,4308,-6179,-302,-5074,26000,-16000,307000,802673,
8276,972,4072,-6222,70,-5237,26000,-16000,307000,802675,
8260,832,3564,-7182,1524,-6248,25000,-16000,306000,802688,
8288,604,3488,-7350,1850,-6439,25000,-16000,306000,802690,
8232,640,3432,-7491,2086,-6615,25000,-16000,306000,802693,
8432,392,3828,-8445,2764,-7341,24000,-16000,305000,802705,
8564,308,3680,-8684,2880,-7496,24000,-15000,305000,802708,
8584,316,3712,-9021,2903,-7733,24000,-15000,305000,802710,
8784,-76,3640,-10485,3046,-9335,23000,-15000,305000,802722,
8660,-20,3396,-10620,3196,-9647,23000,-15000,304000,802725,
8588,-80,3304,-10925,3243,-9941,23000,-15000,304000,802727,
8392,-132,2928,-12732,3797,-11432,22000,-14000,303000,802740,
8204,-248,3124,-13055,3883,-11637,21000,-14000,303000,802742,
8296,-200,3276,-13475,3848,-11937,21000,-14000,303000,802744,
7924,-576,2988,-15578,4011,-13390,20000,-14000,302000,802757,
7772,-440,3068,-16069,3968,-13765,20000,-14000,302000,802759,
7672,-600,3176,-16394,4119,-13966,19000,-14000,302000,802761,
6984,-944,3356,-18736,5203,-15186,18000,-13000,300000,802774,
6816,-1084,3512,-19298,5464,-15397,18000,-13000,300000,802776,
6556,-1056,3588,-19646,5831,-15504,17000,-13000,300000,802779,
5776,-1316,4652,-21988,8016,-15832,15000,-12000,299000,802791,
5504,-1364,5108,-22540,8376,-15848,15000,-12000,298000,802794,
4940,-1584,7312,-25349,9948,-15929,13000,-10000,297000,802806,
4800,-1784,7880,-25967,10152,-15962,12000,-10000,297000,802808,
4680,-2044,8236,-26480,10388,-16008,12000,-10000,297000,802811,
3904,-3988,11672,-28934,11690,-16401,9000,-9000,295000,802823,
3780,-4412,12072,-29395,11931,-16601,8000,-8000,295000,802826,
3624,-4564,12588,-29675,12273,-16697,8000,-8000,295000,802828,
2612,-5276,15680,-30794,14666,-17860,5000,-6000,293000,802841,
2280,-5260,16204,-30881,15446,-18150,4000,-6000,293000,802843,
1860,-5180,16704,-30964,16072,-18426,4000,-6000,293000,802845,
-1220,-5400,20372,-30310,19078,-20195,1000,-4000,291000,802858,
-1504,-5476,20524,-29899,19627,-20361,0,-4000,290000,802860,
-5384,-7116,22692,-28803,21709,-21232,-1000,-1000,288000,802873,
-5776,-7664,22892,-28420,21744,-21209,-2000,-1000,288000,802875,
-6772,-8376,23528,-27906,21651,-21182,-2000,-1000,288000,802878,
-10932,-10996,23848,-25916,19160,-21355,-5000,0,285000,802890,
-10876,-10484,24448,-25741,17953,-20557,-5000,1000,285000,802893,
-10216,-9396,24560,-25634,16823,-19675,-6000,1000,285000,802895,
-13636,-10176,23660,-23382,16204,-16677,-8000,2000,283000,802907,
-13660,-10504,24480,-22704,15544,-16519,-9000,3000,282000,802910,
-17212,-6996,26080,-20034,9090,-17413,-11000,3000,281000,802922,
-15540,-5488,24248,-20699,9371,-17212,-11000,4000,280000,802925,
-15872,-5024,26340,-20826,8153,-17188,-12000,4000,280000,802927,
-16780,-448,27936,-20914,1891,-14518,-14000,4000,279000,802940,
-15608,-192,27276,-21137,860,-13529,-14000,4000,278000,802942,
-15536,-364,28128,-21334,153,-12687,-14000,4000,278000,802944,
-12192,-756,30024,-21627,-3045,-8339,-17000,3000,277000,802957,
-11252,-788,30172,-21774,-3254,-7837,-17000,3000,277000,802959,
-7396,-1332,32767,-20953,-2404,-6619,-19000,3000,277000,802972,
-7144,-1392,32767,-20554,-1795,-6564,-19000,3000,277000,802974,
-6680,-1340,32767,-20360,-1230,-6501,-20000,3000,277000,802977,
-6264,-1808,32767,-17593,3174,-6042,-21000,3000,276000,802989,
-6244,-1892,32767,-17114,3830,-5868,-21000,3000,276000,802992,
-6248,-2128,32767,-16606,4522,-5633,-22000,3000,276000,802994,
-6492,-3172,32767,-12523,7032,-4406,-23000,3000,275000,803006,
-6676,-3444,32767,-11673,7311,-4224,-23000,3000,275000,803009,
-6748,-4236,32767,-6903,7560,-2918,-24000,4000,274000,803021,
-6724,-4368,32767,-6017,7546,-2600,-24000,4000,274000,803023,
-6760,-4368,32767,-5186,7481,-2273,-24000,4000,274000,803026,
-6120,-5076,32767,-231,6842,-1346,-24000,5000,274000,803038,
-6056,-5172,32767,699,6644,-1368,-24000,5000,274000,803040,
-5824,-5220,32767,1630,6463,-1506,-24000,5000,274000,803043,
-5792,-4980,32767,6307,4686,-2535,-23000,5000,273000,803055,
-5904,-4792,32767,7141,4448,-2675,-23000,5000,273000,803058,
-5968,-4456,32767,7925,4046,-2722,-23000,6000,273000,803060,
-6164,-3032,32767,11288,1860,-2039,-22000,6000,273000,803072,
-5980,-2720,32767,11816,1447,-1761,-21000,6000,273000,803075,
-5880,-2632,32767,12188,955,-1550,-21000,6000,273000,803077,
-4576,-2576,32767,13919,-1395,-757,-20000,6000,273000,803090,
-4208,-2924,32767,14235,-1746,-674,-19000,5000,273000,803092,
-4216,-2972,32767,14532,-2118,-602,-19000,5000,273000,803094,
-3088,-4312,31308,16484,-3487,-37,-18000,5000,273000,803107,
-2676,-4368,31012,16749,-3659,37,-17000,5000,273000,803109,
-2500,-4684,30708,17164,-3781,74,-17000,5000,273000,803112,
-1480,-5068,28468,18898,-4444,15,-15000,5000,273000,803124,
-1212,-5012,28212,19114,-4699,4,-15000,4000,273000,803127,
-1056,-5040,27744,19451,-4840,-73,-14000,4000,273000,803129,
-424,-4856,25976,20653,-5796,-388,-12000,4000,273000,803142,
-432,-4692,25828,20781,-6028,-492,-12000,4000,273000,803144,
-256,-4812,25304,21003,-6332,-592,-12000,4000,273000,803146,
100,-4588,23876,21610,-7796,-1278,-9000,3000,273000,803159,
140,-4552,23600,21648,-8160,-1413,-9000,3000,273000,803161,
256,-4548,23576,21828,-8483,-1551,-9000,2000,273000,803163,
896,-4712,22476,22311,-9892,-2341,-7000,2000,273000,803176,
1072,-4676,22052,22462,-10227,-2530,-6000,1000,273000,803178,
1700,-4296,20744,22882,-10972,-3718,-4000,0,273000,803191,
1744,-4040,20536,22928,-11130,-3946,-4000,0,273000,803193,
1836,-3888,20556,22982,-11100,-4151,-3000,0,273000,803196,
2272,-3244,19704,22802,-11108,-5197,-1000,0,272000,803208,
2476,-3128,19700,22805,-11008,-5355,-1000,-1000,272000,803210,
2404,-3140,19556,22704,-10834,-5478,0,-1000,272000,803213,
2944,-2908,19108,22525,-9856,-6454,1000,-2000,272000,803225,
2828,-3004,18880,22547,-9526,-6598,1000,-2000,271000,803228,
2896,-2968,18580,22472,-9205,-6844,2000,-2000,271000,803230,
2516,-2744,17692,22556,-7286,-8039,4000,-3000,271000,803243,
2376,-2644,17420,22551,-6818,-8167,4000,-3000,270000,803245,
2076,-2480,17292,22605,-6567,-8375,5000,-3000,270000,803247,
1120,-1996,16000,22340,-5263,-9196,7000,-3000,269000,803260,
984,-1840,15740,22221,-5105,-9344,7000,-4000,269000,803262,
712,-1756,15412,22202,-4945,-9441,8000,-4000,269000,803265,
-328,-1148,14660,21745,-4890,-9867,10000,-4000,268000,803277,
-560,-1264,14604,21525,-4983,-9948,10000,-4000,268000,803280,
-656,-1224,14440,21451,-5019,-9978,10000,-4000,268000,803282,
-1368,-1696,13764,20792,-5717,-10505,12000,-4000,266000,803294,
-1308,-1796,13652,20815,-5991,-10635,13000,-4000,266000,803297,
-1516,-1728,13660,20767,-6088,-10686,13000,-4000,266000,803299,
-1672,-1532,12360,20966,-6765,-11180,15000,-5000,265000,803311,
-1712,-1288,12180,21031,-6901,-11324,15000,-5000,265000,803314,
-1780,-204,10116,20401,-6660,-11808,17000,-5000,263000,803326,
-1988,-256,10072,20166,-6623,-11863,18000,-5000,263000,803329,
-2096,-72,9912,20147,-6666,-11925,18000,-5000,263000,803331,
-2352,520,8360,19156,-5741,-11788,20000,-5000,262000,803343,
-2372,608,8284,18983,-5608,-11753,20000,-5000,261000,803346,
-2416,556,7960,18815,-5312,-11731,21000,-5000,261000,803348,
-2864,764,6872,17709,-4093,-11522,22000,-5000,260000,803361,
-2940,808,6580,17598,-3913,-11474,23000,-5000,260000,803363,
-2984,820,6648,17381,-3698,-11365,23000,-5000,260000,803365,
-3616,1252,5996,16598,-3063,-10814,25000,-4000,259000,803378,
-3728,1260,5956,16411,-2916,-10655,25000,-4000,258000,803380,
-3788,1392,5784,16111,-2867,-10544,25000,-4000,258000,803383,
-4764,1696,5156,14619,-2073,-9716,27000,-4000,257000,803395,
-4532,1736,4944,14390,-2464,-9533,27000,-3000,257000,803397,
-4252,1892,4780,14117,-2597,-9516,27000,-3000,257000,803400,
-4532,2328,3728,12703,-2271,-8457,28000,-3000,256000,803412,
-4704,2396,3792,12150,-2256,-8281,29000,-3000,256000,803415,
-4696,2516,3728,11972,-2296,-8119,29000,-3000,256000,803417,
-4740,3460,3216,10432,-2351,-6994,30000,-2000,255000,803430,
-4692,3640,3264,10097,-2402,-6810,30000,-2000,255000,803432,
-4588,3716,3180,9895,-2472,-6568,30000,-2000,255000,803434,
-4452,4340,2800,8088,-2697,-5491,31000,-2000,254000,803447,
-4408,4404,2696,7784,-2774,-5319,32000,-2000,254000,803449,
-4324,4568,2856,7529,-2750,-5143,32000,-2000,254000,803451,
-4068,5184,3028,6159,-3096,-4054,32000,-2000,254000,803464,
-3864,5092,3044,5922,-3235,-3889,33000,-2000,253000,803466,
-3708,5328,3252,5685,-3256,-3675,33000,-2000,253000,803469,
-3076,6056,3412,4460,-3398,-3060,33000,-2000,253000,803481,
-2888,6260,3440,4312,-3341,-2963,33000,-2000,253000,803484,
-2896,6536,3536,4065,-3346,-2854,34000,-1000,253000,803486,
-2236,7176,4120,3170,-2912,-2195,34000,-2000,252000,803499,
-2108,7324,4324,2972,-2783,-2107,34000,-2000,252000,803501,
-1968,7380,4352,2801,-2798,-2040,34000,-2000,252000,803503,
-1436,8080,5028,2112,-2087,-1612,35000,-2000,252000,803516,
-1368,8128,5124,1920,-1904,-1585,35000,-2000,252000,803518,
-1184,8232,5296,1834,-1787,-1504,35000,-2000,252000,803521,
-696,8516,6196,1457,-815,-1344,35000,-1000,252000,803533,
-640,8652,6232,1366,-636,-1374,35000,-1000,252000,803535,
-612,8756,6588,1344,-453,-1346,35000,-1000,252000,803538,
-556,9472,6980,1076,673,-1284,35000,-1000,252000,803550,
-568,9636,7108,989,834,-1263,35000,-1000,252000,803553,
-592,9672,7224,987,1113,-1245,35000,-1000,252000,803555,
-656,10284,7788,656,1972,-1314,35000,-1000,252000,803568,
-700,10484,7956,668,2045,-1268,35000,-1000,252000,803570,
-796,10552,8008,715,2174,-1261,36000,-1000,252000,803572,
-1244,11140,8468,173,2405,-1017,36000,-1000,252000,803585,
-1268,11172,8680,118,2323,-907,36000,-1000,252000,803587,
-1336,11164,8692,86,2343,-811,36000,0,252000,803589,
-1332,11008,9432,-302,1958,-341,36000,0,252000,803602,
-1288,10892,9624,-332,1805,-279,36000,0,252000,803604,
-1208,10788,9704,-301,1741,-238,36000,0,252000,803607,
-912,11072,10632,-223,1310,-228,36000,0,252000,803619,
-856,11080,10652,-224,1246,-251,36000,0,252000,803621,
-732,11084,10788,-183,1192,-253,36000,0,252000,803624,
-664,11104,10952,-205,1307,-291,36000,0,252000,803636,
-772,11156,11052,-184,1292,-253,36000,0,252000,803638,
-740,11224,10956,-150,1425,-256,36000,0,252000,803641,
-792,11128,10828,-152,1683,-188,36000,0,252000,803653,
-804,11136,10888,-197,1656,-182,36000,0,252000,803655,
-732,11096,11020,-146,1751,-167,36000,0,252000,803658,
-844,11004,11188,-133,1757,-118,36000,0,252000,803670,
-880,10932,11232,-95,1738,-94,36000,0,252000,803672,
-864,10984,11176,-72,1737,-78,36000,0,252000,803675,
-908,10948,11212,-109,1702,-78,36000,0,252000,803677,
-932,11164,11504,-64,1306,48,36000,0,252000,803689,
-996,11228,11512,-21,1299,95,36000,0,252000,803692,
-1044,11112,11580,-46,1136,109,36000,0,252000,803694,
-908,11236,11580,-93,751,232,36000,0,252000,803707,
-812,11228,11692,-113,758,244,36000,0,252000,803709,
-832,11132,11672,-168,679,273,36000,0,252000,803711,
-720,11124,11604,-135,724,297,36000,0,252000,803714,
-464,10820,11696,-159,756,391,36000,0,253000,803726,
-420,10864,11824,-70,741,380,36000,0,253000,803729,
-372,10844,11968,-110,735,376,36000,0,253000,803731,
-84,10960,11980,39,740,304,36000,0,253000,803743,
-168,10980,11824,20,754,273,36000,0,253000,803746,
-48,10992,11944,10,727,280,36000,0,253000,803748,
-208,10988,11764,36,801,264,36000,0,253000,803751,
-108,10932,11992,15,889,226,36000,0,253000,803763,
-112,10860,12068,98,881,235,36000,0,253000,803765,
-136,10820,12100,91,891,224,36000,0,253000,803768,
-180,10680,12020,84,835,193,36000,0,253000,803770,
-176,10796,11804,122,806,101,36000,0,253000,803782,
-324,10740,11904,100,760,101,36000,0,253000,803785,
-232,10764,11792,145,785,58,36000,0,253000,803787,
-248,10768,11664,106,715,67,36000,0,253000,803789,
-288,10740,11860,79,562,165,36000,0,253000,803802,
-308,10572,11908,59,536,152,36000,0,253000,803804,
-480,10648,11952,66,457,166,36000,0,253000,803806,
-352,10380,11856,93,386,161,36000,0,253000,803819,
-244,10332,11848,93,396,151,36000,0,253000,803821,
-228,10248,11896,109,330,145,36000,0,253000,803824,
-252,10200,11936,149,390,135,36000,0,253000,803826,
-168,10160,11900,230,460,93,36000,0,253000,803838,
-196,10168,11924,287,466,67,36000,0,253000,803841,
-228,10204,11784,274,517,58,36000,0,253000,803843,
-152,10224,11852,332,501,45,36000,0,253000,803845,
-220,10436,11892,558,644,-16,37000,0,253000,803858,
-332,10552,11776,500,589,13,37000,0,253000,803860,
-256,10656,11864,564,666,32,37000,0,253000,803862,
-236,10732,11892,574,608,102,37000,0,253000,803875,
-208,10736,11772,551,534,123,37000,0,253000,803877,
-140,10708,11848,588,580,119,37000,0,253000,803879,
-132,10640,11712,541,540,116,37000,0,253000,803882,
8,10544,11556,690,655,16,37000,0,253000,803894,
112,10652,11616,781,744,-60,37000,0,253000,803897,
-36,10716,11500,791,754,-46,37000,0,253000,803899,
16,10688,11552,865,808,-122,37000,0,253000,803901,
-272,11196,11268,889,835,-207,37000,1000,253000,803914,
-436,11288,11092,886,729,-176,37000,1000,253000,803916,
-408,11252,11040,869,760,-174,37000,1000,253000,803918,
-664,11592,10732,583,549,-43,37000,1000,253000,803931,
-684,11588,10784,528,461,-29,37000,1000,253000,803933,
-712,11696,10652,498,443,-10,37000,1000,253000,803935,
-1016,11752,10568,84,64,124,37000,1000,253000,803948,
-896,11696,10560,80,2,196,37000,1000,253000,803950,
-1096,11696,10524,-11,-25,199,37000,1000,253000,803953,
-1076,11848,10680,-80,-180,241,37000,1000,253000,803955,
-1168,11768,10552,-500,-655,592,37000,1000,253000,803968,
-1120,11804,10616,-648,-861,654,37000,1000,253000,803970,
