Ax,Ay,Az,Gx,Gy,Gz,Roll,Pitch,Yaw,Timestamp,Target
-6476,-14288,4736,41,332,133,-69000,23000,296000,632126,
-6488,-14320,4896,13,352,132,-69000,23000,296000,632138,
-6516,-14392,4756,9,326,110,-69000,23000,296000,632140,
-6556,-14364,4728,-5,318,112,-69000,23000,296000,632143,
-6504,-14348,4628,-16,322,96,-69000,23000,296000,632155,
-6544,-14396,4784,-12,340,75,-69000,23000,296000,632158,
-6472,-14428,4756,-15,350,65,-69000,23000,296000,632160,
-6456,-14516,4748,-27,347,24,-69000,23000,296000,632172,
-6508,-14616,4740,-29,382,42,-69000,23000,296000,632175,
-6412,-14540,4632,-20,359,9,-69000,23000,296000,632177,
-6376,-14400,4700,-9,362,22,-69000,23000,296000,632189,
-6400,-14308,4804,-26,382,51,-69000,23000,296000,632192,
-6392,-14288,4772,-9,401,32,-69000,23000,296000,632194,
-6272,-14348,4900,-37,424,49,-69000,23000,296000,632207,
-6368,-14424,4916,-41,434,40,-69000,23000,296000,632209,
-6484,-14296,4616,-34,437,60,-69000,23000,296000,632211,
0,0,0,0,0,0,-69000,23000,296000,632211,
1552,3688,18004,-550,-1643,1344,11000,-7000,3000,634736,
-6360,-14276,4816,-39,435,20,-69000,23000,296000,632243,
-6380,-14364,4596,-38,454,-25,-69000,23000,296000,632245,
-6412,-14440,4708,-46,457,-82,-69000,23000,296000,632258,
-6428,-14404,4732,-36,498,-92,-69000,23000,296000,632260,
-6520,-14348,4748,-21,478,-99,-69000,23000,296000,632262,
-6492,-14564,4820,-29,470,-167,-70000,23000,296000,632275,
-6588,-14416,4832,-40,442,-186,-70000,23000,296000,632277,
-6432,-14532,4656,-27,471,-217,-70000,23000,296000,632279,
-6432,-14408,4700,-28,425,-273,-70000,23000,296000,632292,
-6584,-14460,4852,-33,420,-290,-70000,23000,296000,632294,
-6440,-14512,4908,-36,406,-273,-70000,23000,296000,632296,
-6592,-14480,4824,-52,336,-302,-70000,23000,296000,632309,
-6496,-14528,4640,-46,337,-283,-70000,23000,296000,632311,
-6536,-14452,4752,-22,289,-310,-70000,23000,296000,632313,
-6460,-14484,4804,-60,221,-316,-70000,23000,296000,632326,
-6444,-14492,4824,-30,229,-277,-70000,23000,296000,632328,
-6480,-14468,4832,-20,225,-290,-70000,23000,296000,632330,
-6376,-14496,4852,-31,299,-268,-70000,23000,295000,632343,
-6384,-14376,4796,-31,335,-275,-70000,23000,295000,632345,
-6352,-14428,4756,-10,358,-247,-70000,23000,295000,632347,
-6560,-14548,4956,54,407,-260,-70000,23000,295000,632360,
-6548,-14344,5004,24,401,-250,-70000,23000,295000,632362,
-6564,-14448,4832,58,393,-280,-70000,23000,295000,632365,
-6596,-14408,4876,82,359,-283,-70000,23000,295000,632377,
-6472,-14436,4780,66,322,-265,-70000,23000,295000,632379,
-6544,-14360,4932,84,343,-256,-70000,23000,295000,632382,
-6508,-14476,4904,130,395,-274,-70000,23000,295000,632394,
-6544,-14396,5008,129,394,-285,-70000,23000,295000,632396,
-6472,-14464,4864,148,395,-294,-70000,23000,295000,632399,
-6596,-14480,4904,167,370,-276,-70000,23000,295000,632411,
-6548,-14480,4840,192,388,-325,-70000,23000,295000,632414,
-6644,-14544,4968,198,382,-279,-70000,23000,295000,632416,
-6640,-14564,4872,259,396,-301,-70000,23000,295000,632428,
-6544,-14696,4852,251,399,-282,-70000,23000,295000,632430,
-6480,-14644,4812,287,429,-286,-70000,23000,295000,632433,
-6452,-14604,4848,351,550,-225,-70000,23000,295000,632445,
-6616,-14516,4852,366,581,-214,-70000,23000,295000,632448,
-6528,-14512,4840,377,620,-228,-70000,23000,295000,632450,
-6552,-14408,4828,412,702,-151,-70000,23000,295000,632462,
-6492,-14476,4724,419,693,-149,-70000,23000,295000,632465,
-6536,-14484,4808,414,664,-105,-70000,23000,295000,632467,
-6592,-14404,4624,447,586,-69,-70000,23000,295000,632479,
-6616,-14528,4796,435,590,-85,-70000,23000,295000,632482,
-6596,-14416,4780,441,575,-90,-70000,23000,295000,632484,
-6648,-14348,4684,479,505,-80,-70000,23000,295000,632497,
-6528,-14408,4880,457,484,-62,-70000,23000,295000,632499,
-6592,-14352,4648,468,480,-69,-70000,23000,295000,632501,
-6532,-14432,4720,493,457,-93,-70000,23000,295000,632514,
-6460,-14504,4652,505,495,-107,-70000,23000,295000,632516,
-6424,-14420,4812,540,516,-79,-70000,23000,295000,632518,
-6448,-14368,4752,530,547,-136,-70000,23000,295000,632531,
-6388,-14360,4628,550,574,-117,-70000,23000,295000,632533,
-6468,-14364,4760,534,579,-142,-70000,23000,295000,632535,
-6420,-14284,4772,535,602,-186,-70000,23000,295000,632548,
-6456,-14276,4740,529,587,-179,-70000,23000,295000,632550,
-6572,-14296,4648,528,575,-169,-70000,23000,295000,632552,
-6444,-14272,4596,509,533,-188,-70000,23000,294000,632565,
-6444,-14312,4584,516,536,-186,-70000,23000,294000,632567,
-6472,-14376,4548,500,534,-198,-70000,23000,294000,632569,
-6528,-14356,4552,489,494,-206,-70000,23000,294000,632582,
-6524,-14324,4660,479,488,-192,-70000,23000,294000,632584,
-6508,-14328,4684,469,495,-228,-70000,23000,294000,632586,
-6428,-14452,4528,446,510,-181,-70000,23000,294000,632599,
-6516,-14448,4556,460,495,-197,-70000,23000,294000,632601,
-6456,-14452,4716,481,505,-179,-70000,23000,294000,632603,
-6400,-14520,4792,449,507,-187,-70000,23000,294000,632616,
-6604,-14592,4740,446,501,-177,-70000,23000,294000,632618,
-6564,-14572,4756,457,492,-196,-70000,23000,294000,632621,
-6436,-14480,4656,420,494,-191,-70000,23000,294000,632633,
-6508,-14472,4592,433,484,-204,-70000,23000,294000,632636,
-6484,-14460,4468,389,503,-197,-70000,23000,294000,632638,
-6496,-14420,4608,397,456,-218,-70000,23000,294000,632650,
-6432,-14344,4636,393,461,-226,-70000,23000,294000,632653,
-6468,-14368,4560,369,453,-210,-70000,23000,294000,632655,
-6372,-14444,4784,333,423,-256,-70000,23000,294000,632667,
-6392,-14340,4624,339,446,-271,-70000,23000,294000,632670,
-6388,-14420,4664,335,449,-274,-70000,23000,294000,632672,
-6372,-14412,4616,273,429,-326,-70000,23000,294000,632684,
-6428,-14492,4556,291,441,-309,-70000,23000,294000,632687,
-6468,-14336,4596,274,426,-329,-70000,23000,294000,632689,
-6308,-14364,4488,238,399,-360,-70000,23000,294000,632701,
-6484,-14420,4676,252,388,-354,-70000,23000,294000,632704,
-6296,-14344,4592,232,401,-365,-70000,23000,294000,632706,
-6360,-14352,4636,180,404,-390,-70000,23000,294000,632718,
-6408,-14264,4696,174,402,-408,-70000,23000,294000,632721,
-6368,-14332,4544,158,396,-430,-70000,23000,294000,632723,
-6464,-14176,4508,110,405,-412,-70000,23000,294000,632735,
-6380,-14348,4784,104,374,-431,-70000,23000,294000,632738,
-6476,-14304,4640,88,365,-438,-70000,23000,294000,632740,
-6496,-14264,4808,45,286,-481,-70000,23000,294000,632752,
-6568,-14316,4744,31,243,-471,-70000,23000,294000,632755,
-6464,-14272,4796,23,220,-472,-70000,23000,294000,632757,
-6516,-14336,4800,-29,43,-505,-70000,23000,294000,632769,
-6588,-14340,4772,-22,26,-495,-70000,23000,294000,632772,
-6500,-14344,4860,0,32,-502,-70000,23000,294000,632774,
-6436,-14280,4764,-34,4,-505,-70000,23000,294000,632786,
-6356,-14364,4824,-24,14,-502,-70000,23000,294000,632789,
-6408,-14448,4784,-5,41,-512,-70000,23000,294000,632791,
-6444,-14384,4852,35,90,-500,-70000,22000,293000,632803,
-6396,-14392,4860,50,81,-525,-70000,22000,293000,632806,
-6436,-14456,4856,55,112,-504,-70000,22000,293000,632808,
-6272,-14408,4896,96,248,-488,-70000,22000,293000,632821,
-6412,-14400,4928,103,258,-498,-70000,22000,293000,632823,
-6492,-14524,4856,135,242,-504,-70000,22000,293000,632825,
-6412,-14400,4812,134,252,-503,-70000,22000,293000,632838,
-6464,-14484,4996,159,250,-520,-70000,22000,293000,632840,
-6448,-14456,4796,173,248,-496,-70000,22000,293000,632842,
-6416,-14264,5004,166,267,-467,-70000,22000,293000,632855,
-6468,-14296,4844,184,248,-467,-70000,22000,293000,632857,
-6484,-14392,4924,182,295,-501,-70000,22000,293000,632859,
-6520,-14212,4820,179,256,-464,-70000,22000,293000,632872,
-6588,-14220,4900,183,231,-448,-70000,22000,293000,632874,
-6520,-14236,4908,147,262,-471,-70000,22000,293000,632876,
-6780,-14332,4960,166,161,-484,-70000,22000,293000,632889,
-6612,-14228,4912,171,139,-471,-70000,22000,293000,632891,
-6608,-14292,4868,157,120,-460,-70000,22000,293000,632893,
-6728,-14332,5060,191,50,-496,-70000,22000,293000,632906,
-6648,-14332,4932,179,5,-473,-70000,22000,293000,632908,
-6696,-14332,4956,182,2,-484,-70000,22000,293000,632910,
-6576,-14248,4912,161,16,-444,-70000,22000,293000,632923,
-6548,-14300,5016,179,-6,-436,-70000,22000,293000,632925,
-6664,-14244,4856,181,-10,-434,-70000,22000,293000,632927,
-6648,-14272,4864,153,-19,-418,-70000,22000,293000,632940,
-6604,-14264,4984,179,-11,-400,-70000,22000,293000,632942,
-6504,-14396,4908,191,-52,-400,-70000,22000,293000,632944,
-6688,-14364,4828,186,-15,-393,-70000,22000,293000,632957,
-6500,-14376,4776,188,-4,-365,-70000,22000,293000,632959,
-6604,-14336,4728,206,30,-358,-70000,22000,293000,632961,
-6592,-14360,4704,203,62,-336,-70000,22000,293000,632974,
-6648,-14264,4960,196,80,-332,-70000,22000,293000,632976,
-6656,-14332,4900,214,60,-315,-70000,22000,293000,632979,
-6620,-14452,4952,210,50,-294,-70000,22000,293000,632991,
-6788,-14496,4936,214,5,-258,-70000,22000,293000,632993,
-6684,-14356,4800,206,9,-270,-70000,22000,293000,632996,
-6780,-14488,4784,212,-32,-245,-70000,22000,293000,633008,
-6840,-14420,4968,215,-38,-224,-70000,22000,293000,633010,
-6680,-14436,5092,202,-34,-222,-70000,22000,293000,633013,
-6672,-14424,4876,224,-97,-118,-70000,22000,293000,633025,
-6796,-14404,4772,240,-97,-107,-70000,22000,293000,633028,
-6712,-14268,4756,244,-104,-99,-70000,22000,293000,633030,
-6668,-14316,4852,246,-129,-18,-70000,22000,293000,633042,
-6580,-14320,4716,262,-147,-5,-70000,22000,293000,633045,
-6564,-14412,4864,258,-140,12,-70000,22000,293000,633047,
-6492,-14152,4780,284,-116,88,-70000,22000,293000,633059,
-6488,-14280,4720,279,-124,100,-70000,22000,293000,633062,
-6536,-14268,4684,301,-123,110,-70000,22000,293000,633064,
-6664,-14432,4812,326,-53,149,-70000,22000,293000,633076,
-6520,-14272,4796,333,-63,160,-70000,22000,293000,633079,
-6532,-14352,4772,321,-39,156,-70000,22000,293000,633081,
-6664,-14388,4776,343,-15,196,-70000,22000,293000,633093,
-6584,-14328,4948,332,26,209,-70000,22000,293000,633096,
-6448,-14396,4760,351,-26,184,-70000,22000,293000,633098,
-6728,-14392,4864,336,-49,212,-70000,22000,293000,633111,
-6536,-14440,4704,330,-49,213,-70000,22000,293000,633113,
-6632,-14512,4656,340,-48,227,-70000,22000,293000,633115,
-6544,-14452,4528,319,-84,245,-70000,22000,293000,633128,
-6640,-14476,4724,321,-98,219,-70000,22000,293000,633130,
-6572,-14460,4648,327,-112,238,-70000,22000,293000,633132,
-6404,-14472,4844,307,-104,266,-70000,22000,293000,633145,
-6472,-14452,4740,336,-108,273,-70000,22000,293000,633147,
-6320,-14520,4816,324,-106,275,-69000,22000,293000,633149,
-6456,-14560,4792,325,-73,301,-69000,22000,293000,633162,
-6408,-14440,4736,317,-84,285,-69000,22000,293000,633164,
-6352,-14520,4660,335,-85,302,-69000,22000,293000,633166,
-6324,-14380,4844,297,-53,352,-69000,22000,293000,633179,
-6424,-14440,4588,312,-41,373,-69000,22000,293000,633181,
-6288,-14416,4700,303,-46,347,-69000,22000,293000,633183,
-6292,-14436,4628,270,-93,347,-69000,22000,293000,633196,
-6484,-14604,4664,276,-112,353,-69000,22000,293000,633198,
-6384,-14408,4620,253,-107,327,-69000,22000,293000,633200,
-6384,-14524,4760,247,-128,317,-69000,22000,293000,633213,
-6312,-14496,4744,249,-122,321,-69000,22000,293000,633215,
-6292,-14520,4704,246,-146,289,-69000,22000,293000,633217,
-6348,-14532,4588,226,-156,253,-69000,22000,293000,633230,
-6296,-14564,4772,241,-144,233,-69000,22000,293000,633232,
-6224,-14504,4836,223,-138,221,-69000,22000,293000,633235,
-6312,-14480,4796,249,-85,221,-69000,22000,293000,633247,
-6336,-14476,4812,245,-80,221,-69000,22000,293000,633250,
-6248,-14524,4816,233,-55,212,-69000,22000,293000,633252,
-6176,-14508,4768,230,-53,194,-69000,22000,293000,633264,
-6256,-14520,4652,224,-45,214,-69000,22000,293000,633267,
-6336,-14492,4532,217,-56,192,-69000,22000,293000,633269,
-6208,-14452,4960,188,-64,158,-69000,22000,293000,633281,
-6352,-14548,4992,188,-63,167,-69000,22000,293000,633284,
-6332,-14568,4744,202,-54,170,-69000,22000,293000,633286,
-6360,-14540,4976,203,-103,117,-69000,22000,293000,633298,
-6472,-14524,5076,194,-101,101,-69000,22000,293000,633301,
-6340,-14516,5048,202,-112,115,-69000,22000,293000,633303,
-6356,-14500,5120,261,-67,62,-69000,22000,293000,633315,
-6408,-14356,4936,269,-78,74,-69000,22000,293000,633318,
-6408,-14320,5176,270,-83,75,-69000,22000,293000,633320,
-6276,-14344,5096,317,-9,60,-69000,22000,293000,633332,
-6324,-14408,5092,318,-12,70,-69000,22000,293000,633335,
-6388,-14340,5052,335,14,83,-69000,22000,293000,633337,
-6304,-14388,5160,415,62,116,-69000,22000,293000,633350,
-6328,-14336,5204,431,73,130,-69000,22000,293000,633352,
-6348,-14372,5268,440,85,134,-69000,22000,293000,633354,
-6368,-14512,5096,518,175,176,-69000,22000,293000,633367,
-6468,-14556,5096,564,217,191,-69000,22000,293000,633369,
-6428,-14628,5160,557,208,206,-69000,22000,293000,633371,
-6384,-14536,5060,624,322,286,-69000,22000,293000,633384,
-6432,-14536,5140,639,338,290,-69000,22000,293000,633386,
-6460,-14676,5144,632,339,309,-69000,22000,293000,633388,
-6516,-14748,5188,620,370,379,-69000,22000,293000,633401,
-6380,-14648,5008,637,353,426,-69000,23000,293000,633403,
-6392,-14648,5128,609,327,402,-69000,23000,293000,633405,
-6504,-14832,5280,528,209,382,-69000,23000,293000,633418,
-6536,-14860,5044,504,203,363,-69000,23000,293000,633420,
-6564,-14880,5204,478,125,334,-69000,23000,293000,633422,
-6592,-14932,5332,375,-151,210,-69000,23000,293000,633435,
-6632,-14856,5380,354,-178,203,-69000,23000,293000,633437,
-6664,-14856,5568,317,-231,158,-69000,23000,293000,633439,
-6596,-14700,5408,243,-486,-3,-69000,23000,293000,633452,
-6580,-14692,5488,227,-525,-30,-69000,23000,293000,633454,
-6580,-14624,5492,206,-565,-37,-69000,23000,293000,633456,
-6684,-14188,5640,-58,-837,-125,-69000,23000,293000,633469,
-6664,-13960,5440,-141,-954,-120,-69000,23000,293000,633471,
-6776,-13944,5532,-216,-1043,-110,-69000,23000,293000,633474,
-7420,-13188,5896,-890,-2300,-86,-69000,22000,294000,633486,
-7588,-13164,6072,-1037,-2612,-56,-69000,22000,294000,633489,
-7928,-13004,6452,-1205,-2993,-8,-69000,22000,294000,633491,
-8868,-12144,6976,-2298,-5642,237,-69000,22000,294000,633503,
-9056,-11872,7448,-2545,-6206,325,-69000,22000,294000,633506,
-9228,-11848,7592,-2783,-6869,393,-69000,22000,295000,633508,
-10208,-11528,8460,-4185,-10968,911,-69000,22000,296000,633521,
-10584,-11612,8836,-4477,-11967,1019,-69000,22000,296000,633523,
-10740,-11532,9064,-4729,-12581,1077,-69000,22000,296000,633525,
-11936,-12004,10184,-5984,-17561,1539,-68000,22000,298000,633538,
-12100,-12208,10196,-6208,-18582,1652,-68000,22000,298000,633540,
-12248,-13196,10628,-6767,-23690,2066,-68000,21000,301000,633553,
-12156,-13444,10736,-6788,-24515,2111,-68000,21000,301000,633555,
-12024,-13660,10648,-6794,-25257,2145,-68000,21000,302000,633557,
-11008,-14644,11940,-6234,-28571,2461,-67000,20000,304000,633570,
-10732,-14860,12184,-6023,-28967,2530,-67000,20000,305000,633572,
-9400,-16044,12944,-4231,-29752,2886,-67000,19000,308000,633585,
-8996,-16176,12968,-3775,-29550,3022,-66000,19000,308000,633587,
-8676,-16296,13280,-3318,-29215,3074,-66000,19000,309000,633589,
-6548,-17096,13636,-537,-26139,3445,-65000,18000,312000,633602,
-6132,-17012,13688,-52,-25340,3515,-65000,18000,312000,633604,
-5748,-17104,13600,450,-24392,3585,-65000,18000,313000,633606,
-5344,-16692,13524,2952,-18942,4096,-64000,17000,314000,633619,
-5480,-16688,13484,3396,-17904,4251,-64000,17000,315000,633621,
-6180,-16252,13512,5524,-12836,5220,-63000,17000,316000,633634,
-6464,-16088,13700,5898,-11994,5446,-63000,17000,316000,633636,
-6660,-15936,13632,6234,-11242,5644,-63000,17000,317000,633638,
-7876,-15476,14216,7930,-9289,6686,-61000,17000,318000,633651,
-8220,-15296,14328,8168,-9112,6868,-61000,17000,318000,633653,
-460,-2152,11324,11475,-6167,5828,0,3000,358000,634144,
2032,3156,16356,-13,20,-189,11000,-7000,12000,635767,
1988,3232,16228,35,83,-234,11000,-7000,12000,635780,
2024,3252,16204,59,101,-223,11000,-7000,12000,635782,
1932,3268,16108,34,121,-211,11000,-7000,12000,635784,
1892,3392,16112,10,164,-211,11000,-7000,12000,635797,
1808,3464,16276,-9,141,-225,11000,-7000,12000,635799,
1976,3432,16200,-21,132,-209,11000,-7000,12000,635801,
1748,3384,16348,-58,55,-181,11000,-7000,12000,635814,
1684,3340,16496,-51,31,-185,11000,-7000,12000,635816,
1780,3328,16280,-64,19,-164,11000,-7000,12000,635818,
1832,3260,16440,-61,0,-161,11000,-7000,12000,635821,
2032,3224,16364,-16,26,-174,11000,-7000,12000,635833,
1960,3236,16304,-15,18,-161,11000,-7000,12000,635835,
1960,3156,16440,-25,29,-168,11000,-7000,12000,635837,
2056,3032,16200,17,101,-185,11000,-7000,12000,635850,
1980,3168,16412,-2,114,-191,11000,-7000,12000,635852,
2008,3272,16320,36,144,-187,11000,-7000,12000,635854,
1920,3208,16424,-41,131,-212,11000,-7000,12000,635867,
1776,3204,16236,-74,94,-210,11000,-7000,12000,635869,
1736,3296,16320,-78,89,-248,11000,-7000,12000,635871,
1748,3216,16132,-88,81,-210,11000,-7000,12000,635873,
1764,3128,16220,-112,-38,-234,11000,-7000,12000,635886,
1808,3340,16464,-132,-42,-232,11000,-7000,12000,635888,
1848,3236,16356,-133,-49,-241,11000,-7000,12000,635890,
1856,3252,16356,-175,-120,-264,11000,-7000,12000,635903,
1744,3296,16376,-203,-127,-225,11000,-7000,12000,635905,
1720,3236,16260,-187,-132,-257,11000,-7000,12000,635907,
1784,3160,16336,-242,-258,-309,11000,-7000,12000,635920,
1724,3176,16376,-234,-235,-301,11000,-7000,12000,635922,
1788,3164,16212,-228,-279,-351,11000,-7000,12000,635924,
1752,3180,16160,-225,-312,-382,11000,-7000,12000,635936,
1896,3260,16228,-221,-314,-410,11000,-7000,12000,635939,
1888,3280,16296,-225,-333,-411,11000,-7000,12000,635941,
1848,3484,16420,-235,-269,-398,11000,-7000,12000,635954,
1824,3360,16348,-252,-256,-438,11000,-7000,12000,635956,
1760,3512,16292,-270,-248,-436,11000,-7000,12000,635958,
1828,3416,16364,-320,-300,-449,11000,-7000,11000,635970,
1812,3308,16372,-307,-300,-428,11000,-7000,11000,635973,
1740,3204,16412,-318,-301,-421,11000,-7000,11000,635975,
1848,3356,16364,-326,-430,-537,11000,-7000,11000,635987,
1844,3360,16240,-332,-432,-522,11000,-7000,11000,635990,
1764,3260,16548,-322,-467,-532,11000,-7000,11000,635992,
1784,3336,16448,-335,-546,-564,11000,-7000,11000,636004,
1852,3336,16492,-324,-539,-593,11000,-7000,11000,636007,
1856,3292,16524,-336,-576,-581,11000,-7000,11000,636009,
1744,3256,16368,-324,-722,-626,11000,-7000,11000,636021,
1580,3308,16576,-350,-758,-621,11000,-7000,11000,636023,
1624,3288,16564,-328,-809,-611,11000,-7000,11000,636026,
1264,3292,16524,-339,-1367,-653,11000,-7000,11000,636038,
1216,3348,16500,-367,-1404,-661,11000,-7000,11000,636040,
1096,3168,16596,-342,-1550,-673,11000,-7000,11000,636042,
1276,3216,16544,-273,-2232,-678,11000,-8000,11000,636055,
1364,3368,16500,-284,-2366,-680,11000,-8000,11000,636057,
1416,3324,16732,-250,-2480,-696,11000,-8000,11000,636059,
1844,3376,16560,-244,-2858,-776,11000,-8000,11000,636072,
1928,3320,16524,-252,-2875,-788,11000,-8000,11000,636074,
2128,3376,16492,-242,-2865,-794,11000,-8000,11000,636076,
2308,3488,16392,-277,-2762,-804,11000,-8000,11000,636089,
2428,3292,16188,-275,-2717,-808,11000,-8000,11000,636091,
2332,3368,16336,-273,-2663,-791,11000,-8000,11000,636093,
2400,3272,16284,-236,-2295,-827,11000,-9000,10000,636106,
2560,3288,16244,-227,-2225,-847,11000,-9000,10000,636108,
2556,3192,16180,-209,-2131,-825,11000,-9000,10000,636110,
2872,3148,16380,-163,-1530,-855,11000,-9000,10000,636123,
2888,3188,16352,-129,-1415,-850,11000,-9000,10000,636125,
2868,3280,16148,-138,-1293,-835,11000,-9000,10000,636127,
3012,3300,16212,-124,-577,-900,11000,-9000,10000,636140,
3116,3308,16112,-122,-460,-933,11000,-9000,10000,636142,
2868,3264,16096,-109,-330,-923,11000,-9000,10000,636144,
3248,3052,16152,-53,453,-1012,11000,-9000,10000,636156,
3288,3076,16168,-25,587,-1051,11000,-9000,10000,636159,
3496,3136,15912,-16,741,-1075,11000,-9000,10000,636161,
3472,3132,15696,57,1840,-1228,11000,-9000,10000,636173,
3592,3048,15680,74,2021,-1245,11000,-9000,10000,636176,
3460,2932,15908,97,2214,-1275,11000,-8000,10000,636178,
4052,2768,15588,256,3866,-1536,11000,-8000,10000,636190,
4216,2856,15596,298,4255,-1565,11000,-8000,10000,636192,
4304,2880,15932,335,4688,-1568,11000,-8000,10000,636195,
5228,3272,15308,448,8070,-1650,11000,-7000,10000,636207,
5172,3292,15348,486,8722,-1666,11000,-7000,10000,636210,
5444,3276,15436,542,9538,-1661,11000,-7000,10000,636212,
6708,2784,15668,1059,14577,-1777,11000,-6000,10000,636224,
6748,2832,15788,1202,15598,-1798,11000,-5000,10000,636226,
6980,2820,15764,1297,16654,-1832,11000,-5000,10000,636229,
6612,2564,15728,2138,22817,-2040,11000,-3000,10000,636241,
6488,2524,15620,2306,24016,-2057,11000,-3000,10000,636244,
6388,2484,15672,2497,25122,-2082,11000,-2000,10000,636246,
4504,2032,15944,3872,30791,-2014,11000,0,11000,636258,
4540,2012,15692,4123,31760,-2056,12000,0,11000,636261,
4328,2028,15672,4365,32751,-2086,12000,1000,11000,636263,
2888,1736,14984,5867,32767,-2129,12000,4000,11000,636275,
2768,1716,14848,6141,32767,-2170,12000,4000,11000,636278,
2584,1604,15008,6441,32767,-2222,12000,5000,12000,636280,
1180,1052,14764,8018,32767,-2576,13000,8000,12000,636292,
1552,336,14228,8525,32767,-2741,13000,8000,12000,636295,
1188,640,13816,9069,32767,-2828,13000,9000,12000,636297,
-2544,2792,13324,9639,32767,-3576,14000,12000,13000,636309,
-3632,3116,13524,9623,32767,-3495,15000,13000,13000,636312,
-4060,3128,13336,9614,32767,-3252,15000,13000,13000,636314,
-4660,2684,10220,9958,32767,-3009,16000,16000,13000,636326,
-6352,3196,12212,10371,32767,-3082,16000,17000,14000,636329,
-6756,2996,11936,10365,32767,-3225,16000,17000,14000,636331,
-8760,3904,11592,10469,32767,-3469,18000,21000,14000,636343,
-9244,3824,11560,10415,32767,-3416,18000,21000,14000,636346,
-9664,3684,12340,10548,32767,-3326,18000,22000,15000,636348,
-10472,4288,11348,10122,32767,-3117,19000,25000,15000,636361,
-10728,4416,11156,10061,32767,-3095,20000,26000,16000,636363,
-10444,4364,10844,10070,32767,-3070,20000,26000,16000,636365,
-11308,4684,11548,9903,32767,-3020,21000,29000,17000,636378,
-11772,4984,9808,9581,32767,-3112,22000,30000,17000,636380,
-12220,5296,9636,9369,32767,-3150,22000,30000,17000,636382,
-14700,6128,9984,8236,30336,-2887,23000,33000,18000,636395,
-14664,6200,9904,8036,29531,-2819,24000,34000,18000,636398,
-14576,6028,9984,7821,28817,-2779,24000,35000,19000,636400,
-14776,5760,10256,7129,24504,-2750,25000,37000,20000,636413,
-14872,5688,10476,7024,23619,-2750,25000,37000,20000,636415,
-15056,5724,10540,6801,22779,-2790,26000,38000,20000,636417,
-14624,5336,11072,6318,18102,-2763,27000,39000,21000,636430,
-14216,5312,10788,6218,17280,-2799,27000,40000,21000,636432,
-14160,5288,10704,6108,16518,-2821,27000,40000,21000,636435,
-13548,5280,9460,5495,14311,-2595,28000,41000,21000,636447,
-13068,5168,9428,5400,14071,-2600,28000,42000,22000,636450,
-12704,4608,8412,5218,13814,-2651,28000,42000,22000,636452,
-13716,5564,7852,4371,13015,-2271,29000,43000,22000,636465,
-14040,5620,8268,4276,12772,-2155,29000,44000,22000,636467,
-14120,5804,7884,4085,12530,-2037,29000,44000,23000,636470,
-15376,5628,8444,3255,10581,-1574,30000,45000,23000,636482,
-15548,5592,8360,3156,9976,-1512,30000,45000,23000,636485,
-15668,5660,8248,2977,9381,-1474,30000,45000,23000,636487,
-16164,5560,8900,2251,6180,-1174,31000,46000,24000,636499,
-16140,5492,8736,2132,5464,-1171,31000,46000,24000,636502,
-16120,5632,8764,2023,4817,-1122,31000,46000,24000,636504,
-16112,5412,8284,1374,1768,-773,31000,46000,24000,636517,
-15932,5456,8160,1263,1268,-717,31000,46000,24000,636519,
-15788,5428,8040,1153,848,-680,31000,46000,24000,636521,
-15232,5284,7876,541,-1091,-318,31000,46000,24000,636534,
-15084,5336,7684,371,-1362,-269,31000,46000,24000,636536,
-15004,5320,7700,281,-1625,-208,31000,46000,24000,636539,
-14660,5488,7472,-376,-2974,-30,31000,46000,23000,636551,
-14780,5496,7276,-507,-3175,17,31000,46000,23000,636554,
-14876,5628,7612,-655,-3372,45,31000,46000,23000,636556,
-15572,5760,7032,-1552,-4837,469,31000,46000,23000,636569,
-15672,5788,7080,-1709,-5174,559,31000,46000,23000,636571,
-15872,5736,7156,-1901,-5524,642,30000,46000,23000,636573,
-16444,6084,6768,-3023,-8061,1151,30000,45000,23000,636586,
-16688,6240,6608,-3288,-8624,1259,30000,45000,22000,636588,
-16732,6344,6700,-3524,-9263,1359,30000,45000,22000,636591,
-16740,6544,7420,-4778,-13172,1639,29000,44000,22000,636603,
-16608,6512,7340,-5037,-14083,1661,29000,43000,22000,636606,
-16784,6648,7240,-5316,-15006,1702,28000,43000,21000,636608,
-16768,7076,7144,-7076,-20306,2074,27000,41000,20000,636621,
-16760,7156,7140,-7456,-21393,2182,27000,41000,20000,636623,
-16696,7140,7224,-7883,-22480,2224,27000,41000,20000,636626,
-16728,7024,8652,-10079,-29086,2121,25000,38000,19000,636638,
-16140,6956,7900,-10501,-30516,2068,24000,38000,18000,636641,
-16364,6712,8304,-10834,-32002,2015,24000,37000,18000,636643,
-16512,5896,10244,-12531,-32768,1366,22000,34000,17000,636656,
-16600,5788,10624,-12777,-32768,1201,22000,34000,17000,636658,
-16856,5468,11036,-13005,-32768,990,21000,33000,16000,636660,
-18160,5200,11876,-14267,-32768,97,19000,30000,15000,636673,
-18260,5336,11976,-14599,-32768,-70,19000,30000,15000,636675,
-18600,4996,11636,-14846,-32768,-188,18000,29000,15000,636678,
-16288,3264,9344,-15500,-32768,-314,16000,27000,13000,636690,
-15436,2808,9580,-15442,-32768,-194,16000,26000,13000,636693,
-14192,2628,9256,-15247,-32768,-190,16000,25000,13000,636695,
-3676,940,8256,-13056,-32768,-1674,14000,22000,12000,636708,
-2692,608,8228,-12497,-32768,-1948,14000,22000,12000,636710,
-1496,464,8640,-11948,-32768,-2154,13000,21000,12000,636712,
4580,-300,11120,-7576,-32768,-3305,12000,18000,10000,636725,
5332,-64,11304,-6934,-32768,-3340,12000,18000,10000,636727,
10940,-228,14040,-2826,-32768,-1551,11000,14000,9000,636739,
11520,1372,13288,-1312,-32768,-1324,11000,14000,9000,636742,
13096,2120,12880,-1022,-32768,-1250,11000,13000,9000,636744,
19028,5100,13024,-2425,-20441,1582,11000,11000,9000,636757,
19268,4652,13664,-2376,-16327,1890,11000,10000,9000,636759,
19264,4196,13816,-2259,-12528,1951,11000,10000,9000,636761,
12132,2532,15196,-777,4383,1261,11000,10000,9000,636774,
10704,2772,15432,-691,6253,1324,11000,10000,9000,636776,
9232,2672,15672,-633,7708,1382,11000,10000,9000,636778,
1540,2772,16688,-659,11061,1403,11000,11000,9000,636791,
484,2952,16888,-634,10857,1380,11000,11000,9000,636793,
-572,2952,16980,-571,10398,1349,11000,12000,10000,636795,
-4960,2364,18072,-365,5241,871,11000,12000,10000,636808,
-5428,2352,18064,-335,3934,784,11000,12000,10000,636810,
-5628,2364,18212,-330,2580,682,11000,12000,10000,636812,
-5436,2752,17976,-425,-4678,518,11000,12000,10000,636825,
-5076,2732,17876,-452,-5822,503,11000,12000,10000,636827,
-4740,2772,17672,-469,-6850,506,11000,12000,10000,636829,
-1892,2760,17228,-592,-10986,488,11000,10000,10000,636841,
-1236,2700,17120,-599,-11264,464,11000,10000,10000,636844,
-816,2752,17188,-632,-11698,486,11000,10000,9000,636846,
2256,2744,16760,-608,-11462,587,11000,9000,9000,636859,
2472,2832,16564,-615,-11323,604,11000,9000,9000,636861,
2912,2836,16520,-604,-10797,651,10000,8000,9000,636863,
4160,2620,16496,-523,-8031,803,10000,8000,9000,636875,
4248,2636,16528,-474,-7441,811,10000,7000,9000,636878,
4432,2588,16492,-444,-6903,800,10000,7000,9000,636880,
4324,2396,16312,-161,-4032,718,10000,7000,9000,636892,
4156,2384,16320,-59,-3558,677,10000,7000,9000,636895,
4136,2356,16436,0,-3101,631,10000,7000,9000,636897,
4076,2284,16272,90,-2727,575,10000,6000,9000,636899,
3424,2364,16112,390,-813,357,10000,6000,9000,636912,
3264,2324,15972,434,-539,276,10000,6000,9000,636914,
3248,2284,15884,472,-249,233,10000,6000,9000,636916,
2548,2584,15880,607,909,23,10000,6000,9000,636929,
2428,2816,15740,603,1051,2,10000,6000,9000,636931,
2316,2824,15804,621,1175,-14,10000,6000,9000,636933,
2176,2872,15720,616,1247,-37,10000,6000,9000,636935,
1128,3036,15740,563,1195,-30,11000,6000,9000,636948,
856,2940,15884,511,1068,0,11000,6000,9000,636950,
820,2948,16028,495,937,19,11000,6000,9000,636952,
512,2668,16136,443,-108,40,11000,6000,9000,636965,
512,2696,15920,419,-319,55,11000,6000,9000,636967,
496,2748,15880,395,-486,68,11000,6000,9000,636969,
600,2736,16020,378,-652,65,11000,6000,9000,636971,
1140,2900,16028,263,-1313,158,11000,6000,9000,636984,
1220,2924,15900,213,-1420,189,11000,6000,9000,636986,
1232,3020,16020,190,-1452,221,11000,6000,9000,636988,
1872,3012,16184,12,-1546,350,11000,6000,9000,637001,
1836,2896,16220,6,-1521,348,11000,6000,9000,637003,
1932,2872,16160,24,-1486,380,11000,6000,9000,637005,
2072,2844,16208,18,-1443,403,11000,6000,9000,637007,
2204,2500,15996,89,-963,445,11000,5000,9000,637020,
2272,2556,16032,102,-872,459,11000,5000,9000,637022,
2168,2456,16048,128,-751,452,11000,5000,9000,637024,
2212,2656,15904,187,-121,478,11000,5000,9000,637037,
2136,2820,15888,182,-28,478,11000,5000,9000,637039,
2084,2832,15780,196,81,478,11000,5000,9000,637041,
2168,2832,15792,177,146,489,11000,5000,9000,637043,
1756,3140,15836,32,295,456,11000,5000,9000,637056,
1664,3168,15892,20,272,458,11000,5000,9000,637058,
1552,3064,15920,-20,273,454,11000,5000,9000,637060,
1284,3004,16256,-157,-260,476,11000,5000,9000,637073,
1332,2988,16368,-171,-370,477,11000,5000,9000,637075,
1228,2816,16536,-177,-509,481,11000,5000,9000,637077,
1408,2896,16372,-196,-624,469,11000,5000,9000,637080,
1548,2684,16464,-134,-1019,539,11000,5000,9000,637092,
1700,2772,16396,-122,-1041,549,11000,5000,9000,637094,
1832,2688,16308,-132,-1002,543,11000,5000,9000,637097,
2020,2716,16372,-101,-810,640,11000,5000,10000,637109,
2080,2736,16248,-95,-735,666,11000,4000,10000,637111,
2012,2724,16224,-95,-704,673,11000,4000,10000,637113,
2020,2696,16164,-85,-411,758,11000,4000,10000,637126,
2140,2700,16192,-93,-356,731,11000,4000,10000,637128,
2064,2664,16052,-70,-299,767,11000,4000,10000,637130,
2048,2740,16272,-74,-289,753,11000,4000,10000,637132,
2056,2748,16228,-60,-193,734,11000,4000,10000,637145,
2064,2672,16204,-60,-187,727,11000,4000,10000,637147,
1992,2576,16248,-36,-204,707,11000,4000,10000,637150,
2008,2956,16352,-57,-302,616,11000,4000,10000,637162,
2008,2980,16304,-71,-354,601,11000,4000,10000,637164,
1940,2996,16328,-64,-376,614,11000,4000,10000,637167,
1956,3048,16532,-91,-586,615,11000,4000,10000,637179,
1892,3044,16504,-134,-599,592,11000,4000,10000,637181,
2040,3076,16428,-119,-629,584,11000,4000,10000,637183,
2216,2936,16332,-106,-631,563,10000,4000,10000,637196,
2408,2896,16496,-106,-633,581,10000,4000,10000,637198,
2348,2936,16572,-111,-601,588,10000,4000,10000,637200,
2384,2824,16508,-55,-394,517,10000,3000,10000,637213,
2388,2884,16412,-45,-367,497,10000,3000,10000,637215,
2356,2920,16424,-44,-282,502,10000,3000,10000,637217,
2348,2924,16548,-47,-231,502,10000,3000,10000,637219,
2368,2844,16444,-9,25,499,10000,3000,10000,637232,
2268,2808,16420,44,52,459,10000,3000,10000,637234,
2488,2776,16608,50,93,475,10000,3000,10000,637236,
2092,2856,16372,101,154,474,10000,3000,10000,637249,
2100,2880,16384,74,169,515,10000,3000,10000,637251,
2012,2896,16428,75,141,498,10000,3000,10000,637253,
2048,2764,16440,85,101,504,10000,3000,10000,637256,
1856,2744,16444,50,-148,518,10000,3000,10000,637268,
2036,2648,16472,52,-197,533,10000,3000,10000,637270,
1980,2704,16516,62,-247,526,10000,3000,10000,637272,
2120,2504,16528,81,-340,519,10000,3000,10000,637285,
2068,2436,16616,86,-338,518,10000,3000,10000,637287,
2092,2536,16588,103,-319,502,10000,3000,10000,637289,
2156,2564,16620,130,-293,507,10000,3000,10000,637292,
2348,2456,16428,160,-108,471,10000,3000,10000,637304,
2244,2584,16452,177,-22,464,10000,3000,10000,637306,
2220,2556,16444,173,18,476,10000,3000,10000,637309,
2416,2708,16500,171,228,471,10000,3000,10000,637321,
2328,2740,16532,165,263,455,10000,3000,10000,637323,
2196,2744,16440,176,266,457,10000,3000,10000,637325,
2204,2704,16668,154,315,445,10000,3000,10000,637328,
2112,2716,16420,146,282,427,10000,3000,10000,637340,
2064,2584,16412,158,292,413,10000,3000,10000,637342,
2108,2556,16508,135,276,421,10000,3000,10000,637345,
2212,2576,16380,204,271,379,11000,3000,10000,637357,
2168,2484,16260,230,273,368,11000,3000,10000,637359,
2216,2592,16160,237,331,370,11000,3000,10000,637362,
