Ax,Ay,Az,Gx,Gy,Gz,Roll,Pitch,Yaw,Timestamp,Target
1008,-2364,16720,-228,-272,1631,-5000,0,187000,74460,
752,-2404,16700,-196,-215,1666,-5000,0,187000,74463,
860,-2568,16744,-45,-93,1783,-5000,0,187000,74475,
724,-2696,16640,9,-44,1817,-5000,0,187000,74477,
928,-2656,16536,52,-8,1848,-5000,0,187000,74479,
792,-2616,16788,73,37,1864,-5000,0,187000,74482,
768,-2564,16392,309,315,1901,-5000,0,187000,74494,
848,-2608,16468,339,354,1917,-5000,0,187000,74496,
860,-2520,16420,352,401,1883,-5000,0,187000,74499,
932,-2460,16368,390,412,1902,-5000,0,188000,74501,
872,-2128,16200,439,611,1875,-5000,0,188000,74513,
824,-2140,16324,412,625,1853,-5000,0,188000,74516,
780,-2052,16404,416,561,1840,-5000,0,188000,74518,
752,-1952,16548,384,557,1824,-5000,0,188000,74520,
696,-1976,16644,331,531,1641,-5000,0,188000,74533,
720,-1960,16488,290,543,1573,-5000,0,188000,74535,
788,-1904,16672,319,551,1573,-5000,0,188000,74537,
968,-1676,16696,304,808,1387,-5000,0,188000,74550,
968,-1676,16684,248,979,1263,-5000,0,188000,74557,
940,-1576,16588,232,989,1207,-5000,0,188000,74560,
852,-1656,16652,234,1018,1159,-5000,0,188000,74562,
924,-1604,16704,205,1044,1133,-5000,0,188000,74564,
624,-1476,16608,156,1063,846,-5000,0,188000,74577,
668,-1532,16580,128,1048,835,-5000,0,188000,74579,
588,-1500,16524,104,1039,774,-5000,0,188000,74581,
492,-1520,16536,65,985,734,-5000,0,188000,74584,
556,-1488,16804,-116,767,498,-5000,0,188000,74596,
600,-1508,16588,-155,725,473,-5000,0,188000,74598,
464,-1528,16820,-186,709,416,-5000,0,188000,74601,
468,-1508,17004,-202,675,393,-5000,0,188000,74603,
388,-1624,16636,-331,527,227,-5000,0,188000,74616,
436,-1660,16720,-326,536,220,-5000,0,188000,74618,
504,-1724,16792,-357,476,186,-5000,0,188000,74620,
332,-1844,16736,-457,325,66,-5000,0,188000,74633,
436,-1868,16684,-460,311,61,-5000,0,188000,74635,
392,-1936,16764,-480,245,31,-5000,0,188000,74637,
268,-2016,16768,-497,181,3,-5000,0,188000,74639,
340,-2140,17088,-572,-53,-71,-5000,0,188000,74652,
320,-2040,17096,-571,-93,-94,-5000,0,188000,74654,
340,-2220,16976,-554,-148,-96,-5000,0,188000,74657,
404,-2344,17076,-563,-143,-139,-5000,0,188000,74659,
424,-2508,16808,-454,-103,-84,-5000,0,188000,74672,
540,-2464,16952,-391,-65,-53,-5000,0,188000,74674,
528,-2524,16716,-381,-7,-54,-6000,0,188000,74676,
628,-2488,16868,-359,26,-29,-6000,0,188000,74678,
784,-2400,16596,-200,382,94,-6000,0,188000,74691,
708,-2360,16512,-183,410,117,-6000,0,188000,74693,
640,-2360,16472,-192,483,127,-6000,0,188000,74696,
612,-2292,16512,-161,533,153,-6000,0,188000,74698,
352,-2272,16604,-146,697,194,-6000,0,188000,74711,
356,-2340,16616,-151,700,189,-6000,0,188000,74713,
256,-2280,16712,-174,714,187,-6000,0,188000,74715,
120,-2256,16828,-195,688,144,-6000,0,188000,74728,
104,-2340,16748,-190,668,119,-6000,0,188000,74730,
136,-2432,16904,-184,651,120,-6000,0,188000,74732,
124,-2292,16620,-207,674,103,-6000,0,188000,74735,
36,-2196,16604,-226,564,78,-6000,0,188000,74747,
-52,-2324,16540,-253,518,75,-6000,0,188000,74749,
-124,-2268,16680,-256,479,103,-6000,0,188000,74752,
-48,-2228,16424,-243,448,82,-6000,0,188000,74754,
-28,-2236,16500,-341,133,44,-6000,0,188000,74767,
56,-2228,16508,-341,56,23,-6000,0,188000,74769,
20,-2260,16644,-353,53,38,-6000,0,188000,74771,
24,-2300,16684,-382,30,15,-6000,0,188000,74773,
240,-2440,16672,-374,39,16,-6000,0,188000,74786,
356,-2388,16520,-378,49,14,-6000,0,188000,74788,
324,-2576,16444,-370,89,28,-6000,0,188000,74791,
296,-2424,16328,-349,116,15,-6000,0,188000,74793,
392,-2404,16524,-348,286,61,-6000,0,188000,74805,
328,-2408,16480,-350,320,107,-6000,0,188000,74808,
196,-2432,16680,-372,332,108,-6000,0,188000,74810,
292,-2504,16572,-316,333,122,-6000,0,188000,74812,
180,-2432,16592,-368,221,165,-6000,0,188000,74825,
48,-2392,16552,-372,220,169,-6000,0,188000,74827,
-108,-2380,16696,-420,139,163,-6000,0,188000,74829,
8,-2372,16604,-407,113,155,-6000,0,188000,74832,
48,-2376,16584,-482,-69,92,-6000,0,188000,74844,
52,-2400,16648,-480,-104,59,-6000,0,188000,74846,
180,-2500,16596,-507,-131,58,-6000,0,188000,74849,
68,-2508,16652,-531,-162,57,-6000,0,188000,74851,
188,-2764,16764,-511,-201,25,-6000,0,188000,74863,
176,-2584,16548,-508,-193,-1,-6000,0,188000,74866,
196,-2636,16684,-489,-186,18,-6000,0,188000,74868,
264,-2636,16660,-510,-174,20,-6000,0,188000,74870,
348,-2520,16612,-475,-98,98,-6000,0,189000,74883,
412,-2544,16572,-425,-119,76,-6000,0,189000,74885,
312,-2564,16548,-430,-117,122,-6000,0,189000,74888,
300,-2612,16412,-421,-109,121,-6000,0,189000,74890,
388,-2516,16596,-397,-137,190,-6000,0,189000,74902,
324,-2592,16516,-398,-130,219,-6000,0,189000,74905,
424,-2472,16432,-401,-151,219,-6000,0,189000,74907,
292,-2560,16508,-409,-125,221,-6000,0,189000,74920,
396,-2552,16600,-432,-124,190,-6000,0,189000,74922,
396,-2564,16612,-426,-127,204,-6000,0,189000,74924,
284,-2504,16528,-435,-114,217,-6000,0,189000,74926,
352,-2444,16940,-477,-129,139,-6000,0,189000,74939,
344,-2508,16748,-492,-148,124,-6000,0,189000,74941,
404,-2512,16764,-509,-134,140,-6000,0,189000,74944,
316,-2480,16792,-483,-161,112,-6000,0,189000,74946,
272,-2484,16736,-491,-265,-1,-7000,0,189000,74958,
428,-2468,16660,-459,-273,5,-7000,0,189000,74961,
460,-2596,16824,-474,-293,-19,-7000,0,189000,74963,
524,-2464,16608,-434,-346,-75,-7000,0,189000,74975,
584,-2528,16796,-431,-325,-102,-7000,0,189000,74978,
580,-2444,16688,-403,-338,-110,-7000,0,189000,74980,
652,-2432,16776,-410,-326,-122,-7000,0,189000,74982,
636,-2500,16864,-276,-249,-185,-7000,0,189000,74995,
668,-2480,16920,-303,-193,-210,-7000,0,189000,74997,
728,-2556,16752,-292,-183,-207,-7000,0,189000,75000,
652,-2456,16768,-204,80,-258,-7000,0,189000,75012,
700,-2456,16832,-190,136,-260,-7000,0,189000,75014,
660,-2532,16888,-170,162,-255,-7000,0,189000,75017,
592,-2672,16800,-163,234,-267,-7000,0,189000,75019,
488,-2448,16672,-132,351,-278,-7000,0,188000,75031,
360,-2420,16848,-123,383,-296,-7000,0,188000,75034,
308,-2608,16804,-140,339,-311,-7000,0,188000,75036,
168,-2380,16748,-155,348,-300,-7000,0,188000,75038,
152,-2380,16748,-212,206,-383,-7000,0,188000,75051,
72,-2400,16704,-239,167,-393,-7000,0,188000,75053,
180,-2276,16848,-251,114,-385,-7000,0,188000,75056,
40,-2524,16792,-285,-86,-421,-7000,0,188000,75068,
4,-2500,16820,-315,-115,-450,-7000,0,188000,75070,
48,-2468,16972,-296,-144,-449,-7000,0,188000,75073,
108,-2552,16704,-286,-178,-449,-7000,0,188000,75075,
224,-2512,16792,-253,-178,-413,-7000,0,188000,75088,
116,-2452,16672,-254,-171,-404,-7000,0,188000,75090,
176,-2448,16572,-223,-153,-418,-7000,0,188000,75092,
148,-2388,16528,-210,-105,-416,-7000,0,188000,75105,
100,-2400,16692,-214,-91,-417,-7000,0,188000,75107,
104,-2388,16616,-215,-68,-419,-7000,0,188000,75109,
112,-2372,16728,-218,-16,-416,-7000,0,188000,75111,
100,-2548,16732,-158,88,-374,-7000,0,188000,75124,
48,-2764,16904,-142,119,-378,-7000,0,188000,75126,
-28,-2664,16924,-142,140,-351,-7000,0,188000,75129,
-112,-2584,16688,-113,127,-350,-7000,0,188000,75131,
-180,-2580,16596,-108,165,-322,-7000,0,188000,75144,
-128,-2580,16640,-88,171,-298,-7000,0,188000,75146,
-96,-2608,16632,-79,163,-312,-7000,0,188000,75148,
-212,-2600,16604,-75,6,-250,-7000,0,188000,75161,
-232,-2712,16744,-85,9,-229,-7000,0,188000,75163,
-252,-2640,16440,-80,-33,-238,-7000,0,188000,75165,
-148,-2652,16680,-86,-50,-210,-7000,0,188000,75168,
-132,-2712,16808,-54,-104,-164,-7000,0,188000,75180,
-16,-2780,16812,-39,-123,-135,-7000,0,188000,75182,
-20,-2752,16824,-35,-110,-132,-7000,0,188000,75185,
100,-2692,16672,-11,-106,-133,-7000,0,188000,75187,
4,-2632,16688,26,-15,-58,-7000,0,188000,75200,
-16,-2736,16708,49,15,-9,-7000,0,188000,75202,
4,-2672,16744,68,22,18,-7000,0,188000,75204,
48,-2664,16928,69,24,32,-7000,0,188000,75206,
108,-2616,16656,134,26,116,-7000,0,188000,75219,
48,-2604,16664,123,4,101,-7000,0,188000,75221,
36,-2528,16724,144,-18,135,-7000,0,188000,75224,
72,-2476,16924,136,-19,124,-7000,0,188000,75226,
36,-2632,16720,172,-100,148,-7000,0,188000,75239,
112,-2624,16732,183,-81,123,-7000,0,188000,75241,
16,-2648,16764,189,-102,153,-7000,0,188000,75243,
168,-2684,16656,196,-76,154,-7000,0,188000,75245,
140,-2788,16852,258,-20,120,-7000,0,188000,75258,
128,-2656,16796,284,8,116,-7000,0,188000,75260,
148,-2612,16604,269,46,105,-7000,0,188000,75262,
176,-2684,16872,299,57,131,-7000,0,188000,75265,
176,-2516,16620,305,150,128,-7000,0,188000,75277,
172,-2492,16704,343,142,125,-7000,0,188000,75280,
216,-2656,16744,341,141,136,-7000,0,188000,75282,
116,-2540,16752,337,160,170,-7000,0,188000,75284,
184,-2532,16692,316,121,179,-7000,0,188000,75297,
108,-2512,16608,302,83,190,-7000,0,188000,75299,
72,-2476,16768,279,69,203,-7000,0,188000,75301,
80,-2416,16544,274,33,194,-7000,0,188000,75304,
-12,-2612,16688,218,-175,163,-7000,0,188000,75316,
36,-2572,16736,205,-214,158,-7000,0,188000,75318,
116,-2520,16740,175,-243,128,-7000,0,188000,75321,
132,-2492,16580,170,-278,141,-7000,0,188000,75323,
248,-2612,16784,158,-356,111,-7000,0,188000,75336,
232,-2616,16732,163,-362,104,-7000,0,188000,75338,
316,-2752,16668,162,-376,120,-7000,0,188000,75340,
320,-2576,16604,177,-343,80,-7000,0,188000,75343,
340,-2668,16780,146,-313,101,-7000,0,188000,75355,
428,-2652,16704,180,-287,78,-7000,0,188000,75357,
404,-2536,16792,181,-286,97,-7000,0,188000,75360,
560,-2588,16580,192,-279,100,-7000,0,188000,75362,
384,-2680,16560,238,-203,118,-7000,0,188000,75375,
484,-2676,16624,268,-184,119,-7000,0,188000,75377,
480,-2708,16588,240,-147,120,-7000,0,188000,75379,
420,-2644,16764,270,-137,124,-7000,0,188000,75381,
388,-2604,16696,303,-36,80,-7000,0,188000,75394,
408,-2628,16740,290,-53,57,-7000,0,188000,75396,
280,-2648,16624,329,-6,73,-7000,0,188000,75398,
264,-2628,16608,338,-26,55,-7000,0,188000,75401,
368,-2640,16612,363,-23,-27,-7000,0,188000,75413,
224,-2740,16712,352,-13,-11,-7000,0,188000,75415,
156,-2868,16648,370,25,0,-7000,0,188000,75418,
144,-2692,16672,364,19,-16,-7000,0,188000,75420,
216,-2644,16548,385,17,3,-7000,0,188000,75432,
288,-2644,16584,368,3,38,-7000,0,188000,75435,
228,-2552,16620,361,-18,45,-7000,0,188000,75437,
292,-2572,16332,371,-32,53,-7000,0,188000,75439,
176,-2524,16504,289,-117,83,-7000,0,188000,75452,
140,-2492,16524,311,-139,90,-7000,0,188000,75454,
168,-2616,16664,290,-155,95,-7000,0,188000,75456,
112,-2612,16508,257,-168,100,-7000,0,188000,75459,
260,-2604,16500,215,-218,109,-7000,0,188000,75471,
144,-2632,16548,208,-202,97,-7000,0,188000,75473,
184,-2596,16604,184,-191,76,-7000,0,188000,75476,
152,-2604,16604,192,-208,96,-7000,0,188000,75478,
128,-2592,16544,129,-219,52,-7000,0,188000,75491,
164,-2656,16608,131,-235,46,-7000,0,188000,75493,
212,-2588,16596,133,-224,39,-7000,0,188000,75495,
128,-2592,16548,117,-245,41,-7000,0,188000,75497,
372,-2648,16468,176,-250,31,-7000,0,188000,75510,
356,-2700,16500,169,-274,39,-7000,0,188000,75512,
192,-2564,16596,201,-253,45,-7000,0,188000,75514,
308,-2604,16628,244,-241,21,-7000,0,188000,75517,
384,-2720,16448,270,-208,84,-7000,0,188000,75529,
420,-2576,16360,291,-166,95,-7000,0,188000,75532,
420,-2656,16448,292,-159,112,-7000,0,188000,75534,
344,-2624,16332,297,-161,101,-7000,0,188000,75536,
424,-2696,16408,355,-68,188,-7000,0,188000,75549,
300,-2616,16452,347,-10,189,-7000,0,188000,75551,
440,-2652,16556,324,-2,213,-7000,0,188000,75553,
388,-2632,16492,360,33,213,-7000,0,188000,75556,
288,-2608,16496,315,113,280,-7000,0,188000,75568,
220,-2576,16328,313,124,280,-7000,0,188000,75570,
208,-2524,16508,289,112,280,-7000,0,188000,75573,
308,-2528,16460,289,83,277,-7000,0,188000,75575,
248,-2508,16408,227,-37,246,-7000,0,188000,75588,
108,-2692,16268,203,-35,266,-7000,0,188000,75590,
112,-2652,16368,208,-88,238,-7000,0,188000,75592,
140,-2660,16368,187,-109,218,-7000,0,188000,75595,
128,-2552,16300,135,-175,171,-7000,0,188000,75607,
356,-2508,16372,119,-207,166,-7000,0,188000,75609,
232,-2508,16400,94,-182,177,-7000,0,188000,75612,
280,-2472,16460,97,-219,120,-7000,0,189000,75614,
388,-2508,16516,72,-174,69,-7000,0,189000,75626,
388,-2392,16616,55,-136,84,-7000,0,189000,75629,
512,-2492,16440,67,-144,56,-7000,0,189000,75631,
292,-2544,16504,65,-106,59,-7000,0,189000,75633,
420,-2492,16460,57,12,81,-7000,0,189000,75646,
408,-2656,16616,65,10,74,-7000,0,189000,75648,
500,-2560,16644,54,37,63,-7000,0,189000,75650,
448,-2604,16552,83,51,94,-7000,0,189000,75653,
344,-2592,16456,76,42,82,-7000,0,189000,75665,
352,-2556,16404,74,27,71,-7000,0,189000,75668,
292,-2644,16404,79,11,58,-7000,0,189000,75670,
372,-2668,16416,80,-11,97,-7000,0,189000,75672,
368,-2544,16460,72,-44,85,-7000,0,189000,75685,
400,-2708,16500,74,-43,90,-7000,0,189000,75687,
344,-2624,16568,50,-31,109,-7000,0,189000,75689,
396,-2572,16472,85,-58,84,-7000,0,189000,75691,
400,-2624,16632,61,-56,81,-7000,0,189000,75704,
380,-2564,16696,40,-43,102,-7000,0,189000,75706,
404,-2520,16604,11,-43,77,-7000,0,189000,75708,
432,-2572,16484,20,-48,75,-7000,0,189000,75711,
420,-2688,16628,26,-75,59,-7000,0,189000,75723,
480,-2472,16596,27,-77,46,-7000,0,189000,75725,
476,-2612,16648,29,-95,54,-7000,0,189000,75728,
452,-2552,16536,23,-67,59,-7000,0,189000,75730,
432,-2624,16528,0,-121,8,-7000,0,189000,75742,
444,-2604,16452,7,-131,-12,-7000,0,189000,75745,
340,-2564,16484,0,-138,2,-7000,0,189000,75747,
412,-2560,16528,1,-129,-14,-7000,0,189000,75749,
588,-2524,16548,7,-127,-66,-7000,0,189000,75762,
544,-2608,16496,12,-141,-42,-7000,0,189000,75764,
524,-2584,16516,-12,-134,-60,-7000,0,189000,75766,
528,-2532,16552,-24,-121,-61,-7000,0,189000,75769,
480,-2496,16648,-29,-68,-106,-7000,0,189000,75781,
368,-2620,16592,-4,-36,-104,-7000,0,189000,75783,
468,-2584,16636,-34,-40,-95,-7000,0,189000,75786,
424,-2660,16680,-20,-49,-111,-7000,0,189000,75788,
324,-2500,16620,-53,-142,-169,-7000,0,189000,75801,
344,-2628,16876,-53,-145,-150,-7000,0,189000,75803,
436,-2728,16824,-52,-168,-194,-7000,0,189000,75805,
412,-2588,16868,-51,-204,-179,-7000,0,189000,75807,
404,-2652,16752,-19,-226,-208,-7000,0,189000,75820,
312,-2644,16688,-4,-223,-191,-7000,0,189000,75822,
420,-2752,16656,23,-223,-181,-7000,0,189000,75825,
316,-2652,16816,14,-222,-171,-7000,0,189000,75827,
504,-2688,16664,65,-118,-132,-7000,0,188000,75840,
416,-2760,16680,93,-104,-135,-7000,0,188000,75842,
432,-2648,16616,102,-63,-126,-7000,0,188000,75844,
384,-2664,16716,114,43,-135,-7000,0,188000,75857,
512,-2568,16700,126,47,-93,-7000,0,188000,75859,
352,-2532,16652,109,45,-114,-7000,0,188000,75861,
372,-2560,16752,127,71,-90,-7000,0,188000,75864,
264,-2572,16652,138,47,-118,-7000,0,188000,75876,
260,-2700,16744,155,58,-107,-7000,0,188000,75879,
312,-2608,16704,139,20,-125,-7000,0,188000,75881,
344,-2680,16560,122,21,-103,-7000,0,188000,75883,
260,-2584,16480,153,-51,-125,-7000,0,188000,75896,
360,-2684,16368,172,-35,-127,-7000,0,188000,75898,
348,-2540,16412,137,-24,-134,-7000,0,188000,75900,
236,-2552,16380,126,-53,-118,-7000,0,188000,75902,
344,-2616,16540,132,-111,-116,-7000,0,188000,75915,
384,-2520,16428,147,-94,-113,-7000,0,188000,75917,
464,-2616,16280,141,-83,-112,-7000,0,188000,75920,
352,-2564,16564,155,-141,-119,-7000,0,188000,75922,
416,-2532,16544,178,-82,-85,-7000,0,188000,75934,
456,-2660,16704,173,-61,-77,-7000,0,188000,75937,
520,-2432,16552,178,-20,-68,-7000,0,188000,75939,
452,-2580,16460,166,-5,-82,-7000,0,188000,75941,
332,-2640,16636,212,116,-69,-7000,0,188000,75954,
260,-2540,16564,209,142,-79,-7000,0,188000,75956,
316,-2624,16520,224,113,-78,-7000,0,188000,75959,
320,-2664,16624,217,138,-95,-7000,0,188000,75961,
320,-2548,16388,252,112,-80,-7000,0,188000,75974,
256,-2576,16236,265,113,-105,-7000,0,188000,75976,
296,-2552,16264,256,140,-75,-7000,0,188000,75978,
368,-2632,16240,244,125,-82,-7000,0,188000,75980,
336,-2404,16232,204,117,-40,-7000,0,188000,75993,
356,-2460,16172,198,112,-60,-7000,0,188000,75995,
416,-2408,16408,187,113,-11,-7000,0,188000,75998,
428,-2384,16352,179,94,-8,-7000,0,188000,76000,
404,-2464,16444,74,25,-14,-7000,0,188000,76012,
404,-2380,16492,62,13,-17,-7000,0,188000,76015,
232,-2428,16412,51,-38,-5,-7000,0,188000,76017,
344,-2524,16396,31,-19,-13,-7000,0,188000,76019,
392,-2560,16456,0,-15,-57,-7000,0,188000,76032,
432,-2460,16644,-34,-39,-55,-7000,0,188000,76034,
492,-2492,16668,-13,-60,-80,-7000,0,188000,76037,
364,-2476,16528,-22,-51,-72,-7000,0,188000,76039,
596,-2544,16600,-11,-51,-158,-7000,0,188000,76051,
480,-2520,16560,20,-52,-145,-7000,0,188000,76054,
592,-2392,16460,7,-51,-169,-7000,0,188000,76056,
644,-2344,16436,49,-36,-155,-7000,0,188000,76058,
640,-2488,16504,67,64,-165,-7000,0,188000,76071,
632,-2420,16492,65,85,-181,-7000,0,188000,76073,
596,-2456,16460,91,85,-173,-7000,0,188000,76075,
640,-2524,16552,106,115,-186,-7000,0,188000,76078,
604,-2572,16552,124,238,-171,-7000,0,188000,76090,
616,-2580,16528,121,211,-185,-7000,0,188000,76092,
560,-2536,16376,168,256,-179,-7000,0,188000,76095,
560,-2532,16496,153,295,-198,-7000,0,188000,76097,
332,-2600,16552,159,352,-188,-7000,0,188000,76109,
360,-2480,16444,130,353,-179,-7000,0,188000,76112,
256,-2584,16584,157,350,-186,-7000,0,188000,76114,
372,-2544,16560,145,336,-203,-7000,0,188000,76116,
256,-2560,16348,80,280,-183,-7000,0,188000,76129,
204,-2428,16424,83,293,-170,-7000,0,188000,76131,
280,-2464,16476,83,272,-203,-7000,0,188000,76133,
220,-2500,16412,73,247,-217,-7000,0,188000,76136,
116,-2392,16560,11,149,-230,-7000,0,188000,76148,
308,-2444,16584,16,134,-228,-7000,0,188000,76151,
316,-2372,16488,-17,103,-220,-7000,0,188000,76153,
188,-2392,16596,-24,103,-214,-7000,0,188000,76155,
376,-2528,16400,-65,97,-222,-7000,0,188000,76168,
284,-2520,16408,-56,120,-212,-7000,0,188000,76170,
328,-2548,16536,-49,102,-192,-7000,0,188000,76172,
272,-2468,16728,-46,136,-182,-7000,0,188000,76175,
252,-2576,16532,-32,161,-152,-7000,0,188000,76187,
300,-2552,16448,-32,150,-154,-7000,0,188000,76189,
212,-2516,16628,-20,144,-136,-7000,0,188000,76192,
244,-2508,16540,-28,98,-133,-7000,0,188000,76204,
328,-2468,16588,-39,101,-115,-7000,0,188000,76206,
268,-2404,16436,-28,116,-126,-7000,0,188000,76209,
356,-2472,16608,-34,113,-133,-7000,0,188000,76211,
280,-2452,16768,-30,115,-139,-7000,0,188000,76224,
332,-2452,16484,-43,103,-133,-7000,0,188000,76226,
268,-2548,16424,-35,113,-134,-7000,0,188000,76228,
184,-2524,16552,-41,137,-126,-7000,0,188000,76230,
340,-2588,16636,-45,154,-149,-7000,0,188000,76243,
308,-2468,16560,-48,174,-167,-7000,0,188000,76245,
364,-2380,16656,-27,174,-156,-7000,0,188000,76247,
436,-2444,16548,-23,185,-145,-7000,0,188000,76250,
208,-2472,16404,-26,237,-126,-7000,0,188000,76262,
160,-2480,16696,-32,222,-137,-7000,0,188000,76265,
280,-2404,16660,-27,246,-130,-7000,0,188000,76267,
180,-2564,16540,-24,175,-141,-7000,0,188000,76279,
228,-2508,16688,-32,186,-140,-7000,0,188000,76282,
256,-2460,16664,-42,182,-132,-7000,0,188000,76284,
184,-2408,16536,-37,156,-125,-7000,0,188000,76286,
56,-2564,16896,-53,86,-111,-7000,0,188000,76299,
224,-2532,16768,-54,97,-129,-7000,0,188000,76301,
240,-2440,16816,-72,57,-127,-7000,0,188000,76303,
124,-2616,16596,-71,44,-132,-7000,0,188000,76306,
208,-2524,16808,-60,-43,-113,-7000,0,188000,76318,
236,-2508,16772,-73,-22,-92,-7000,0,188000,76320,
268,-2544,16616,-73,-38,-118,-7000,0,188000,76323,
252,-2584,16716,-63,-17,-94,-7000,0,188000,76325,
288,-2584,16860,-3,3,-43,-7000,0,188000,76338,
256,-2572,16864,-16,-13,-56,-7000,0,188000,76340,
252,-2460,16800,-16,12,-43,-7000,0,188000,76342,
372,-2592,16884,-4,9,-34,-7000,0,188000,76344,
368,-2528,16960,-11,53,-29,-7000,0,188000,76357,
344,-2444,16848,4,60,-18,-7000,0,188000,76359,
252,-2444,16808,12,71,-40,-7000,0,188000,76362,
108,-2548,17044,17,69,-17,-7000,0,188000,76364,
304,-2548,16972,18,3,-42,-7000,0,188000,76376,
272,-2484,17108,53,-7,-53,-7000,0,188000,76379,
220,-2524,17140,43,12,-53,-7000,0,188000,76381,
156,-2464,17028,58,-38,-75,-7000,0,188000,76383,
260,-2320,17364,94,-133,-90,-7000,0,188000,76396,
180,-2428,17216,113,-136,-92,-7000,0,188000,76398,
208,-2388,17384,71,-146,-80,-7000,0,188000,76401,
264,-2468,17464,105,-161,-92,-7000,0,188000,76403,
328,-2440,17420,149,-231,-127,-7000,0,188000,76415,
240,-2472,17508,153,-190,-117,-7000,0,188000,76418,
384,-2388,17576,174,-165,-136,-7000,0,188000,76420,
288,-2372,17580,204,-154,-118,-7000,0,188000,76422,
316,-2496,17608,280,-92,-175,-7000,0,188000,76435,
148,-2328,17628,321,-51,-180,-7000,0,188000,76437,
324,-2316,17652,340,-80,-195,-7000,0,188000,76439,
284,-2352,17560,340,-48,-197,-7000,0,188000,76442,
332,-2156,17936,443,-74,-284,-7000,0,188000,76454,
204,-2308,18160,461,-80,-289,-7000,0,188000,76456,
312,-2344,18196,502,-83,-301,-7000,0,188000,76459,
200,-2440,18364,666,-81,-347,-7000,0,188000,76471,
196,-2468,18412,689,-68,-319,-7000,0,188000,76474,
276,-2420,18604,744,-36,-322,-7000,0,188000,76476,
288,-2420,18556,791,-38,-347,-7000,0,188000,76478,
424,-2536,18556,1031,120,-285,-7000,0,188000,76491,
400,-2532,18528,1072,162,-289,-7000,0,188000,76493,
452,-2524,18548,1151,225,-261,-7000,0,188000,76495,
560,-2672,18624,1202,326,-281,-7000,0,188000,76498,
908,-2680,18804,1567,1201,-101,-6000,0,188000,76510,
1068,-2684,18772,1687,1412,-78,-6000,0,188000,76512,
1156,-2676,18704,1732,1619,-19,-6000,0,188000,76515,
1620,-2740,18664,2233,3502,291,-6000,0,188000,76527,
1872,-2788,18812,2381,4098,366,-6000,0,188000,76530,
2280,-2844,18852,2495,4668,426,-6000,0,188000,76532,
2520,-2832,18840,2663,5359,518,-6000,0,188000,76534,
3444,-2840,18556,3435,10338,1431,-6000,0,188000,76547,
3604,-2872,18492,3590,11420,1650,-6000,1000,188000,76549,
3864,-2772,18504,3793,12549,1837,-6000,1000,188000,76551,
4084,-2900,18040,5291,19141,3357,-5000,3000,188000,76564,
4400,-3060,17872,5558,20566,3745,-5000,3000,188000,76566,
4544,-3000,17604,5829,21952,4008,-5000,3000,188000,76568,
3640,-2368,16844,7274,29632,5263,-4000,6000,188000,76581,
3384,-2296,16668,7458,30868,5506,-4000,7000,188000,76583,
3304,-2376,16764,7704,32145,5761,-4000,7000,188000,76586,
2096,-1912,15896,8911,32767,7075,-3000,10000,189000,76598,
2028,-1900,15668,9105,32767,7243,-3000,11000,189000,76601,
2196,-1716,15724,9403,32767,7500,-3000,11000,189000,76603,
912,-1428,14656,10372,32767,9053,-1000,14000,190000,76615,
640,-1152,14424,10512,32767,9221,-1000,15000,190000,76618,
408,-1060,14408,10741,32767,9260,-1000,16000,190000,76620,
-1624,-988,13308,12105,32767,10062,0,19000,191000,76633,
-2096,-808,13088,12311,32767,10149,0,19000,191000,76635,
-3304,-400,12728,12475,32767,10371,0,20000,191000,76637,
-5044,200,11908,13024,32767,11141,2000,23000,193000,76650,
-5700,220,11796,13173,32767,11147,2000,24000,193000,76652,
-6396,208,11232,13352,32767,11230,2000,24000,193000,76654,
-6940,1340,10004,13333,32767,12766,4000,27000,195000,76667,
-7564,1512,10132,13005,32767,12817,5000,28000,195000,76669,
-8368,1056,9880,13016,32767,12785,5000,28000,195000,76671,
-11212,1340,8032,13988,32767,13140,7000,31000,197000,76684,
-11536,1316,8048,14097,32767,13186,8000,32000,198000,76686,
-12068,1564,7452,13927,32767,13167,8000,33000,198000,76689,
-14200,2176,6156,13551,32767,12905,11000,36000,200000,76701,
-14824,2180,5892,13415,32767,12817,11000,36000,201000,76704,
-14744,2468,5980,13227,32767,12685,12000,37000,201000,76706,
-15804,2592,4852,12458,32767,12051,15000,40000,204000,76719,
-16216,2732,4344,12243,32767,12000,15000,40000,204000,76721,
-15868,2756,4228,12211,32767,11875,16000,41000,205000,76724,
-16876,3412,3856,10894,32767,11055,19000,44000,207000,76736,
-17000,3416,3724,10690,32767,10841,19000,44000,208000,76738,
-16760,3660,3604,10500,32767,10602,20000,45000,208000,76741,
-16452,4332,3284,9652,32767,9457,23000,48000,211000,76753,
-16416,4476,3452,9458,32767,9351,24000,48000,212000,76756,
-16376,4300,3484,9261,32644,9160,24000,49000,213000,76758,
-17000,4564,2808,8142,28255,8533,28000,51000,216000,76771,
-16956,4240,3152,8027,27442,8313,28000,51000,216000,76773,
-16820,4220,3148,7906,26775,8151,29000,52000,217000,76776,
-15720,3740,2248,7488,23769,7047,32000,53000,220000,76788,
-15728,3736,2072,7389,23316,6871,33000,54000,221000,76791,
-15396,3908,2072,7266,22959,6821,33000,54000,221000,76793,
-15328,4028,1548,6769,20437,6368,37000,55000,224000,76806,
-15204,4076,1552,6724,19984,6330,37000,56000,225000,76808,
-14940,4092,960,6603,19664,6276,38000,56000,225000,76810,
-14836,4728,552,5909,18378,5804,41000,57000,228000,76823,
-14676,5076,492,5715,18042,5762,42000,57000,229000,76826,
-14620,5124,580,5437,17775,5681,42000,57000,230000,76828,
-15600,5428,-68,4685,15650,5292,45000,58000,232000,76841,
-15564,5124,-32,4577,15260,5083,46000,58000,233000,76843,
-15816,4956,152,4590,14736,4875,46000,59000,234000,76846,
-16272,5056,68,4041,11341,3992,48000,59000,236000,76858,
-16104,4912,-44,3993,10761,3807,49000,59000,236000,76861,
-15968,4892,-280,3895,10196,3598,49000,59000,237000,76863,
-15112,5064,-808,3227,7801,2889,51000,60000,238000,76876,
-15096,5028,-728,3092,7447,2770,51000,60000,239000,76878,
-15068,5092,-668,2971,7149,2667,52000,60000,239000,76880,
-14628,5516,-1012,2521,5809,2067,53000,60000,240000,76893,
-14640,5648,-1320,2406,5599,1931,54000,60000,240000,76895,
-14668,5544,-1312,2280,5365,1833,54000,60000,241000,76898,
-15448,5640,-1532,1612,3645,1215,55000,60000,242000,76910,
-15512,5620,-1648,1453,3258,1071,55000,60000,242000,76913,
-15556,5636,-1656,1348,2873,950,55000,60000,242000,76915,
-15796,5588,-1676,706,924,339,56000,61000,242000,76928,
-15856,5516,-1776,586,593,283,56000,61000,242000,76930,
-15944,5508,-1496,471,175,180,56000,61000,242000,76933,
-15864,5820,-1256,-59,-1807,-332,56000,61000,242000,76945,
-15696,5828,-1172,-180,-2170,-432,56000,61000,242000,76947,
-15724,5944,-1192,-276,-2528,-539,55000,61000,242000,76950,
-15492,6044,-1136,-710,-4147,-1195,55000,61000,241000,76962,
-15624,5920,-1208,-778,-4438,-1260,55000,61000,241000,76965,
-15572,6004,-1240,-864,-4690,-1336,55000,61000,241000,76967,
-15392,5848,-1020,-1267,-5656,-1639,54000,60000,240000,76980,
-15252,5756,-1036,-1324,-5716,-1689,54000,60000,240000,76982,
-15252,5704,-1004,-1366,-5791,-1743,53000,60000,240000,76985,
-15140,5788,-956,-1645,-6147,-2003,52000,60000,239000,76997,
-15304,5696,-1040,-1705,-6272,-2036,52000,60000,239000,77000,
-15528,5872,-948,-1772,-6438,-2099,52000,60000,238000,77002,
-16532,6184,-876,-2413,-8297,-2569,51000,60000,237000,77015,
-16900,6216,-912,-2571,-8937,-2715,50000,60000,237000,77017,
-17360,6396,-888,-2754,-9715,-2898,50000,60000,236000,77019,
-19444,6688,-776,-4039,-15673,-4209,47000,59000,234000,77032,
-19972,6804,-488,-4288,-17196,-4572,47000,59000,233000,77034,
-20316,6880,-264,-4608,-18789,-4954,46000,59000,232000,77037,
-21652,6816,68,-6099,-28996,-7255,42000,58000,228000,77049,
-21568,6920,292,-6346,-31144,-7765,41000,57000,227000,77052,
-21668,6744,264,-6586,-32768,-8297,40000,57000,226000,77054,
-22084,6760,304,-7810,-32768,-11488,35000,55000,221000,77067,
-22200,6592,432,-8091,-32768,-12077,34000,55000,220000,77069,
-22200,6616,500,-8491,-32768,-12609,33000,55000,219000,77072,
-21148,6568,100,-10094,-32768,-15919,28000,53000,214000,77084,
-20800,6272,336,-10382,-32768,-16535,27000,53000,213000,77087,
-20276,6316,268,-10646,-32768,-17097,26000,52000,212000,77089,
-18172,4856,412,-11397,-32768,-19224,22000,50000,208000,77102,
-17852,4740,488,-11549,-32768,-19481,21000,50000,207000,77104,
-17404,4684,608,-11692,-32768,-19794,20000,49000,206000,77107,
-13776,4336,1664,-12666,-32768,-19841,15000,47000,202000,77119,
-12600,4480,1796,-12723,-32768,-19787,15000,47000,201000,77122,
-11624,3992,3348,-13096,-32768,-20084,11000,44000,197000,77134,
-10808,4020,3468,-13265,-32768,-19846,10000,44000,197000,77137,
-10612,4016,3692,-13468,-32768,-19798,10000,43000,196000,77139,
-7564,4048,5000,-15135,-32768,-18258,6000,40000,193000,77152,
-7204,3392,5396,-15403,-32768,-17869,6000,40000,193000,77154,
-5512,2768,5880,-15406,-32768,-17362,5000,39000,192000,77157,
-1088,956,8600,-15737,-32768,-16146,2000,36000,190000,77169,
836,144,8680,-15349,-32768,-15891,2000,35000,190000,77172,
-4,-140,9472,-14971,-32768,-15837,1000,35000,189000,77174,
5360,-1552,12296,-11703,-32768,-13412,0,31000,188000,77187,
6744,-2128,12136,-11017,-32768,-12862,0,31000,187000,77189,
8044,-2140,12356,-10352,-32768,-12341,-1000,30000,187000,77191,
10220,-2392,14568,-7814,-32768,-9871,-2000,27000,186000,77204,
10916,-2712,15112,-7446,-32768,-9625,-2000,26000,186000,77206,
10084,-2704,15584,-7170,-31719,-9277,-2000,25000,186000,77208,
11424,-3324,16536,-4349,-16491,-3297,-3000,23000,185000,77221,
11584,-3508,16696,-3798,-13632,-2209,-3000,23000,185000,77223,
8112,-3144,16928,-2390,-166,1706,-3000,23000,186000,77236,
7392,-3024,16852,-2222,1615,2116,-3000,23000,186000,77238,
6480,-2764,17116,-2059,3084,2495,-3000,23000,186000,77240,
1116,-1840,17088,-847,7112,3193,-3000,23000,186000,77253,
300,-1732,17156,-691,7165,3094,-3000,23000,186000,77255,
-824,-1584,17272,-559,7071,2999,-3000,24000,186000,77258,
-4324,-1260,17012,-649,4084,2140,-3000,24000,186000,77270,
-4612,-1200,17004,-745,3274,1937,-3000,24000,186000,77272,
-5056,-1060,17000,-903,2381,1705,-3000,24000,186000,77275,
-5068,-1220,17368,-1638,-2723,362,-3000,24000,186000,77287,
-4788,-1152,17368,-1719,-3648,129,-3000,24000,186000,77290,
-4540,-1080,17476,-1827,-4566,-111,-3000,24000,186000,77292,
-3048,-1024,17672,-2141,-8233,-1169,-4000,23000,186000,77304,
-2576,-1128,17640,-2238,-8693,-1316,-4000,22000,186000,77307,
-2236,-1104,17556,-2302,-9047,-1402,-4000,22000,186000,77309,
-440,-1332,17668,-2572,-9860,-1638,-4000,21000,186000,77322,
-244,-1476,17656,-2575,-9862,-1619,-4000,21000,186000,77324,
184,-1576,17600,-2576,-9801,-1585,-4000,21000,186000,77326,
1484,-1896,17724,-2351,-8433,-1525,-4000,20000,186000,77339,
1628,-1956,17684,-2286,-8153,-1444,-4000,20000,186000,77341,
1716,-2020,17516,-2201,-7836,-1357,-4000,19000,186000,77344,
2276,-2436,17124,-1841,-5782,-754,-5000,19000,186000,77356,
2328,-2524,17116,-1768,-5343,-664,-5000,19000,186000,77359,
2484,-2364,17128,-1693,-4831,-564,-5000,18000,186000,77361,
2780,-2396,16736,-1185,-1949,-133,-5000,18000,186000,77373,
2964,-2448,16756,-1103,-1446,-30,-5000,18000,186000,77376,
2892,-2364,16712,-1000,-944,61,-5000,18000,186000,77378,
1896,-2256,16604,-590,1259,376,-5000,18000,186000,77391,
1812,-2156,16564,-488,1540,446,-5000,18000,186000,77393,
1512,-2192,16636,-434,1783,494,-5000,18000,186000,77395,
560,-2156,16812,-210,2452,612,-5000,18000,186000,77408,
388,-2100,16760,-202,2409,622,-5000,18000,186000,77410,
220,-1916,16576,-204,2298,603,-5000,18000,186000,77412,
-620,-1820,17112,-223,1336,399,-5000,18000,186000,77425,
-812,-1924,17112,-245,1128,362,-5000,18000,186000,77427,
-796,-2008,17128,-250,913,282,-5000,18000,186000,77429,
-576,-2176,16980,-329,-311,43,-5000,18000,186000,77442,
-656,-2156,17100,-335,-473,1,-5000,18000,186000,77444,
-348,-2156,16980,-325,-588,7,-5000,18000,186000,77446,
252,-2020,16812,-346,-802,26,-5000,18000,186000,77459,
328,-2136,16904,-325,-766,47,-5000,18000,186000,77461,
456,-2080,16768,-354,-704,74,-5000,18000,186000,77464,
576,-2068,16860,-364,-407,214,-5000,18000,186000,77476,
568,-2100,16696,-373,-366,216,-5000,18000,186000,77478,
580,-2120,16688,-393,-327,204,-5000,18000,186000,77481,
584,-2176,16676,-408,-165,218,-5000,17000,186000,77493,
552,-2148,16668,-418,-144,234,-5000,17000,186000,77496,
448,-2136,16604,-405,-93,209,-5000,17000,186000,77498,
660,-2228,16912,-269,254,278,-5000,17000,186000,77510,
592,-2296,16700,-258,317,267,-5000,17000,186000,77513,
684,-2272,16680,-248,372,279,-5000,17000,186000,77515,
444,-2124,16412,-171,643,302,-5000,17000,186000,77528,
456,-2196,16432,-140,654,302,-5000,17000,186000,77530,
456,-2204,16516,-140,681,269,-5000,17000,186000,77532,
212,-2088,16520,-125,637,197,-5000,17000,186000,77545,
208,-1988,16684,-111,613,192,-5000,17000,186000,77547,
172,-1976,16656,-119,578,189,-5000,17000,186000,77549,
368,-2056,16800,-184,521,128,-5000,17000,186000,77562,
456,-2084,16824,-173,507,116,-5000,17000,186000,77564,
308,-2072,16920,-213,528,122,-5000,17000,186000,77566,
300,-2104,16844,-193,501,94,-5000,17000,186000,77569,
444,-2292,17028,-197,508,103,-5000,17000,186000,77581,
424,-2316,17028,-213,465,108,-5000,17000,186000,77584,
348,-2224,16852,-181,477,78,-5000,17000,186000,77586,
464,-2372,16820,-185,450,94,-5000,17000,186000,77598,
456,-2364,16616,-177,459,99,-5000,17000,186000,77601,
400,-2504,16736,-142,460,89,-5000,17000,186000,77603,
316,-2464,16508,-131,464,128,-5000,17000,186000,77605,
296,-2364,16536,-115,419,123,-5000,17000,186000,77618,
272,-2296,16392,-103,402,142,-5000,17000,186000,77620,
300,-2204,16428,-133,366,162,-5000,17000,186000,77623,
404,-2264,16736,-198,242,155,-5000,17000,186000,77635,
372,-2184,16700,-205,230,145,-5000,17000,186000,77637,
404,-2180,16896,-211,237,120,-6000,17000,186000,77640,
392,-2320,17028,-222,268,70,-6000,16000,186000,77652,
436,-2400,16996,-190,292,54,-6000,16000,186000,77654,
416,-2436,17108,-191,349,51,-6000,16000,186000,77657,
492,-2444,17052,-154,378,59,-6000,16000,186000,77659,
552,-2372,16856,-34,712,36,-6000,16000,186000,77672,
580,-2300,16844,-1,788,13,-6000,16000,186000,77674,
580,-2388,16920,-2,854,34,-6000,16000,186000,77676,
444,-2300,16704,102,1141,5,-6000,16000,186000,77689,
448,-2120,16736,103,1130,11,-6000,16000,186000,77691,
436,-2124,16692,119,1081,10,-6000,16000,186000,77693,
260,-2140,16608,94,1107,35,-6000,16000,186000,77696,
-68,-2096,16748,47,696,-26,-6000,16000,186000,77708,
-48,-2036,16908,-1,600,-25,-6000,16000,186000,77710,
-96,-2152,16900,7,475,-49,-6000,16000,186000,77713,
-96,-2348,16832,-73,-66,-142,-6000,16000,186000,77725,
-164,-2504,16832,-63,-129,-151,-6000,16000,186000,77728,
-132,-2352,16852,-57,-194,-155,-6000,16000,186000,77730,
228,-2468,16852,-34,-335,-140,-6000,16000,186000,77742,
180,-2472,16712,-32,-345,-147,-6000,16000,186000,77745,
160,-2452,16720,-8,-331,-155,-6000,16000,186000,77747,
432,-2380,16796,17,-173,-127,-6000,16000,186000,77760,
504,-2444,16656,14,-146,-147,-6000,16000,186000,77762,
368,-2424,16720,38,-102,-97,-6000,16000,186000,77764,
400,-2300,16816,41,-63,-93,-6000,16000,186000,77766,
224,-2352,16896,39,40,-38,-6000,16000,186000,77779,
304,-2248,16776,28,54,-30,-6000,16000,186000,77781,
192,-2196,16768,36,26,-38,-6000,16000,186000,77783,
128,-2232,16752,66,10,-80,-6000,16000,186000,77796,
248,-2312,16880,59,19,-97,-6000,15000,186000,77798,
232,-2300,16888,59,18,-112,-6000,15000,186000,77800,
296,-2312,16792,95,36,-113,-6000,15000,186000,77803,
340,-2308,16888,158,151,-135,-6000,15000,186000,77815,
304,-2280,16864,162,175,-124,-6000,15000,186000,77818,
220,-2316,16716,181,198,-121,-6000,15000,186000,77820,
256,-2192,16704,216,267,-142,-6000,15000,186000,77832,
304,-2168,16816,226,245,-160,-6000,15000,186000,77835,
128,-2196,16704,217,221,-164,-6000,15000,186000,77837,
124,-2188,16752,199,121,-201,-6000,15000,186000,77850,
172,-2176,16656,168,97,-222,-6000,15000,186000,77852,
140,-2260,16684,185,92,-229,-6000,15000,186000,77854,
48,-2212,16768,177,58,-250,-6000,15000,186000,77856,
188,-2224,16512,194,92,-281,-6000,15000,186000,77869,
124,-2388,16628,199,113,-262,-6000,15000,186000,77871,
40,-2256,16464,191,169,-285,-6000,15000,186000,77874,
140,-2152,16468,198,285,-259,-6000,15000,186000,77886,
60,-2148,16628,219,332,-246,-6000,15000,186000,77889,
92,-2228,16552,198,343,-250,-6000,15000,186000,77891,
8,-2116,16428,219,365,-246,-6000,15000,186000,77893,
36,-2096,16304,171,440,-197,-6000,15000,186000,77906,
-52,-2180,16368,142,426,-177,-6000,15000,186000,77908,
24,-2044,16404,139,388,-153,-6000,15000,186000,77910,
-88,-2016,16652,21,200,-123,-6000,15000,186000,77923,
-220,-2024,16520,6,137,-133,-6000,15000,186000,77925,
-264,-2004,16556,17,110,-125,-6000,15000,186000,77927,
-320,-2064,16388,-26,50,-152,-6000,15000,186000,77930,
-84,-2052,16816,-37,-156,-231,-6000,15000,186000,77942,
-88,-2236,16784,-38,-177,-248,-6000,15000,186000,77945,
-60,-2268,16796,-39,-195,-262,-6000,14000,186000,77947,
-36,-2368,16664,36,-155,-304,-6000,14000,186000,77959,
16,-2320,16620,52,-126,-290,-6000,14000,186000,77962,
148,-2208,16644,58,-109,-291,-6000,14000,186000,77964,
60,-2136,16432,101,32,-277,-6000,14000,186000,77977,
112,-2200,16648,114,63,-267,-6000,14000,186000,77979,
320,-2188,16624,114,95,-257,-6000,14000,186000,77981,
196,-2164,16672,106,86,-253,-6000,14000,186000,77983,
124,-2128,16596,135,211,-181,-6000,14000,186000,77996,
96,-2144,16532,148,238,-175,-6000,14000,186000,77998,
52,-2104,16676,178,219,-170,-6000,14000,186000,78001,
-56,-2064,16588,117,203,-142,-6000,14000,186000,78013,
-84,-2036,16644,110,212,-136,-6000,14000,186000,78015,
-116,-2068,16636,95,191,-137,-6000,14000,186000,78018,
-68,-2152,16828,112,209,-133,-6000,14000,186000,78020,
-124,-2208,16684,109,207,-171,-6000,14000,186000,78033,
-228,-2324,16604,114,198,-167,-6000,14000,186000,78035,
-76,-2240,16776,127,221,-143,-6000,14000,186000,78037,
-88,-2188,16700,139,204,-169,-6000,14000,186000,78050,
-24,-2332,16656,124,221,-167,-6000,14000,186000,78052,
