Ax,Ay,Az,Gx,Gy,Gz,Roll,Pitch,Yaw,Timestamp,Target
0,0,0,0,0,0,0,0,0,0,
1740,3592,16264,-1027,3591,1136,7000,-3000,166000,693495,
1796,3540,16104,-1042,3768,1204,7000,-3000,166000,693498,
1652,3448,16332,-946,4436,1321,7000,-3000,167000,693510,
1432,3364,16476,-892,4565,1362,7000,-3000,167000,693513,
1460,3424,16528,-834,4692,1372,7000,-3000,167000,693515,
936,3216,16756,-594,4776,1407,7000,-2000,167000,693528,
828,3228,16584,-530,4768,1342,7000,-2000,167000,693530,
552,3340,16772,-507,4611,1362,7000,-2000,167000,693532,
184,3500,16812,-448,3831,1254,7000,-2000,167000,693545,
172,3652,16816,-465,3541,1242,7000,-2000,167000,693547,
-36,3840,16808,-492,3306,1218,7000,-1000,167000,693550,
8,3876,16924,-508,3046,1197,7000,-1000,167000,693552,
-272,4052,16780,-577,1629,1031,7000,-1000,167000,693565,
-244,4024,16768,-526,1395,986,7000,-1000,167000,693567,
-180,3936,16652,-564,1104,972,7000,-1000,167000,693570,
184,3884,16620,-640,-313,802,7000,-1000,167000,693582,
164,3760,16580,-696,-549,829,7000,-1000,168000,693585,
252,3808,16552,-715,-703,797,7000,-1000,168000,693587,
860,3788,16564,-820,-1168,958,7000,-1000,168000,693600,
1024,3940,16376,-810,-1119,972,7000,-1000,168000,693602,
1168,3912,16384,-787,-1140,1036,7000,-1000,168000,693604,
1672,3756,16180,-715,-685,1027,7000,-2000,168000,693617,
1816,3620,16140,-675,-615,1007,7000,-2000,168000,693619,
1804,3680,16044,-701,-492,970,7000,-2000,168000,693621,
1708,3620,16016,-622,60,823,7000,-2000,168000,693634,
1756,3608,16040,-606,194,768,7000,-2000,168000,693636,
1592,3588,16116,-551,232,750,7000,-2000,168000,693639,
1536,3568,16320,-562,246,749,7000,-2000,168000,693641,
1512,3472,16308,-531,-19,619,7000,-2000,168000,693654,
1372,3496,16432,-606,-84,638,7000,-2000,168000,693656,
1384,3468,16416,-621,-125,631,7000,-2000,168000,693658,
1592,3544,16468,-553,-370,576,7000,-2000,168000,693671,
1640,3444,16504,-524,-345,564,7000,-2000,168000,693673,
1560,3448,16428,-504,-362,533,7000,-2000,168000,693676,
1548,3324,16664,-443,-436,492,7000,-2000,168000,693688,
1480,3232,16676,-439,-503,477,7000,-2000,168000,693691,
1464,3244,16640,-458,-594,471,7000,-2000,168000,693693,
1576,3196,16384,-406,-1032,387,7000,-2000,168000,693706,
1536,3224,16384,-433,-1096,375,7000,-2000,168000,693708,
1536,3284,16272,-431,-1177,368,7000,-2000,168000,693710,
1676,3388,16316,-526,-1550,444,7000,-2000,168000,693723,
1812,3284,16336,-468,-1665,431,7000,-2000,168000,693725,
1836,3276,16336,-470,-1755,438,7000,-2000,168000,693728,
1824,3236,16356,-357,-2085,475,7000,-2000,168000,693740,
1884,3116,16280,-386,-2104,516,7000,-2000,168000,693743,
2012,3192,16344,-340,-2121,519,7000,-3000,168000,693745,
2160,3340,16304,-254,-2358,556,7000,-3000,168000,693758,
2120,3400,16496,-220,-2358,549,7000,-3000,168000,693760,
2052,3444,16428,-187,-2323,594,7000,-3000,168000,693762,
2716,3560,16552,-260,-2400,533,7000,-3000,168000,693775,
2764,3516,16408,-305,-2477,486,7000,-3000,168000,693777,
2800,3416,16456,-367,-2510,437,7000,-3000,168000,693780,
2968,3380,16664,-275,-2218,376,7000,-4000,168000,693792,
3044,3316,16704,-242,-2125,389,7000,-4000,168000,693795,
3052,3176,16840,-180,-2011,358,7000,-4000,168000,693797,
2892,3560,16564,-167,-1413,394,7000,-4000,168000,693810,
2940,3508,16752,-67,-1312,366,7000,-4000,168000,693812,
2720,3544,16628,-46,-1314,377,7000,-4000,168000,693814,
2636,3688,16332,-99,-1551,242,7000,-4000,168000,693827,
2744,3656,16476,-157,-1653,235,7000,-4000,168000,693829,
2628,3740,16212,-176,-1721,217,7000,-4000,168000,693832,
2632,3772,16292,-170,-2144,15,7000,-4000,168000,693844,
2776,3668,16312,-196,-2141,-23,7000,-4000,168000,693847,
2648,3604,16380,-143,-2151,-82,7000,-4000,168000,693849,
3144,3464,16644,-118,-2368,-374,7000,-5000,168000,693861,
3252,3524,16624,-98,-2448,-449,7000,-5000,168000,693864,
3300,3432,16848,-187,-2453,-492,7000,-5000,168000,693866,
3772,3488,17092,-87,-2166,-606,7000,-5000,168000,693879,
3816,3644,17264,-68,-2058,-600,7000,-5000,168000,693881,
3820,3688,17128,-18,-1889,-632,7000,-5000,168000,693883,
3876,3828,17100,150,-1105,-593,7000,-5000,168000,693896,
3700,3828,17244,215,-948,-652,7000,-5000,168000,693898,
3684,3788,17056,251,-915,-614,7000,-5000,168000,693901,
3112,3660,16904,308,-403,-652,7000,-5000,168000,693913,
3084,3644,16832,325,-338,-620,7000,-5000,168000,693916,
2992,3768,16748,287,-227,-642,7000,-5000,168000,693918,
2872,3572,16552,197,289,-661,7000,-5000,168000,693931,
2688,3524,16532,186,362,-681,7000,-5000,168000,693933,
2668,3432,16652,251,449,-687,7000,-5000,168000,693935,
2416,3340,16504,300,646,-800,7000,-5000,168000,693948,
2312,3292,16476,330,653,-834,7000,-5000,168000,693950,
2340,3400,16412,278,557,-866,7000,-5000,168000,693953,
2240,3388,16148,226,567,-881,7000,-5000,168000,693955,
1960,3556,16040,248,409,-819,7000,-5000,168000,693968,
1700,3504,15896,268,415,-839,7000,-5000,167000,693970,
1652,3552,15804,363,362,-827,7000,-5000,167000,693972,
1668,3888,15728,327,202,-882,7000,-5000,167000,693985,
1696,3896,15836,268,51,-878,7000,-5000,167000,693987,
1736,4048,15788,223,-16,-915,7000,-5000,167000,693990,
1776,4032,15644,208,-39,-947,7000,-5000,167000,693992,
1812,4276,15956,91,-24,-824,7000,-5000,167000,694005,
1964,4276,15928,119,39,-823,8000,-5000,167000,694007,
1880,4308,15892,153,76,-791,8000,-5000,167000,694009,
2064,4208,15848,105,317,-810,8000,-5000,167000,694022,
1912,4324,16128,89,283,-782,8000,-5000,167000,694024,
1840,4192,15956,126,322,-769,8000,-5000,167000,694027,
1720,4184,15824,192,336,-751,8000,-5000,167000,694029,
1304,4256,15524,-1,63,-650,8000,-5000,167000,694042,
1220,4336,15456,23,-85,-685,8000,-5000,167000,694044,
1180,4328,15480,-72,-169,-685,8000,-5000,167000,694047,
1172,4308,15256,-269,-768,-633,8000,-5000,167000,694059,
1156,4480,15280,-345,-817,-615,8000,-5000,167000,694062,
1332,4280,15128,-338,-823,-612,8000,-5000,167000,694064,
1600,4356,15104,-456,-812,-478,8000,-5000,167000,694077,
1724,4312,15052,-455,-721,-480,8000,-5000,167000,694079,
1680,4284,14960,-469,-682,-462,8000,-5000,167000,694081,
1796,4580,15008,-415,-69,-375,8000,-5000,167000,694094,
1784,4416,15104,-452,53,-321,8000,-5000,167000,694096,
1744,4508,15040,-456,198,-333,8000,-5000,167000,694099,
1396,4636,14932,-530,626,-326,8000,-5000,167000,694111,
1380,4704,14920,-573,700,-335,8000,-5000,167000,694113,
1324,4740,15104,-549,761,-347,8000,-5000,167000,694116,
1212,4788,14832,-718,977,-404,8000,-5000,167000,694128,
1104,4784,15016,-679,982,-426,8000,-5000,167000,694131,
1216,4576,14708,-727,1019,-421,8000,-5000,167000,694133,
1140,4896,14492,-887,1368,-458,8000,-5000,167000,694146,
1224,4956,14340,-951,1460,-429,8000,-5000,167000,694148,
1168,4916,14192,-989,1603,-410,8000,-5000,167000,694150,
956,4820,13980,-1041,2251,-298,8000,-5000,167000,694163,
972,4780,13988,-1070,2409,-309,8000,-5000,167000,694165,
908,4792,14000,-1046,2495,-314,8000,-4000,167000,694168,
1036,4664,13108,-1316,3201,-393,8000,-4000,167000,694180,
1084,4756,12968,-1337,3264,-414,8000,-4000,167000,694183,
1076,4784,12936,-1421,3396,-447,8000,-4000,167000,694185,
1216,4952,12284,-1654,4126,-590,8000,-4000,167000,694198,
1332,4936,12236,-1727,4263,-592,8000,-4000,167000,694200,
1312,5000,12304,-1754,4470,-652,8000,-4000,167000,694202,
1608,5328,11904,-2015,4863,-806,7000,-3000,167000,694215,
1424,5256,11812,-2028,4952,-869,7000,-3000,167000,694217,
1492,5372,11840,-2106,4971,-871,7000,-3000,167000,694220,
808,5544,11132,-2485,5431,-1013,7000,-2000,167000,694232,
852,5516,10816,-2588,5400,-1040,7000,-2000,167000,694235,
832,5480,10560,-2707,5339,-1122,7000,-2000,167000,694237,
224,5456,9792,-3320,4976,-1508,7000,-2000,166000,694250,
132,5532,9812,-3452,4986,-1585,7000,-2000,166000,694252,
-64,5460,9792,-3528,4854,-1633,7000,-1000,166000,694254,
-176,5364,9684,-4265,3831,-1824,7000,-1000,166000,694267,
-192,5212,9720,-4406,3481,-1903,7000,-1000,166000,694269,
-300,5144,9704,-4586,3152,-1907,7000,-1000,166000,694272,
-1136,4708,9172,-5092,1606,-1931,6000,-1000,166000,694284,
-1328,4584,8872,-5227,1353,-1894,6000,-1000,166000,694287,
-1356,4424,8716,-5363,1146,-1881,6000,-1000,166000,694289,
-1796,4556,8052,-6061,-38,-1594,6000,-1000,166000,694301,
-1872,4584,7960,-6227,-204,-1538,6000,-1000,166000,694304,
-1996,4636,8028,-6325,-355,-1404,5000,-1000,166000,694306,
-1904,4692,8048,-7475,-562,-687,5000,0,166000,694319,
-2000,4720,8280,-7680,-515,-492,5000,0,166000,694321,
-2108,4528,8444,-7858,-381,-319,5000,0,166000,694324,
-2044,4372,8280,-8032,-181,-148,5000,0,166000,694326,
-2088,3208,8256,-8857,837,718,4000,0,166000,694339,
-2036,3208,8432,-8970,1045,872,4000,0,166000,694341,
-2156,2976,8344,-9089,1207,1034,3000,0,166000,694343,
-3076,2356,9088,-9580,1955,1865,3000,0,166000,694356,
-3160,2360,9036,-9672,2005,2008,2000,0,166000,694358,
-3460,2120,9140,-9776,2040,2202,2000,0,166000,694360,
-3604,2044,9236,-9860,1989,2348,2000,0,166000,694363,
-4812,1336,9332,-10602,1550,3189,1000,0,166000,694375,
-4848,1228,9392,-10667,1399,3405,1000,0,167000,694378,
-4788,1056,9156,-10838,1323,3602,1000,0,167000,694380,
-4612,376,9408,-11466,1090,4673,0,0,167000,694393,
-4536,288,9440,-11575,1176,4889,0,0,167000,694395,
-4276,100,9696,-11712,1291,5056,0,0,167000,694397,
-4284,12,9728,-11712,1372,5257,0,0,167000,694400,
-4068,-712,10404,-12068,2462,6171,-1000,0,168000,694413,
-3964,-920,10416,-12076,2680,6341,-1000,1000,168000,694415,
-4104,-916,10564,-12152,2946,6524,-2000,1000,168000,694417,
-4472,-1620,11028,-12332,3918,7456,-3000,1000,169000,694430,
-4672,-1760,10984,-12354,4052,7600,-3000,1000,169000,694432,
-4740,-1964,11168,-12348,4110,7733,-3000,1000,169000,694435,
-5368,-2524,11200,-12767,4231,8357,-5000,2000,170000,694447,
-5340,-2760,11396,-12750,4078,8500,-5000,2000,170000,694450,
-5732,-3216,12016,-13136,3152,9293,-6000,3000,171000,694463,
-5720,-3176,11952,-13141,2970,9435,-6000,3000,171000,694465,
-5688,-3380,12168,-13273,2885,9575,-7000,3000,171000,694467,
-5248,-3920,12864,-13447,2116,10219,-8000,3000,172000,694480,
-4968,-4000,12820,-13532,2014,10325,-8000,3000,172000,694482,
-4832,-4020,13084,-13527,1901,10422,-8000,3000,173000,694485,
-4188,-4872,13324,-13602,2253,10798,-10000,4000,174000,694497,
-3996,-4980,13228,-13523,2472,10813,-10000,4000,174000,694500,
-3744,-5176,13448,-13474,2735,10843,-10000,4000,174000,694502,
-2992,-5748,13876,-13485,3946,10859,-11000,5000,175000,694515,
-2852,-5856,14244,-13534,4184,10884,-12000,5000,175000,694517,
-2816,-5968,14460,-13564,4549,10937,-12000,5000,175000,694520,
-2760,-6476,14968,-13272,6047,11158,-13000,6000,176000,694532,
-2860,-6552,14916,-13240,6274,11148,-13000,6000,176000,694535,
-2760,-6632,14816,-13189,6424,11137,-14000,6000,176000,694537,
-2940,-6340,14844,-13356,7257,11067,-15000,7000,177000,694550,
-3096,-6456,14864,-13434,7363,11026,-15000,7000,177000,694552,
-3192,-6172,15780,-13878,7211,10930,-16000,8000,178000,694565,
-3072,-6196,16180,-14055,6940,10847,-17000,8000,178000,694568,
-3040,-6240,16480,-14184,6727,10756,-17000,9000,179000,694570,
-3148,-7244,17752,-14484,5189,10115,-18000,9000,179000,694583,
-3176,-7528,17964,-14494,4954,9945,-18000,10000,180000,694585,
-3076,-7748,18240,-14444,4697,9844,-19000,10000,180000,694588,
-2116,-8696,18180,-14322,3686,9330,-20000,10000,180000,694600,
-1936,-8736,18312,-14330,3599,9218,-20000,10000,181000,694603,
-1792,-8788,18160,-14296,3615,9174,-20000,11000,181000,694605,
-680,-8680,18648,-14015,3832,8923,-22000,11000,181000,694618,
-508,-8628,18904,-14025,3928,8915,-22000,11000,182000,694620,
-472,-8628,19144,-13937,3895,8838,-22000,11000,182000,694623,
68,-8528,19556,-13672,3981,8349,-23000,12000,182000,694635,
-76,-8588,19860,-13569,3870,8153,-24000,12000,182000,694637,
-72,-8540,19860,-13543,3842,7962,-24000,12000,182000,694640,
-396,-8588,20228,-13483,3005,7327,-25000,13000,183000,694653,
-408,-8732,20188,-13538,2735,7202,-25000,13000,183000,694655,
-476,-8768,20244,-13542,2406,7035,-25000,13000,183000,694657,
84,-9352,20904,-13555,711,6160,-27000,13000,184000,694670,
180,-9464,21120,-13477,418,6007,-27000,13000,184000,694672,
316,-9444,21036,-13438,165,5794,-27000,13000,184000,694675,
1292,-10092,20732,-12889,152,4904,-28000,13000,184000,694687,
1364,-10100,20648,-12808,325,4742,-28000,13000,184000,694690,
1552,-10120,20920,-12715,513,4646,-29000,13000,184000,694692,
1940,-9740,21808,-12313,466,4318,-30000,14000,185000,694705,
1972,-9668,21684,-12231,451,4275,-30000,14000,185000,694707,
1852,-9728,21728,-12095,429,4178,-30000,14000,185000,694710,
1112,-10036,21696,-11452,343,3679,-31000,14000,185000,694722,
1000,-10088,21844,-11293,124,3614,-31000,14000,185000,694725,
804,-10240,21744,-11268,-77,3515,-32000,14000,185000,694727,
620,-10920,21112,-10901,-1231,2939,-32000,14000,186000,694740,
748,-10976,21100,-10850,-1303,2843,-33000,14000,186000,694742,
928,-10988,21088,-10724,-1358,2757,-33000,14000,186000,694745,
2000,-11600,20664,-10246,-826,2077,-34000,14000,186000,694758,
2164,-11660,20532,-10040,-624,1978,-34000,14000,186000,694760,
2864,-12072,20368,-9044,1334,1441,-35000,14000,186000,694773,
2576,-12008,20228,-8832,1507,1350,-35000,14000,186000,694775,
2384,-11824,20200,-8715,1711,1310,-35000,14000,186000,694777,
776,-11660,20076,-7938,1947,1326,-36000,14000,186000,694794,
288,-11164,19992,-7790,1704,1395,-36000,14000,186000,694796,
180,-11296,20004,-7772,1529,1497,-36000,14000,186000,694799,
-88,-11340,20784,-7572,-235,832,-37000,14000,186000,694811,
-284,-11332,20580,-7509,-482,820,-37000,14000,186000,694814,
-320,-11336,20468,-7426,-859,799,-37000,14000,186000,694816,
-96,-11316,20692,-6792,-2659,598,-38000,14000,187000,694829,
-112,-10980,20172,-6639,-2892,586,-38000,13000,187000,694831,
152,-11176,20648,-6393,-3303,626,-38000,13000,187000,694833,
496,-11608,19892,-6082,-5111,-232,-38000,13000,187000,694846,
716,-11540,20200,-6028,-5149,-387,-38000,13000,187000,694849,
880,-11516,20148,-5857,-5067,-482,-39000,13000,187000,694851,
1880,-11476,19892,-4998,-4076,-450,-39000,12000,187000,694864,
1940,-11420,19772,-4860,-3611,-419,-39000,12000,187000,694866,
2064,-11424,19804,-4643,-3185,-319,-39000,12000,187000,694869,
1992,-11444,19556,-3640,-465,60,-39000,12000,187000,694881,
1932,-11480,19604,-3465,-49,54,-39000,12000,187000,694884,
1824,-11400,19416,-3316,352,1,-39000,12000,187000,694886,
756,-11168,19556,-2429,1576,-200,-40000,12000,187000,694899,
436,-11016,19404,-2338,1598,-254,-40000,12000,187000,694901,
156,-10952,19324,-2193,1516,-289,-40000,12000,187000,694903,
-904,-10508,18888,-1873,803,-428,-40000,12000,187000,694916,
-784,-10636,18704,-1778,560,-448,-40000,12000,187000,694919,
-936,-10456,18660,-1787,337,-510,-40000,12000,187000,694921,
-1036,-10644,18192,-1606,-1053,-770,-40000,12000,187000,694934,
-868,-10732,18172,-1601,-1282,-827,-40000,12000,187000,694936,
-896,-10708,18228,-1501,-1469,-865,-40000,12000,187000,694939,
-1052,-10824,18032,-1128,-2012,-1118,-40000,11000,187000,694951,
-924,-10756,17936,-1031,-2064,-1116,-40000,11000,187000,694954,
-968,-10616,17784,-988,-2058,-1162,-40000,11000,187000,694956,
-728,-10400,17652,-587,-1670,-1182,-40000,11000,187000,694969,
-680,-10320,17564,-496,-1482,-1176,-40000,11000,187000,694971,
-572,-10228,17508,-335,-1304,-1176,-40000,11000,187000,694974,
-624,-9888,16952,208,79,-1046,-40000,11000,187000,694986,
-604,-10000,16812,372,305,-1031,-40000,11000,187000,694989,
-740,-9764,16824,451,584,-966,-40000,11000,187000,694991,
-1328,-9408,16132,804,1856,-772,-40000,11000,187000,695004,
-1424,-9420,16156,820,2045,-697,-40000,11000,187000,695006,
-1536,-9208,16116,910,2271,-681,-40000,11000,187000,695009,
-2144,-9052,15788,1111,2908,-474,-40000,11000,187000,695021,
-2304,-9140,15760,1206,2939,-468,-40000,11000,187000,695024,
-2364,-9008,15792,1232,2891,-440,-40000,11000,187000,695026,
-3180,-8964,15268,1454,2303,-491,-39000,11000,187000,695039,
-3292,-8988,15124,1410,2056,-462,-39000,11000,187000,695041,
-3392,-8868,15020,1418,1828,-490,-39000,11000,187000,695044,
-3840,-8556,14412,1332,182,-512,-39000,11000,186000,695056,
-3988,-8572,14252,1296,-81,-538,-39000,11000,186000,695059,
-3996,-8456,14128,1296,-392,-519,-39000,11000,186000,695061,
-3604,-8280,13880,1058,-1610,-637,-39000,11000,187000,695074,
-3684,-8224,13972,1017,-1786,-642,-39000,11000,187000,695076,
-3480,-8188,13776,955,-1870,-648,-39000,11000,187000,695079,
-2920,-8020,13584,918,-1909,-507,-39000,11000,187000,695092,
-2800,-8028,13456,961,-1846,-462,-39000,11000,187000,695094,
-2784,-8032,13316,1040,-1732,-434,-39000,11000,187000,695096,
-3292,-8204,13040,1420,-1656,-134,-38000,11000,187000,695109,
-3536,-8044,13028,1521,-1829,-89,-38000,11000,187000,695112,
-3804,-8036,12884,1522,-2055,-27,-38000,11000,187000,695114,
-5020,-7772,12800,1371,-4091,44,-38000,10000,187000,695127,
-5040,-7724,12732,1236,-4669,61,-38000,10000,187000,695129,
-5212,-7716,12744,1131,-5187,56,-38000,10000,187000,695132,
-4732,-6984,12816,204,-8745,99,-38000,9000,188000,695148,
-4556,-6936,12920,64,-9085,125,-38000,9000,188000,695150,
-4260,-6820,13060,-65,-9352,124,-38000,9000,188000,695153,
-2776,-6944,13168,-446,-9902,272,-38000,8000,189000,695165,
-2548,-7116,13544,-419,-9821,307,-38000,8000,189000,695168,
-2412,-7208,13516,-335,-9663,371,-38000,8000,189000,695170,
-1968,-7688,14500,22,-8367,582,-37000,8000,190000,695183,
-1908,-7816,14384,67,-8173,666,-37000,7000,190000,695185,
-1948,-7864,14708,89,-7976,684,-37000,7000,190000,695188,
-2732,-7848,15340,329,-7518,984,-37000,7000,190000,695200,
-2736,-7896,15552,307,-7518,1033,-37000,7000,190000,695203,
-2884,-7764,15744,351,-7539,1057,-37000,7000,191000,695205,
-2860,-7636,17144,85,-8302,1154,-37000,6000,191000,695218,
-2904,-7780,17332,73,-8442,1200,-37000,6000,191000,695220,
-2980,-8008,17648,1,-8451,1271,-37000,6000,191000,695223,
-3132,-8840,19248,272,-8230,1782,-37000,5000,192000,695236,
-3196,-8880,19388,302,-8169,1919,-37000,5000,192000,695238,
-3204,-8900,19476,368,-8159,2014,-37000,5000,192000,695240,
-3268,-9696,20404,726,-8643,2581,-37000,5000,193000,695253,
-3252,-9788,20536,816,-8815,2610,-36000,5000,193000,695255,
-3448,-9904,20864,992,-9063,2687,-36000,4000,193000,695258,
-3996,-9988,22284,1429,-10420,2850,-36000,4000,194000,695271,
-3980,-9952,22304,1447,-10696,2891,-36000,4000,194000,695273,
-3940,-9992,22544,1463,-10951,2902,-36000,4000,194000,695275,
-2524,-9880,23240,1687,-11386,2964,-36000,3000,195000,695288,
-2048,-10020,23448,1840,-11149,2995,-36000,3000,195000,695291,
-1764,-10084,23784,2046,-10875,3015,-36000,3000,196000,695293,
-364,-10192,24872,3184,-8450,3301,-35000,2000,196000,695306,
-368,-10320,24744,3503,-7928,3364,-35000,2000,197000,695308,
-424,-10300,25248,3745,-7460,3462,-35000,2000,197000,695311,
-1180,-10692,26308,5379,-5636,3805,-34000,2000,197000,695323,
-1440,-10872,26532,5646,-5514,3824,-34000,2000,197000,695326,
-1732,-10812,26740,5955,-5507,3841,-34000,2000,198000,695328,
-1808,-10608,27692,7248,-6527,4211,-33000,1000,198000,695341,
-2020,-10412,28008,7475,-6757,4321,-33000,1000,198000,695343,
-2052,-10356,27736,7638,-6820,4461,-33000,1000,198000,695346,
-968,-10216,26516,8979,-7028,4670,-32000,1000,199000,695358,
-784,-10436,26208,9165,-7069,4693,-32000,1000,199000,695361,
-656,-10308,26300,9473,-7074,4712,-32000,1000,200000,695363,
-308,-10892,26176,10763,-6658,4736,-31000,0,200000,695376,
-320,-10892,26372,11042,-6440,4745,-30000,0,200000,695378,
-216,-10888,26412,11221,-6244,4750,-30000,0,201000,695380,
-216,-11052,25708,12660,-5117,4890,-29000,0,201000,695393,
-180,-11136,25388,12856,-4913,4926,-29000,0,201000,695395,
-204,-11148,25284,13133,-4734,4979,-28000,0,201000,695398,
-212,-10856,23664,14299,-4177,5391,-27000,0,202000,695411,
-272,-10808,23572,14395,-4135,5466,-27000,0,202000,695413,
-280,-10852,23380,14777,-4097,5546,-26000,0,202000,695415,
-828,-10840,22032,15703,-4215,5915,-25000,0,203000,695428,
-956,-10852,21764,15805,-4342,5986,-25000,0,203000,695430,
-1008,-11012,21388,15888,-4415,6038,-24000,0,203000,695433,
-824,-10584,19372,16178,-5365,6394,-23000,0,204000,695445,
-636,-10440,19192,16199,-5524,6423,-22000,0,204000,695448,
-748,-10324,18976,16256,-5798,6454,-22000,0,204000,695450,
40,-9836,18188,16395,-6272,6436,-21000,0,205000,695463,
80,-9668,17840,16462,-6415,6397,-20000,0,205000,695465,
4,-9376,17420,16290,-6647,6376,-20000,0,205000,695468,
644,-8968,16628,16121,-6739,6257,-18000,0,206000,695480,
1036,-8992,16324,16038,-6631,6194,-18000,0,206000,695483,
1160,-8856,16132,16072,-6524,6122,-18000,-1000,207000,695485,
1540,-8004,15256,15813,-6148,5865,-16000,-1000,207000,695498,
1592,-7824,15220,15772,-6005,5797,-16000,-1000,207000,695500,
1788,-7564,15020,15709,-5941,5749,-16000,-1000,208000,695502,
1800,-6688,15180,15249,-5759,5596,-15000,-2000,208000,695515,
1752,-6540,15280,15136,-5773,5579,-14000,-2000,208000,695517,
1652,-6404,15052,15009,-5827,5557,-14000,-2000,208000,695520,
1964,-6348,14500,14492,-6854,4987,-12000,-2000,209000,695536,
2316,-6384,14084,14198,-7125,4854,-12000,-3000,209000,695538,
2404,-6388,14108,14103,-7325,4690,-12000,-3000,209000,695541,
3652,-5996,13876,13993,-7804,3873,-11000,-3000,210000,695553,
3868,-5904,13668,13885,-7686,3734,-10000,-4000,210000,695556,
4024,-5688,13628,13831,-7580,3594,-10000,-4000,210000,695558,
5280,-4196,14036,13722,-6234,2907,-9000,-4000,211000,695571,
5356,-4044,13948,13652,-5950,2751,-9000,-4000,211000,695573,
5552,-3908,14036,13611,-5664,2579,-8000,-5000,211000,695575,
5072,-3844,13772,13368,-4405,1761,-7000,-5000,211000,695588,
4772,-3992,13484,13220,-4267,1707,-7000,-5000,211000,695591,
4744,-4060,13360,13173,-4193,1587,-7000,-5000,211000,695593,
3560,-4212,12732,12664,-4890,1268,-6000,-6000,211000,695606,
3568,-4280,12688,12605,-5116,1204,-5000,-6000,211000,695608,
3244,-4080,12680,12478,-5473,1177,-5000,-6000,211000,695610,
3196,-3492,11576,11987,-7372,823,-4000,-7000,211000,695623,
3040,-3400,11252,11826,-7811,696,-4000,-7000,211000,695625,
3112,-3248,11068,11740,-8164,543,-4000,-7000,211000,695628,
4232,-2176,10440,10797,-9579,-371,-3000,-8000,212000,695640,
4576,-2100,10392,10582,-9714,-555,-2000,-8000,212000,695643,
4892,-1844,10520,10413,-9847,-676,-2000,-8000,212000,695645,
5232,-1452,10892,9670,-9170,-1056,-1000,-9000,211000,695658,
5348,-1376,10932,9533,-8944,-1102,-1000,-10000,211000,695660,
5232,-1392,10912,9445,-8688,-1120,-1000,-10000,211000,695663,
4040,-1840,11024,9109,-8498,-941,0,-11000,211000,695675,
3776,-1728,10992,9064,-8627,-850,0,-11000,211000,695678,
3416,-1948,10992,9037,-8815,-793,0,-11000,211000,695680,
2156,-1928,10108,8711,-10810,-695,0,-12000,211000,695693,
2148,-2036,9904,8653,-11294,-782,0,-12000,211000,695695,
2200,-1832,9628,8468,-11737,-829,0,-12000,211000,695697,
3336,-1324,8652,7751,-13502,-1209,1000,-14000,211000,695710,
4032,-1176,8444,7546,-13626,-1249,1000,-14000,211000,695712,
4460,-1152,8256,7406,-13639,-1288,1000,-14000,211000,695715,
7664,-688,7688,6849,-10971,-1278,2000,-16000,211000,695728,
8148,-632,7992,6921,-9935,-1209,2000,-16000,211000,695730,
8728,-604,7892,7026,-8848,-1098,2000,-16000,211000,695732,
9380,-108,8252,7726,-2710,-320,3000,-16000,211000,695745,
9096,48,8232,7858,-1767,-115,3000,-17000,211000,695747,
8768,124,8120,7946,-791,108,3000,-17000,211000,695750,
5540,280,8184,8370,1810,1406,4000,-16000,211000,695762,
5084,436,7980,8250,1794,1634,4000,-16000,211000,695765,
4712,512,7764,8226,1691,1762,4000,-16000,211000,695767,
3904,1616,6852,7230,-674,1869,5000,-17000,211000,695780,
3932,1844,6532,7103,-1137,1757,5000,-17000,211000,695782,
4100,2164,6520,6796,-1688,1721,5000,-17000,211000,695785,
5720,3004,6156,5453,-3506,1278,6000,-17000,211000,695797,
5984,3004,6312,5207,-3631,1247,6000,-17000,211000,695800,
6316,2948,6248,5013,-3660,1253,6000,-17000,211000,695802,
8088,2836,6584,4500,-2766,1355,6000,-18000,211000,695814,
8332,2780,6528,4472,-2468,1435,7000,-18000,211000,695817,
8332,2688,6840,4481,-2223,1516,7000,-18000,211000,695819,
7836,3008,7136,4385,-704,1791,7000,-18000,212000,695832,
7940,3092,6992,4300,-547,1778,7000,-18000,212000,695834,
7868,3076,7076,4194,-411,1779,7000,-18000,212000,695837,
8052,3844,6552,3347,-88,1463,8000,-19000,212000,695849,
8136,4136,6704,3150,4,1448,8000,-19000,212000,695852,
8248,4236,6680,2993,97,1406,8000,-19000,212000,695854,
8292,4352,6856,2847,80,1463,8000,-19000,212000,695856,
8252,4908,8096,2350,516,1734,8000,-19000,212000,695869,
8172,4984,8156,2246,489,1815,8000,-19000,212000,695871,
8120,4888,8320,2048,440,1850,8000,-19000,212000,695874,
8000,4912,8384,1302,-268,1776,8000,-19000,212000,695886,
8064,5032,8676,1165,-411,1701,8000,-19000,212000,695889,
8184,4976,8784,1085,-600,1663,8000,-19000,212000,695891,
9168,4896,9196,537,-1090,1390,8000,-19000,212000,695904,
9284,4856,9268,490,-1037,1374,9000,-19000,212000,695906,
9528,4848,9180,375,-893,1375,9000,-19000,212000,695908,
10616,4820,9764,215,436,1376,9000,-20000,212000,695921,
10736,4844,9912,102,749,1364,9000,-20000,212000,695923,
10856,4956,9940,62,1115,1310,9000,-20000,213000,695926,
11104,5360,10808,-56,2388,1020,9000,-20000,213000,695938,
10996,5392,10960,-50,2557,900,9000,-20000,213000,695941,
10900,5404,11100,-84,2617,830,9000,-20000,213000,695943,
9832,5508,11424,-354,2124,329,9000,-19000,213000,695956,
9352,5600,11408,-430,1822,257,9000,-19000,213000,695958,
8236,5232,11740,-883,93,-324,9000,-19000,213000,695971,
8272,4908,11740,-1036,-245,-457,9000,-20000,213000,695973,
8276,4820,11504,-1276,-560,-655,9000,-20000,213000,695975,
9432,5448,12076,-1868,-1478,-688,9000,-20000,212000,695988,
9512,5292,12172,-1897,-1446,-744,9000,-20000,212000,695990,
9608,5028,12316,-1833,-1427,-818,9000,-20000,212000,695993,
9664,4452,12712,-1814,-790,-1386,9000,-20000,212000,696006,
9536,4492,12768,-1798,-747,-1511,9000,-20000,212000,696008,
9364,4472,12848,-1850,-699,-1576,8000,-20000,212000,696010,
8772,4636,12936,-1964,-2,-1550,8000,-20000,212000,696023,
8756,4440,13032,-1994,75,-1524,8000,-20000,212000,696025,
8572,4456,12972,-1980,255,-1555,8000,-20000,212000,696028,
7952,4756,13832,-2221,524,-1634,8000,-20000,212000,696040,
7316,4784,13888,-2192,478,-1642,8000,-20000,212000,696043,
7368,4856,14180,-2260,365,-1516,8000,-20000,212000,696045,
5916,4432,14348,-2204,-274,-1477,8000,-20000,212000,696058,
5816,4352,14192,-2281,-422,-1545,8000,-20000,211000,696060,
5712,4276,14112,-2340,-593,-1568,8000,-20000,211000,696062,
5732,4320,14520,-2838,-1986,-1615,8000,-20000,211000,696075,
5744,4392,14488,-2913,-2062,-1587,8000,-20000,211000,696078,
5776,4332,14656,-2903,-2060,-1469,8000,-20000,211000,696080,
6544,3888,14764,-2970,-1069,-905,8000,-20000,211000,696093,
6536,4080,15152,-2932,-821,-798,8000,-20000,211000,696095,
6712,3920,15036,-2922,-545,-679,8000,-20000,211000,696097,
6832,3804,15544,-2516,1128,-276,7000,-20000,211000,696110,
6876,3804,15796,-2465,1383,-198,7000,-20000,211000,696112,
6692,3880,15904,-2319,1593,-187,7000,-20000,211000,696115,
5960,4144,16332,-1908,1812,15,7000,-20000,211000,696127,
5880,4244,16040,-1871,1666,-3,7000,-20000,211000,696130,
5624,4280,16288,-1909,1450,28,7000,-20000,211000,696132,
5508,4776,16228,-1946,541,136,7000,-20000,211000,696145,
5660,4660,16448,-1974,402,160,7000,-20000,211000,696147,
5772,4680,16512,-1951,345,136,7000,-20000,211000,696150,
6664,4200,16460,-2089,516,-14,7000,-20000,211000,696162,
6752,4164,16228,-2092,654,-46,7000,-20000,211000,696165,
6868,4024,16496,-2025,765,-14,7000,-20000,211000,696167,
6616,3636,16644,-1488,1919,420,7000,-20000,211000,696179,
6308,3600,16580,-1370,1982,514,7000,-20000,211000,696182,
6200,3572,16588,-1347,2049,567,7000,-20000,211000,696184,
5600,3952,16372,-1312,1279,511,6000,-20000,211000,696197,
5444,3948,16236,-1394,1038,466,6000,-20000,211000,696199,
5344,4108,16308,-1401,806,484,6000,-20000,211000,696202,
5980,3868,16012,-1548,106,562,6000,-20000,211000,696214,
6380,3680,16004,-1481,61,569,6000,-20000,211000,696217,
6468,3732,15884,-1494,60,554,6000,-20000,211000,696219,
6944,3252,15984,-1312,801,429,6000,-19000,211000,696232,
6964,3228,15976,-1281,1001,436,6000,-19000,211000,696234,
6936,3272,15824,-1233,1286,468,6000,-19000,211000,696236,
6916,3248,15828,-948,2294,629,6000,-19000,211000,696249,
6672,3396,15868,-889,2445,647,6000,-19000,211000,696251,
6652,3412,16104,-837,2455,662,6000,-19000,211000,696254,
5996,3580,15880,-895,2121,525,6000,-19000,211000,696266,
5792,3448,15592,-957,1914,459,6000,-19000,211000,696269,
5672,3508,15464,-1035,1774,455,6000,-19000,211000,696271,
6372,3136,15256,-1445,851,372,6000,-19000,211000,696287,
6532,2964,15484,-1493,820,378,6000,-19000,212000,696290,
6732,2908,15656,-1499,860,379,6000,-19000,212000,696292,
7548,2588,15292,-1428,1219,425,5000,-19000,212000,696305,
7656,2616,15224,-1398,1294,393,5000,-19000,212000,696307,
7836,2528,15260,-1339,1353,361,5000,-19000,212000,696310,
8572,2636,15152,-1246,1738,46,5000,-19000,212000,696322,
8760,2660,15016,-1258,1775,-25,5000,-19000,212000,696325,
8852,2736,14924,-1360,1863,-73,5000,-19000,212000,696327,
9332,2324,14932,-1508,2365,-457,5000,-18000,212000,696340,
9440,2280,14888,-1518,2461,-506,5000,-18000,212000,696342,
9508,2188,14868,-1524,2530,-632,5000,-18000,212000,696344,
10448,2172,14404,-1773,2308,-1317,5000,-18000,211000,696357,
10620,2168,14264,-1766,2170,-1458,5000,-18000,211000,696359,
10732,2276,14216,-1829,1949,-1555,5000,-18000,211000,696362,
10524,2404,14348,-1893,927,-2049,5000,-18000,211000,696374,
10544,2436,14180,-2013,690,-2166,5000,-18000,211000,696377,
10636,2372,14048,-2169,431,-2368,5000,-18000,211000,696379,
11376,2424,13828,-2939,-1522,-3367,5000,-18000,211000,696392,
11368,2340,13896,-3080,-1822,-3532,5000,-19000,211000,696394,
11508,2324,14124,-3148,-2170,-3668,5000,-19000,211000,696397,
12240,1580,14392,-3509,-3270,-4548,4000,-19000,210000,696410,
12484,1520,14364,-3544,-3549,-4688,4000,-19000,210000,696412,
12668,1372,14532,-3626,-3751,-4896,4000,-19000,210000,696414,
13456,1004,14852,-4005,-4413,-5857,4000,-20000,209000,696427,
13580,1008,15188,-4041,-4349,-5985,4000,-20000,209000,696429,
13772,960,15176,-3985,-4259,-6133,4000,-20000,209000,696432,
14568,908,14880,-4091,-3290,-6773,4000,-20000,208000,696445,
14476,796,14804,-4064,-3082,-6907,4000,-20000,208000,696447,
14556,804,14704,-4052,-2839,-7004,4000,-20000,208000,696449,
14224,376,14820,-3819,-1674,-7519,4000,-21000,207000,696462,
14304,324,14872,-3876,-1517,-7557,4000,-21000,207000,696464,
14128,164,14924,-3904,-1396,-7729,4000,-21000,207000,696467,
14100,160,14808,-4034,-749,-8350,4000,-21000,206000,696479,
14052,164,15012,-4045,-590,-8551,4000,-21000,206000,696482,
13924,152,15068,-4018,-556,-8645,4000,-21000,206000,696484,
13084,-104,15608,-3910,-51,-9221,4000,-21000,205000,696497,
12828,-100,15596,-3828,-43,-9244,4000,-21000,205000,696499,
12604,-296,15348,-3817,-60,-9322,4000,-21000,204000,696501,
11760,-344,15352,-3748,-998,-9919,4000,-21000,203000,696514,
11608,-228,15348,-3827,-1235,-10112,4000,-21000,203000,696516,
11372,-60,15260,-3849,-1502,-10292,4000,-21000,203000,696519,
10780,-40,15192,-4127,-2516,-10933,4000,-21000,202000,696531,
