Ax,Ay,Az,Gx,Gy,Gz,Roll,Pitch,Yaw,Timestamp,Target
-3288,4620,15424,-798,442,-159,7000,11000,277000,589609,
-3104,4440,15548,-848,153,9,7000,11000,277000,589621,
-3152,4492,15384,-667,180,61,7000,11000,277000,589623,
-3140,4320,15404,-803,70,51,7000,11000,277000,589626,
-2888,4468,15368,-599,60,142,7000,11000,277000,589638,
-3096,4396,15348,-710,20,144,7000,11000,277000,589640,
-2872,4412,15200,-577,84,174,7000,11000,277000,589643,
-2984,4444,15316,-698,24,272,7000,11000,277000,589655,
-2896,4440,15180,-666,4,227,7000,11000,277000,589657,
-2920,4464,15248,-714,18,284,7000,11000,277000,589660,
-2944,4524,15348,-728,0,242,7000,11000,277000,589662,
-2528,4696,15516,-752,131,132,7000,11000,277000,589674,
-2476,4708,15640,-896,83,76,7000,11000,277000,589677,
-2460,4684,15696,-786,166,81,7000,11000,277000,589679,
-2640,4556,15876,-902,212,-15,7000,11000,277000,589691,
-2752,4580,15772,-748,308,5,7000,11000,277000,589694,
-2720,4456,15616,-905,254,-16,7000,11000,277000,589696,
-2756,4456,15520,-752,203,-127,7000,11000,277000,589708,
-2688,4344,15424,-834,163,-110,7000,11000,277000,589711,
-2704,4404,15516,-723,183,-169,7000,11000,277000,589713,
-2756,4356,15504,-706,227,-93,7000,11000,277000,589726,
-2700,4380,15672,-741,194,-117,7000,11000,277000,589728,
-2776,4276,15516,-692,248,-87,7000,11000,277000,589730,
-2592,4392,15592,-674,383,-12,7000,11000,277000,589742,
-2508,4440,15556,-524,508,-26,7000,11000,277000,589745,
-2672,4472,15708,-657,456,-12,7000,11000,277000,589747,
-3076,4408,15504,-532,367,79,7000,11000,277000,589759,
-3272,4432,15432,-601,317,125,7000,11000,277000,589762,
-3072,4372,15416,-532,263,92,7000,11000,277000,589764,
-2964,4568,15436,-530,-96,187,7000,11000,277000,589776,
-3168,4476,15644,-635,-238,169,7000,11000,277000,589779,
-3040,4500,15664,-553,-249,188,7000,11000,277000,589781,
-2960,4356,15680,-672,-499,233,7000,11000,277000,589793,
-2924,4528,15760,-543,-442,236,7000,11000,277000,589796,
-2724,4476,15660,-642,-478,233,7000,11000,277000,589798,
-2416,4396,15592,-540,-219,208,7000,11000,277000,589810,
-2416,4416,15544,-576,-150,198,7000,11000,277000,589813,
-2508,4240,15556,-475,-104,177,7000,11000,277000,589815,
-2496,4388,15448,-380,141,136,7000,11000,277000,589827,
-2624,4304,15496,-411,146,101,7000,11000,277000,589829,
-2588,4396,15448,-344,229,107,7000,11000,277000,589832,
-2804,4360,15340,-376,307,69,7000,11000,277000,589844,
-2652,4388,15584,-256,366,90,7000,11000,277000,589846,
-2736,4472,15544,-386,288,93,7000,11000,277000,589849,
-2868,4608,15568,-387,46,168,7000,11000,277000,589861,
-2804,4652,15452,-416,31,211,7000,11000,277000,589863,
-2604,4668,15524,-440,-38,183,7000,11000,277000,589866,
-2552,4464,15556,-420,-221,157,7000,11000,277000,589878,
-2708,4216,15464,-518,-340,85,7000,11000,277000,589880,
-2788,4292,15496,-429,-309,148,7000,11000,277000,589883,
-2592,4240,15396,-507,-580,139,7000,11000,277000,589895,
-2600,4356,15452,-338,-531,177,7000,11000,277000,589897,
-2428,4348,15432,-499,-601,175,7000,11000,277000,589900,
-2240,4420,15348,-380,-353,52,7000,11000,277000,589912,
-2368,4452,15276,-481,-322,62,7000,11000,277000,589914,
-2428,4452,15416,-358,-228,31,7000,11000,277000,589917,
-2156,4480,15344,-373,60,57,7000,11000,277000,589929,
-2088,4564,15360,-414,81,21,7000,11000,277000,589931,
-2020,4524,15516,-367,162,70,7000,11000,277000,589934,
-2128,4536,15396,-425,182,39,7000,11000,277000,589936,
-2540,4376,15420,-299,400,-25,7000,11000,277000,589948,
-2548,4428,15356,-447,313,-114,7000,11000,277000,589951,
-2620,4364,15296,-333,376,-72,7000,11000,277000,589953,
-2572,4464,15380,-455,28,-73,7000,11000,277000,589965,
-2628,4284,15328,-341,50,-92,7000,11000,277000,589967,
-2668,4356,15148,-466,-74,-110,7000,11000,277000,589970,
-2552,4388,15460,-428,-156,-154,7000,11000,277000,589982,
-2892,4136,15380,-483,-145,-121,7000,11000,277000,589984,
-2664,4268,15352,-448,-162,-152,7000,11000,277000,589987,
-2440,4544,15472,-394,-144,-7,7000,11000,277000,589999,
-2136,4612,15524,-486,-178,-30,7000,11000,277000,590001,
-2276,4524,15332,-387,-46,6,7000,11000,277000,590004,
-2228,4524,15512,-452,184,-95,7000,11000,277000,590016,
-2276,4360,15420,-305,280,-121,7000,11000,277000,590018,
-2500,4380,15336,-426,233,-130,7000,11000,277000,590021,
-2748,4320,15256,-329,71,-91,7000,11000,277000,590033,
-2544,4524,15224,-322,71,-100,7000,11000,277000,590035,
-2588,4460,15188,-258,37,-79,7000,11000,277000,590038,
-2312,4644,15328,-289,56,-134,7000,11000,277000,590050,
-2644,4644,15196,-365,13,-149,7000,11000,277000,590052,
-2460,4540,15320,-283,64,-132,7000,11000,277000,590055,
-2752,4184,14920,-402,-114,-28,7000,11000,277000,590067,
-2716,4228,15008,-253,-77,24,7000,11000,277000,590069,
-2612,4284,15072,-394,-204,31,7000,11000,277000,590072,
-2080,4784,15328,-319,-49,20,7000,11000,277000,590084,
-2380,4728,15272,-427,-21,5,7000,11000,277000,590086,
-2168,4852,15244,-345,82,-66,7000,11000,277000,590089,
-2272,4736,15200,-480,45,-52,7000,11000,277000,590091,
-2648,4220,15160,-487,158,-160,7000,11000,277000,590103,
-2616,4148,15204,-511,146,-148,7000,11000,277000,590106,
-2712,4268,15164,-497,67,-156,7000,11000,277000,590108,
-2408,4628,15384,-474,71,-142,7000,11000,277000,590120,
-2224,4732,15316,-595,-20,-209,7000,11000,277000,590123,
-2320,4840,15344,-484,107,-181,7000,11000,277000,590125,
-2652,4444,15288,-648,59,-345,7000,11000,277000,590137,
-2776,4372,15196,-516,79,-313,7000,11000,277000,590140,
-2668,4280,15184,-644,46,-320,7000,11000,277000,590142,
-2100,4532,15132,-521,193,-343,7000,11000,277000,590154,
-2168,4532,15140,-545,252,-285,7000,11000,277000,590157,
-2296,4512,15200,-521,352,-327,7000,11000,277000,590159,
-2480,4212,15340,-435,792,-373,7000,11000,277000,590171,
-2580,4164,15360,-504,766,-385,7000,11000,277000,590174,
-2656,4240,15308,-381,841,-339,7000,11000,277000,590176,
-2884,4456,15176,-440,664,-206,7000,11000,277000,590188,
-2896,4424,15240,-308,689,-168,7000,11000,277000,590191,
-3060,4540,15368,-470,563,-160,7000,11000,277000,590193,
-3020,4396,15276,-544,205,-174,7000,11000,277000,590205,
-2952,4440,15400,-527,193,-103,7000,11000,277000,590208,
-2892,4416,15404,-549,64,-164,7000,11000,277000,590210,
-2560,4320,15520,-479,-99,30,7000,11000,277000,590222,
-2552,4368,15548,-626,-173,20,7000,11000,277000,590225,
-2604,4320,15532,-481,-95,55,7000,11000,277000,590227,
-2100,4656,15528,-576,-10,20,7000,11000,277000,590239,
-1968,4712,15672,-493,64,-56,7000,11000,277000,590242,
-1872,4768,15680,-568,90,-70,7000,11000,277000,590244,
-1672,4556,15720,-491,517,-341,7000,11000,277000,590256,
-1812,4544,15728,-418,627,-348,7000,11000,277000,590259,
-2032,4432,15656,-416,668,-378,7000,11000,277000,590261,
-2352,4636,15596,-188,806,-483,7000,11000,277000,590273,
-2232,4552,15540,-312,734,-532,7000,11000,277000,590275,
-2364,4684,15416,-163,759,-529,7000,11000,277000,590278,
-2708,4832,15532,-292,428,-597,7000,11000,277000,590290,
-2804,4616,15516,-168,415,-626,7000,11000,277000,590293,
-2736,4744,15472,-308,286,-635,7000,11000,277000,590295,
-2788,4412,15404,-373,13,-611,7000,11000,277000,590307,
-2780,4380,15360,-383,12,-545,7000,11000,277000,590310,
-2668,4376,15460,-345,-31,-573,7000,11000,277000,590312,
-2800,4228,15124,-334,52,-399,7000,11000,277000,590324,
-2760,4292,15272,-474,6,-420,7000,11000,277000,590327,
-2896,4252,15212,-401,64,-382,7000,11000,277000,590329,
-2596,4460,15292,-611,70,-437,7000,11000,277000,590341,
-2596,4524,15460,-483,104,-421,7000,11000,277000,590343,
-2644,4428,15360,-613,69,-508,7000,11000,277000,590346,
-3040,4312,15180,-567,103,-505,7000,11000,277000,590358,
-3172,4320,15196,-607,89,-454,7000,11000,277000,590360,
-3048,4412,15124,-566,78,-499,7000,11000,277000,590363,
-2684,4376,15268,-477,231,-538,7000,11000,277000,590375,
-2548,4428,15320,-554,194,-624,7000,11000,277000,590377,
-2528,4388,15268,-460,244,-614,7000,11000,277000,590380,
-2880,4528,15164,-433,456,-570,7000,11000,277000,590392,
-3036,4572,15060,-280,533,-567,7000,11000,277000,590394,
-3028,4624,15196,-407,491,-544,7000,11000,277000,590397,
-2908,4764,15148,-332,550,-476,7000,11000,277000,590409,
-2880,4712,15268,-382,523,-428,7000,11000,277000,590411,
-3160,4608,15084,-311,503,-441,7000,11000,277000,590414,
-3472,4652,14944,-357,227,-268,7000,11000,277000,590426,
-3652,4508,14924,-428,109,-299,7000,11000,277000,590428,
-3632,4444,14916,-407,74,-240,7000,11000,277000,590430,
-3576,4476,14900,-578,-525,-203,7000,11000,277000,590443,
-3480,4480,14792,-449,-518,-153,7000,11000,277000,590445,
-3424,4480,14804,-611,-649,-198,7000,11000,277000,590447,
-2892,4484,14828,-568,-685,-100,7000,11000,277000,590460,
-2996,4460,14716,-690,-700,-66,7000,11000,277000,590462,
-2912,4380,14644,-578,-615,-53,7000,11000,277000,590464,
-2824,4076,14468,-700,-184,9,7000,11000,277000,590477,
-2588,4060,14508,-715,-96,-19,7000,11000,277000,590479,
-2596,3980,14456,-718,52,9,7000,11000,277000,590481,
-2316,4032,14432,-717,727,-143,7000,11000,277000,590494,
-2504,4116,14328,-588,906,-118,7000,11000,277000,590496,
-2504,4236,14360,-677,914,-150,7000,11000,277000,590498,
-2856,4644,14396,-670,1173,-133,7000,11000,277000,590511,
-2856,4708,14664,-739,1122,-90,7000,11000,277000,590513,
-3052,4832,14548,-726,1118,-106,7000,11000,277000,590515,
-3240,4648,14808,-926,651,-197,7000,11000,277000,590528,
-3536,4684,14708,-1042,477,-245,7000,11000,277000,590530,
-3500,4792,14932,-1016,350,-209,7000,11000,277000,590532,
-3436,4892,15044,-1382,-590,-264,7000,11000,277000,590545,
-3212,4804,15028,-1274,-693,-242,7000,11000,277000,590547,
-3244,4868,15108,-1440,-828,-264,7000,11000,277000,590550,
-2616,4720,15248,-1477,-930,-365,7000,11000,277000,590562,
-2476,4680,15492,-1495,-887,-328,7000,11000,277000,590564,
-2352,4708,15372,-1452,-834,-360,7000,11000,277000,590566,
-2484,4548,15284,-1328,-414,-316,7000,11000,277000,590579,
-2248,4672,15236,-1400,-371,-390,7000,11000,277000,590581,
-2416,4680,15308,-1282,-159,-366,7000,11000,277000,590583,
-2320,4700,15328,-1266,360,-534,7000,11000,277000,590596,
-2344,4748,15448,-1128,548,-522,7000,11000,276000,590598,
-2520,4712,15436,-1243,519,-572,7000,11000,276000,590600,
-2920,4772,15584,-1138,685,-565,7000,11000,276000,590613,
-2952,4848,15636,-1218,609,-552,7000,11000,276000,590615,
-3052,4848,15892,-1154,577,-563,7000,11000,276000,590617,
-3200,4856,16192,-1270,73,-454,7000,11000,276000,590630,
-3048,4704,16372,-1345,-102,-470,7000,11000,276000,590632,
-3128,4700,16296,-1284,-170,-434,7000,11000,276000,590634,
-3168,4448,16236,-1359,-736,-447,7000,11000,276000,590647,
-3260,4368,16192,-1181,-790,-417,7000,11000,276000,590649,
-3168,4288,16416,-1276,-926,-454,7000,11000,276000,590651,
-2892,4004,16032,-1101,-852,-568,7000,11000,276000,590664,
-2544,4056,16008,-1107,-835,-529,7000,11000,276000,590666,
-2604,4032,16136,-990,-732,-608,7000,11000,276000,590668,
-2392,3760,15684,-730,-91,-545,6000,11000,276000,590681,
-2516,3568,15760,-751,3,-536,6000,11000,276000,590683,
-2564,3664,15652,-642,194,-497,6000,11000,276000,590685,
-2956,3492,15188,-444,778,-226,6000,11000,276000,590698,
-3004,3596,15344,-286,890,-165,6000,11000,276000,590700,
-3168,3692,15292,-397,865,-102,6000,11000,276000,590702,
-3328,4124,15560,-309,670,156,6000,11000,276000,590715,
-3568,4040,15608,-457,537,215,6000,11000,276000,590717,
-3376,3964,15748,-389,502,232,6000,11000,276000,590719,
-3464,3968,15764,-511,-27,384,6000,11000,276000,590732,
-3380,3808,15656,-526,-127,374,6000,11000,276000,590734,
-3324,3860,15696,-553,-148,422,6000,11000,276000,590736,
-2888,3808,15424,-589,-409,425,6000,11000,276000,590749,
-2872,3912,15224,-493,-374,426,6000,11000,276000,590751,
-2800,3988,15284,-582,-438,387,6000,11000,276000,590753,
-2484,4264,15308,-447,-234,280,7000,11000,276000,590766,
-2268,4344,15280,-579,-227,199,7000,11000,276000,590768,
-2424,4396,15376,-476,-113,246,7000,11000,276000,590770,
-2072,4484,15364,-548,365,99,7000,11000,276000,590783,
-2260,4240,15388,-491,442,51,7000,11000,276000,590785,
-2176,4232,15228,-553,475,88,7000,11000,276000,590787,
-2632,4444,15316,-545,461,58,7000,11000,276000,590799,
-2616,4464,15488,-498,463,110,7000,11000,276000,590802,
-2720,4408,15636,-568,370,43,7000,11000,276000,590804,
-2720,4584,15740,-556,121,-14,7000,11000,276000,590816,
-2740,4408,15676,-708,-22,-66,7000,11000,276000,590819,
-2644,4552,15760,-578,-30,-83,7000,11000,276000,590821,
-2704,4416,15788,-744,-362,-56,7000,11000,276000,590834,
-2688,4388,15708,-683,-343,-76,7000,11000,276000,590836,
-2600,4320,15708,-736,-381,-52,7000,11000,276000,590838,
-2320,4252,15608,-701,-290,-181,6000,11000,276000,590851,
-2280,4136,15608,-581,-208,-197,6000,11000,276000,590853,
-2240,4172,15684,-648,-244,-228,6000,11000,276000,590855,
-2440,4144,15544,-448,77,-243,6000,11000,276000,590868,
-2500,4192,15648,-560,42,-227,6000,11000,276000,590870,
-2532,4160,15596,-424,180,-206,6000,11000,276000,590872,
-2312,4292,15496,-510,331,-249,6000,11000,276000,590885,
-2360,4288,15740,-402,353,-293,6000,11000,276000,590887,
-2308,4340,15656,-467,333,-287,6000,11000,276000,590889,
-2624,4256,15840,-426,166,-255,6000,11000,276000,590902,
-2832,4312,15840,-428,141,-229,6000,11000,276000,590904,
-2868,4392,15832,-414,79,-275,6000,11000,276000,590906,
-2828,4232,15676,-324,-88,-263,7000,11000,276000,590919,
-2716,4248,15692,-466,-206,-294,7000,11000,276000,590921,
-2692,4244,15732,-326,-198,-300,7000,11000,276000,590923,
-2776,3848,15456,-377,-321,-222,7000,11000,276000,590936,
-2764,3900,15352,-344,-347,-248,7000,11000,276000,590938,
-2660,3948,15444,-350,-374,-240,7000,11000,276000,590940,
-2404,4132,15060,-281,-196,-155,7000,11000,276000,590953,
-2412,4084,15208,-151,-114,-132,7000,11000,276000,590955,
-2420,4020,15036,-261,-120,-154,7000,11000,276000,590957,
-2572,4124,14996,-120,147,-70,7000,11000,276000,590970,
-2548,4208,15076,-277,99,-37,7000,11000,276000,590972,
-2488,4176,14960,-143,167,-45,7000,11000,276000,590974,
-2484,4360,14948,-338,27,-66,7000,11000,276000,590987,
-2596,4208,14940,-352,-29,-80,7000,11000,276000,590989,
-2512,4312,15024,-401,-50,-29,7000,11000,276000,590992,
-2664,4216,14980,-573,-328,-94,7000,11000,276000,591004,
-2676,4192,14756,-465,-302,-110,7000,11000,276000,591006,
-2556,4208,14816,-620,-445,-155,7000,11000,276000,591009,
-2340,4232,14600,-674,-605,-206,7000,11000,276000,591021,
-2364,4148,14724,-725,-627,-184,7000,11000,276000,591023,
-2384,4244,14644,-711,-663,-242,7000,11000,276000,591026,
-2256,3996,14316,-699,-573,-247,7000,11000,276000,591038,
-2272,4032,14400,-817,-614,-327,7000,11000,276000,591040,
-2100,4016,14320,-701,-526,-304,7000,11000,276000,591043,
-2144,3968,14140,-790,-427,-358,7000,11000,276000,591055,
-2188,3988,14040,-608,-341,-372,7000,10000,276000,591057,
-2176,4028,14040,-764,-362,-363,7000,10000,276000,591060,
-2244,4008,12956,-812,-141,-323,7000,10000,276000,591072,
-2236,4128,13084,-841,-101,-313,7000,10000,276000,591074,
-2060,3952,12912,-854,-106,-355,7000,10000,276000,591077,
-2060,3920,12248,-1084,-92,-578,6000,10000,276000,591089,
-2212,3964,12144,-1287,-194,-682,6000,10000,276000,591091,
-2136,3784,11916,-1249,-168,-657,6000,10000,276000,591094,
-1820,3996,10936,-1889,-489,-882,6000,10000,276000,591106,
-1668,4124,10800,-1937,-523,-926,6000,10000,276000,591108,
-1676,3996,10624,-2221,-696,-949,6000,10000,276000,591111,
-1524,4004,10332,-3005,-1882,-1170,6000,10000,276000,591123,
-1576,3944,10516,-3186,-2158,-1122,6000,10000,276000,591125,
-1600,3932,10420,-3270,-2455,-1202,6000,10000,276000,591128,
-1384,3720,10244,-3995,-3914,-1177,6000,10000,276000,591140,
-1320,3636,10272,-4225,-4320,-1224,6000,10000,276000,591142,
-1356,3528,10164,-4259,-4553,-1210,6000,10000,276000,591145,
-1176,2480,9152,-4931,-6127,-1252,5000,9000,276000,591157,
-1288,2412,8988,-4929,-6296,-1232,5000,9000,276000,591159,
-1156,2372,8716,-5139,-6539,-1274,5000,9000,276000,591162,
-76,1992,8116,-5503,-6696,-1309,4000,8000,275000,591174,
92,2092,8020,-5692,-6619,-1301,4000,8000,275000,591176,
216,2048,8100,-5666,-6472,-1327,4000,8000,275000,591179,
488,1732,7988,-6145,-5218,-1176,4000,7000,275000,591191,
620,1496,8024,-6307,-5022,-1169,4000,7000,275000,591193,
696,1440,8048,-6272,-4701,-1100,3000,7000,275000,591196,
848,1072,8400,-6724,-3081,-921,3000,7000,275000,591208,
912,1132,8484,-6652,-2712,-875,3000,7000,275000,591210,
868,1164,8664,-6839,-2514,-881,3000,7000,275000,591213,
204,864,8512,-7261,-1343,-713,2000,6000,275000,591225,
180,880,8348,-7409,-1179,-649,2000,6000,275000,591227,
160,988,8224,-7451,-1039,-654,2000,6000,275000,591230,
-32,848,8348,-8169,-1116,-854,1000,6000,275000,591242,
-260,904,8320,-8364,-1289,-938,1000,6000,275000,591244,
-340,880,8016,-8429,-1387,-948,1000,6000,275000,591247,
-1044,980,8280,-9572,-2629,-1171,0,6000,275000,591259,
-968,1020,8372,-9638,-2818,-1201,0,6000,275000,591261,
-920,1084,8420,-9975,-3170,-1243,0,6000,275000,591263,
-536,700,8880,-11069,-4431,-1509,-1000,5000,274000,591276,
-412,588,8884,-11322,-4629,-1570,-1000,5000,274000,591278,
-340,428,9252,-11472,-4771,-1708,-1000,5000,274000,591280,
144,-840,9168,-12482,-5412,-1930,-2000,5000,274000,591293,
316,-992,9352,-12663,-5386,-1963,-2000,5000,274000,591295,
440,-1172,9216,-12717,-5278,-1900,-3000,4000,274000,591297,
604,-2064,9284,-13580,-4785,-1831,-4000,4000,274000,591310,
980,-268,6776,-13865,-4922,-1800,-4000,4000,274000,591312,
304,-3420,12176,-13838,-4543,-1846,-5000,4000,274000,591314,
1248,-3168,10624,-14585,-3218,-2068,-6000,3000,274000,591327,
1652,-3204,10168,-14617,-2934,-2113,-6000,3000,274000,591329,
1804,-3296,10064,-14813,-2650,-2258,-7000,3000,274000,591331,
2080,-4164,10096,-15158,-886,-2820,-8000,3000,273000,591344,
1944,-4164,10252,-15362,-604,-2905,-8000,3000,273000,591346,
1684,-4356,10172,-15345,-180,-2915,-9000,3000,273000,591348,
604,-4888,10144,-16038,166,-2836,-10000,3000,273000,591361,
440,-4748,10076,-16069,170,-2796,-11000,3000,273000,591363,
180,-4732,10100,-16343,29,-2763,-11000,3000,273000,591366,
-356,-5224,10332,-17474,-1380,-3090,-13000,3000,273000,591378,
-412,-5248,10464,-17784,-1667,-3209,-13000,3000,273000,591380,
-576,-5304,10472,-17964,-1922,-3374,-13000,3000,273000,591383,
-784,-6144,11148,-19377,-3795,-3832,-15000,2000,272000,591395,
-604,-6360,11508,-19756,-4175,-3909,-16000,2000,272000,591397,
1236,-7560,12864,-20691,-5372,-3973,-18000,1000,272000,591410,
1476,-7752,13140,-20904,-5426,-3968,-18000,1000,272000,591412,
1636,-7968,13060,-20987,-5298,-3992,-19000,1000,272000,591414,
2940,-9192,14244,-21315,-3659,-4164,-21000,1000,272000,591427,
2960,-9296,14452,-21416,-3207,-4222,-21000,1000,272000,591429,
3152,-9520,14264,-21272,-2609,-4207,-21000,0,272000,591431,
2000,-10408,13612,-21268,-220,-4437,-24000,0,271000,591444,
1716,-10452,13524,-21128,253,-4444,-24000,0,271000,591446,
1552,-10392,13508,-21212,520,-4446,-24000,0,271000,591448,
1120,-10112,13512,-21242,1626,-4868,-26000,0,271000,591461,
1040,-9872,13624,-21183,1829,-4936,-27000,0,271000,591463,
776,-9916,13644,-21243,1937,-5132,-27000,0,270000,591466,
-324,-11148,14456,-21401,1733,-5508,-29000,0,270000,591478,
-684,-11240,14532,-21584,1436,-5497,-30000,0,270000,591480,
-1136,-11592,14556,-21483,1297,-5472,-30000,0,270000,591483,
-2360,-13584,14788,-21668,-609,-4936,-32000,0,269000,591495,
-2412,-13828,14872,-21580,-776,-4817,-33000,0,269000,591497,
-2040,-13868,14648,-21719,-1066,-4679,-33000,0,269000,591500,
-1852,-14140,15152,-21814,-3242,-4606,-35000,0,269000,591512,
-1888,-14096,15028,-21780,-3491,-4613,-36000,0,269000,591514,
-1436,-12640,15736,-22101,-5254,-4170,-38000,-1000,269000,591527,
-1364,-12544,15912,-22044,-5376,-3940,-38000,-1000,269000,591529,
-1372,-12548,16104,-22257,-5750,-3809,-38000,-1000,269000,591531,
88,-13408,16852,-22364,-5917,-3521,-41000,-2000,269000,591544,
372,-13760,16780,-22421,-5642,-3538,-41000,-2000,269000,591546,
1428,-15448,16496,-21841,-3700,-3711,-43000,-2000,269000,591559,
1548,-15628,16548,-21622,-3144,-3677,-43000,-2000,269000,591561,
1508,-15828,16468,-21578,-2654,-3643,-44000,-2000,269000,591563,
1836,-16632,16008,-20693,454,-3594,-46000,-3000,269000,591576,
1836,-16656,16048,-20675,1004,-3733,-46000,-3000,269000,591578,
1804,-16652,16096,-20377,1686,-3803,-47000,-3000,269000,591580,
1520,-15460,17084,-19680,4497,-4365,-48000,-3000,268000,591593,
1640,-15368,17424,-19563,4928,-4502,-49000,-3000,268000,591595,
388,-14900,18340,-19000,6766,-4758,-50000,-3000,267000,591608,
-184,-15008,18444,-19056,6869,-4707,-51000,-3000,267000,591610,
-564,-15332,18636,-18783,7053,-4584,-51000,-3000,267000,591612,
-2516,-16168,19048,-18216,6065,-4000,-53000,-2000,266000,591625,
-2504,-16224,19200,-18048,5834,-3945,-53000,-2000,266000,591627,
-2608,-16348,19080,-18000,5414,-3909,-53000,-2000,266000,591629,
-3304,-16488,19372,-17427,3291,-3768,-55000,-2000,266000,591642,
-3340,-16304,19460,-17242,2917,-3677,-55000,-2000,265000,591644,
-2364,-15712,20236,-16457,1541,-3350,-57000,-3000,265000,591657,
-1884,-15596,20552,-16173,1545,-3231,-57000,-3000,265000,591659,
-1652,-15496,20604,-16149,1453,-3197,-57000,-3000,265000,591661,
-1208,-15672,20500,-15044,2216,-2813,-58000,-3000,265000,591674,
-1132,-15816,20444,-14847,2456,-2787,-59000,-3000,265000,591676,
-2064,-16380,20092,-13595,3530,-2069,-60000,-3000,264000,591688,
-2064,-16376,19948,-13337,3720,-1909,-60000,-3000,264000,591691,
-1972,-16380,19968,-13034,3958,-1816,-60000,-3000,264000,591693,
-1936,-15812,20480,-11631,4582,-1911,-61000,-3000,264000,591705,
-1848,-15552,20788,-11527,4570,-1968,-61000,-3000,264000,591708,
-2084,-15108,21312,-10217,4847,-1790,-62000,-2000,263000,591720,
-2364,-14952,21180,-10078,4682,-1665,-62000,-2000,263000,591722,
-2500,-14900,21216,-9790,4589,-1561,-62000,-2000,263000,591725,
-3056,-14308,21848,-8795,3371,-912,-63000,-2000,262000,591737,
-2864,-14244,21860,-8632,3020,-954,-63000,-2000,262000,591740,
-2864,-14128,21832,-8442,2729,-876,-63000,-2000,262000,591742,
-2972,-13640,22828,-7697,834,-992,-64000,-2000,262000,591754,
-3016,-13592,22756,-7427,585,-967,-64000,-2000,262000,591757,
-2304,-14084,23480,-6573,-726,-839,-64000,-2000,262000,591769,
-1968,-14140,23716,-6265,-719,-838,-64000,-2000,262000,591771,
-1468,-14320,23816,-6128,-805,-844,-64000,-2000,262000,591774,
-796,-14620,24028,-4565,-450,-848,-65000,-2000,262000,591786,
-952,-14652,23840,-4229,-286,-786,-65000,-2000,262000,591788,
-992,-14484,23948,-3958,-217,-747,-65000,-2000,262000,591791,
-1264,-14084,24016,-2217,456,-467,-65000,-2000,262000,591803,
-1056,-13964,24120,-2014,461,-480,-65000,-2000,262000,591806,
-1328,-13980,24232,-1574,564,-437,-65000,-2000,262000,591808,
-1536,-14116,25064,13,364,-311,-64000,-2000,262000,591820,
-1676,-14220,25136,427,348,-300,-64000,-2000,262000,591823,
-1984,-14772,25720,2198,-186,160,-64000,-2000,262000,591835,
-2072,-14824,25656,2441,-376,234,-64000,-2000,262000,591837,
-2228,-14864,25592,2834,-451,416,-64000,-2000,262000,591840,
-1116,-15244,25556,4564,-751,806,-63000,-2000,262000,591852,
-1128,-15376,25224,5060,-749,801,-63000,-2000,262000,591854,
-1196,-15464,25076,5282,-847,830,-63000,-2000,262000,591857,
-1396,-15596,24420,7084,-756,1257,-62000,-2000,262000,591869,
-1332,-15544,24416,7376,-746,1360,-62000,-2000,262000,591872,
-1572,-15592,24324,7683,-767,1425,-62000,-2000,262000,591874,
-1056,-15724,23700,9347,-435,1759,-61000,-2000,263000,591886,
-1152,-15764,23516,9481,-496,1771,-61000,-2000,263000,591889,
-1088,-15792,23384,9859,-458,1831,-60000,-2000,263000,591891,
-1424,-15840,22836,11057,-547,2199,-59000,-2000,263000,591903,
-1408,-15820,22724,11427,-537,2237,-59000,-2000,263000,591906,
-952,-16092,22092,12590,-645,2392,-58000,-1000,263000,591918,
-1048,-16264,21952,12773,-703,2368,-57000,-1000,263000,591920,
-924,-16308,21708,12976,-691,2432,-57000,-1000,263000,591923,
-1244,-16656,21040,14131,-800,2658,-56000,-1000,263000,591935,
-1276,-16608,20888,14494,-777,2728,-55000,-1000,263000,591938,
-1152,-16696,20456,14556,-911,2740,-55000,-1000,263000,591940,
-1136,-16608,19588,15693,-946,2926,-53000,-1000,263000,591952,
-1228,-16572,19264,15747,-960,3016,-53000,-1000,264000,591955,
-1036,-16596,19088,16021,-1007,3008,-53000,-1000,264000,591957,
-1272,-16648,18320,16886,-1275,3353,-51000,-1000,264000,591969,
-1140,-16668,18204,16998,-1359,3387,-51000,-1000,264000,591972,
-812,-16500,17444,17878,-1247,3642,-49000,0,264000,591984,
-796,-16572,17124,17823,-1285,3711,-49000,0,264000,591986,
-728,-16468,16948,18160,-1214,3771,-49000,0,264000,591989,
-996,-16632,15896,18501,-1058,4080,-47000,0,265000,592001,
-880,-16528,15928,18643,-1068,4153,-46000,0,265000,592003,
-780,-16492,15732,18683,-1116,4222,-46000,0,265000,592006,
-440,-15740,15408,19091,-1192,4474,-44000,0,265000,592018,
-340,-15632,15256,19238,-1171,4504,-44000,0,265000,592020,
-192,-15272,15428,19191,-1274,4521,-44000,0,265000,592023,
-184,-14604,15280,19431,-1285,4626,-42000,0,266000,592035,
-176,-14560,15280,19256,-1394,4636,-41000,0,266000,592038,
-400,-14636,15160,19424,-1424,4665,-41000,0,266000,592040,
-268,-14160,15144,19201,-1892,4590,-39000,0,266000,592052,
-212,-14144,15008,19301,-2010,4500,-39000,0,266000,592055,
-48,-14124,14888,19183,-2106,4395,-39000,0,266000,592057,
396,-13780,14728,19127,-2041,3855,-37000,0,267000,592069,
596,-13592,14652,19188,-1911,3797,-36000,0,267000,592072,
680,-13676,14616,19096,-1850,3687,-36000,0,267000,592074,
1336,-13268,14448,19193,-649,3364,-34000,0,267000,592086,
1696,-13016,13708,18909,-439,3302,-34000,0,267000,592089,
1472,-13172,16424,19282,-498,3243,-34000,0,267000,592091,
568,-11848,14340,19000,415,3354,-32000,0,268000,592103,
380,-11612,14252,19020,429,3347,-32000,0,268000,592106,
268,-11404,14648,18890,457,3351,-31000,0,268000,592108,
776,-10812,14948,18532,923,2962,-29000,1000,268000,592120,
1040,-10700,15256,18491,967,2935,-29000,1000,268000,592123,
736,-10812,15276,18445,982,2828,-29000,1000,268000,592125,
660,-10932,15640,18390,1314,2684,-27000,1000,268000,592137,
568,-11028,15676,18258,1257,2657,-27000,1000,268000,592140,
472,-10988,15668,18379,1326,2639,-27000,1000,268000,592142,
568,-10228,15180,18257,1392,2484,-25000,1000,268000,592154,
740,-9976,15036,18352,1496,2377,-25000,1000,268000,592157,
752,-9784,15128,18149,1487,2289,-24000,1000,268000,592159,
876,-9304,14476,18180,1967,1763,-23000,1000,269000,592171,
232,-9240,14288,18100,2097,1739,-22000,1000,269000,592174,
168,-9148,14064,18049,2204,1684,-22000,1000,269000,592176,
-72,-8824,13952,17812,2616,1802,-20000,2000,269000,592188,
260,-8532,13880,17593,2577,1756,-20000,2000,269000,592191,
232,-8552,13956,17687,2712,1686,-20000,2000,269000,592193,
112,-7900,14016,17215,3047,1464,-18000,2000,269000,592205,
-168,-7792,14248,17249,3065,1482,-18000,2000,269000,592208,
-304,-7688,14144,17078,3075,1519,-18000,2000,269000,592210,
-768,-7436,13900,16782,3307,1845,-16000,3000,269000,592222,
-792,-7292,13840,16821,3276,1912,-16000,3000,269000,592225,
-932,-7224,13696,16738,3191,1918,-15000,3000,269000,592227,
-668,-6660,13232,16511,3248,2071,-14000,3000,269000,592239,
-804,-6504,13076,16309,3069,2119,-14000,3000,269000,592242,
-736,-6328,13000,16408,3134,2113,-13000,3000,269000,592244,
-908,-5704,12540,15965,3063,2187,-12000,4000,269000,592257,
-1028,-5716,12316,15871,3059,2205,-12000,4000,269000,592259,
-1200,-5580,12432,15788,3111,2274,-11000,4000,269000,592261,
-784,-4748,12360,15446,3019,2395,-10000,4000,269000,592274,
-616,-4764,12400,15530,3069,2365,-10000,4000,269000,592276,
-568,-4680,12316,15313,2976,2329,-9000,4000,269000,592278,
-1048,-4152,11720,15001,2992,2240,-8000,4000,270000,592291,
-1068,-4044,11696,14795,2984,2283,-8000,4000,270000,592293,
-1156,-4148,11516,14817,2944,2323,-8000,5000,270000,592295,
-1200,-3924,10792,14415,3074,2177,-6000,5000,270000,592308,
-1224,-4028,10640,14241,3015,2181,-6000,5000,270000,592310,
-1204,-4012,10328,14292,3107,2232,-6000,5000,270000,592312,
-1688,-3844,9888,13736,2869,2459,-5000,5000,270000,592325,
-1748,-3684,9788,13779,2861,2512,-4000,5000,270000,592327,
-1696,-3448,9788,13573,2852,2572,-4000,5000,270000,592329,
-1164,-2348,9432,13105,2901,2906,-3000,6000,270000,592342,
-1020,-2196,9508,13095,3013,3007,-3000,6000,270000,592344,
-1068,-1996,9356,12905,2968,3088,-2000,6000,270000,592346,
-2252,-1692,8740,12458,2697,3702,-1000,6000,271000,592359,
-2328,-1640,8664,12146,2553,3880,-1000,6000,271000,592361,
-2508,-1620,8852,12191,2556,4032,-1000,6000,271000,592363,
-1988,-1148,8684,11598,1728,4442,0,6000,271000,592376,
-1988,-1112,8592,11521,1524,4433,0,7000,271000,592378,
-2068,-988,8492,11472,1384,4457,0,7000,271000,592380,
-2068,-644,8320,10651,655,4783,1000,7000,272000,592393,
-2036,-604,8156,10665,558,4882,1000,7000,272000,592395,
-1940,-420,8288,10400,439,4962,1000,7000,272000,592397,
-1268,52,8220,9907,-168,5340,2000,7000,273000,592410,
-1268,232,8240,9752,-226,5435,2000,7000,273000,592412,
-1312,220,8020,9703,-296,5499,3000,7000,273000,592414,
-1092,1404,8024,8988,-779,5862,3000,7000,273000,592427,
-1168,1644,8116,8768,-947,5845,4000,6000,273000,592429,
-964,1812,8092,8692,-961,5873,4000,6000,274000,592431,
-372,2932,8380,7815,-1400,5725,5000,6000,274000,592443,
-148,2576,8244,7790,-1622,5638,5000,6000,274000,592446,
-492,2124,8712,7453,-1468,5647,5000,6000,274000,592448,
888,3100,8776,6793,-1115,5142,6000,6000,275000,592460,
896,2856,10040,6744,-1157,5045,6000,6000,275000,592463,
1324,3180,9392,6847,-874,4984,6000,6000,275000,592465,
1440,4036,9316,6371,35,4693,7000,6000,275000,592478,
1108,3940,9016,6269,108,4641,7000,6000,276000,592480,
1100,4116,9004,6153,316,4665,7000,6000,276000,592482,
796,4164,9080,6080,416,4655,7000,6000,276000,592484,
504,4656,8828,5338,706,4622,8000,6000,276000,592497,
568,4872,8588,5029,581,4539,8000,6000,276000,592499,
412,4840,8652,4944,575,4425,8000,6000,276000,592501,
564,5696,9864,3896,-99,3961,9000,5000,277000,592514,
696,5816,9896,3829,-232,3853,9000,5000,277000,592516,
904,5968,10172,3581,-415,3792,9000,5000,277000,592518,
1276,6128,10260,3519,-467,3702,9000,5000,277000,592521,
1712,6312,10672,2747,-560,3292,9000,5000,277000,592533,
1524,6260,10760,2642,-623,3156,9000,5000,277000,592535,
1268,6100,10648,2562,-554,3158,10000,5000,277000,592538,
792,5572,10424,1867,-889,2898,10000,5000,278000,592550,
700,5576,10264,1867,-966,2886,10000,5000,278000,592552,
768,5492,10340,1671,-1207,2769,10000,5000,278000,592555,
1088,6152,10460,1158,-1896,2406,10000,5000,278000,592567,
1088,6208,10536,954,-2012,2344,10000,5000,278000,592569,
972,6296,10560,943,-2078,2278,10000,4000,278000,592572,
620,6760,10824,117,-2417,2216,10000,4000,278000,592584,
672,6700,11160,-114,-2552,2155,10000,4000,278000,592586,
760,6856,11072,-213,-2531,2215,11000,4000,278000,592589,
1204,6608,12072,-1127,-3014,1880,11000,4000,278000,592601,
1388,6520,12264,-1109,-2953,1801,11000,4000,278000,592603,
1444,6300,12424,-1369,-2990,1626,11000,4000,278000,592605,
2036,5560,13008,-1615,-2392,803,10000,3000,278000,592618,
2016,5528,13088,-1754,-2188,701,10000,3000,278000,592620,
2184,5564,13396,-1647,-1943,541,10000,3000,278000,592622,
2136,5608,13624,-1674,-466,135,10000,3000,278000,592635,
1936,5544,13612,-1684,-200,71,10000,3000,278000,592637,
1768,5588,13660,-1654,131,39,10000,3000,278000,592639,
944,5768,13680,-1584,1132,-159,10000,3000,278000,592652,
848,5804,13692,-1451,1344,-110,10000,3000,278000,592654,
732,5928,13584,-1592,1403,-159,10000,3000,278000,592656,
-8,6000,13568,-1570,1639,-176,10000,3000,278000,592669,
-84,5984,13652,-1735,1553,-203,10000,3000,278000,592671,
-224,5800,13656,-1614,1573,-197,10000,3000,278000,592673,
-768,5364,14160,-1879,1079,-212,10000,3000,278000,592685,
-280,5196,14736,-1711,83,-477,9000,3000,278000,592749,
-320,5136,14592,-1765,164,-474,9000,3000,278000,592751,
-252,5148,14556,-1735,187,-529,9000,3000,278000,592754,
124,5256,14720,-1812,778,-667,9000,3000,278000,592766,
260,5252,14824,-1909,832,-720,9000,3000,278000,592768,
224,5368,14764,-1830,985,-729,9000,3000,278000,592771,
100,5240,15284,-1859,1761,-795,9000,4000,278000,592783,
-96,5172,15264,-1705,1907,-795,9000,4000,278000,592785,
-180,5332,15148,-1817,1865,-788,9000,4000,278000,592787,
-904,5948,15492,-1867,1791,-636,9000,4000,278000,592800,
-896,6024,15424,-2019,1674,-608,9000,4000,278000,592802,
-796,6096,15424,-1942,1659,-598,9000,4000,278000,592804,
-1044,5832,15308,-2235,1086,-855,9000,4000,278000,592817,
-1112,5768,15628,-2216,1008,-949,9000,4000,278000,592819,
-1136,5528,15672,-2350,906,-956,9000,4000,278000,592821,
-732,5196,15652,-2422,429,-1084,9000,4000,278000,592834,
-636,5076,15748,-2403,474,-1051,8000,4000,278000,592836,
-528,5008,15772,-2421,424,-1116,8000,4000,278000,592838,
-152,4740,16028,-2141,899,-1236,8000,4000,278000,592851,
-144,4764,15844,-2249,959,-1323,8000,4000,278000,592853,
-276,4772,15964,-2051,1171,-1296,8000,4000,278000,592855,
-432,4952,15620,-1946,1918,-1286,8000,4000,278000,592868,
-508,4920,15600,-1804,2039,-1268,8000,4000,278000,592870,
-668,5028,15440,-1894,2081,-1249,8000,4000,278000,592872,
-1428,5132,15120,-1729,2134,-1164,8000,5000,278000,592884,
-1504,5176,15104,-1729,2140,-1073,8000,5000,278000,592887,
-1620,5284,15108,-1730,2107,-1098,8000,5000,278000,592889,
-1616,5332,15632,-1877,1603,-1062,8000,5000,277000,592901,
-1584,5260,15548,-2015,1469,-1121,8000,5000,277000,592904,
-1500,5176,15760,-1987,1420,-1111,8000,5000,277000,592906,
-1636,4436,16076,-2075,886,-1078,8000,5000,277000,592918,
-1672,4324,16136,-1920,872,-1031,8000,5000,277000,592921,
-1516,4192,15912,-2031,754,-1016,8000,5000,277000,592923,
-1436,4124,15704,-1784,857,-848,7000,5000,277000,592935,
-1440,4056,15764,-1814,898,-803,7000,5000,277000,592938,
-1500,4136,15608,-1696,954,-797,7000,5000,277000,592940,
-1800,4148,15308,-1688,1301,-733,7000,5000,277000,592952,
-1608,4284,15296,-1714,1309,-780,7000,5000,277000,592955,
-1736,4212,15248,-1678,1365,-734,7000,5000,277000,592957,
-1676,4448,15140,-1733,1716,-773,7000,6000,277000,592969,
-1664,4472,15084,-1611,1878,-704,7000,6000,277000,592971,
-1636,4332,15132,-1754,1881,-725,7000,6000,277000,592974,
-1960,4020,14824,-1518,2355,-506,7000,6000,277000,592986,
-2196,3968,14772,-1665,2335,-464,7000,6000,277000,592988,
-2072,4064,14784,-1530,2426,-449,7000,6000,277000,592991,
-2528,4344,14836,-1615,2123,-161,7000,6000,277000,593003,
-2588,4664,14672,-1583,2028,-128,7000,6000,277000,593006,
-2784,4840,14728,-1683,1911,2,7000,6000,277000,593008,
-3072,5816,15308,-2134,810,381,7000,6000,277000,593020,
-2896,5940,15400,-2095,627,438,7000,6000,277000,593023,
-2748,6060,15540,-2309,321,407,7000,6000,277000,593025,
-2212,5564,15920,-2565,-1065,260,6000,6000,277000,593037,
-2212,5312,16080,-2675,-1281,225,6000,6000,277000,593040,
-2264,5128,16040,-2607,-1429,210,6000,6000,277000,593042,
-1572,4596,16000,-2597,-1755,276,6000,6000,277000,593054,
-1136,4588,15984,-2593,-1773,217,6000,6000,277000,593056,
-1040,4640,16036,-2513,-1681,245,6000,6000,277000,593059,
-420,4640,15932,-2218,-1046,3,6000,6000,277000,593071,
-272,4652,16048,-2030,-769,25,6000,6000,277000,593073,
-180,4708,15852,-2067,-591,-52,6000,6000,277000,593076,
128,4864,16032,-1542,822,-169,6000,6000,277000,593088,
92,4936,15992,-1587,1009,-175,6000,6000,277000,593090,
148,4888,16036,-1400,1283,-193,6000,6000,277000,593093,
-756,4740,16252,-1186,2123,-236,6000,6000,277000,593105,
-1016,4664,16336,-1152,2136,-270,6000,6000,277000,593107,
-1252,4584,16060,-1131,2152,-263,6000,6000,277000,593110,
-1684,4488,16292,-1136,1664,-390,6000,6000,277000,593122,
-1648,4544,16192,-1019,1563,-375,6000,6000,277000,593124,
-1768,4472,16192,-1157,1340,-413,6000,6000,277000,593127,
-2124,4564,16120,-1185,537,-326,6000,6000,277000,593139,
-2096,4412,16248,-1291,361,-271,6000,6000,277000,593141,
-2128,4368,16404,-1232,207,-224,6000,6000,277000,593144,
-1252,4648,16828,-1350,-297,-157,5000,6000,277000,593156,
-1116,4640,16588,-1430,-380,-230,5000,6000,277000,593158,
-856,4632,16592,-1351,-257,-151,5000,6000,277000,593161,
-968,4296,16316,-1394,-75,-170,5000,6000,277000,593173,
-1260,4224,16204,-1233,34,-129,5000,6000,277000,593175,
-1076,4116,16268,-1369,11,-145,5000,6000,277000,593178,
-940,3948,16200,-1125,269,-343,5000,6000,277000,593190,
-800,3956,16072,-1205,288,-422,5000,6000,277000,593192,
-812,3944,15952,-1079,395,-455,5000,6000,277000,593195,
-1092,4064,15592,-1128,544,-588,5000,6000,277000,593207,
-1120,4072,15536,-1049,555,-607,5000,6000,277000,593209,
-1384,4124,15536,-1121,523,-541,5000,6000,277000,593211,
-1724,4364,15960,-1144,331,-402,5000,6000,277000,593224,
-1716,4348,15784,-1070,378,-391,5000,6000,277000,593226,
-1616,4252,16032,-1201,250,-419,5000,6000,277000,593228,
-1340,4268,16260,-1179,-8,-503,5000,6000,277000,593241,
-1460,4112,16268,-1248,-57,-507,5000,6000,277000,593243,
-1436,4148,16252,-1146,-28,-532,5000,6000,277000,593245,
-1428,3980,16384,-1160,210,-471,5000,6000,277000,593258,
-1576,4008,16180,-1107,250,-489,5000,6000,277000,593260,
-1460,3948,16164,-1157,276,-443,5000,6000,277000,593262,
-1500,4036,16160,-1101,290,-446,5000,6000,277000,593275,
-1340,4000,16252,-958,359,-410,5000,6000,277000,593277,
-1580,3952,16300,-1031,286,-496,5000,6000,277000,593279,
-1964,4100,16164,-807,286,-542,5000,7000,277000,593292,
-1796,4000,16056,-919,202,-522,5000,7000,277000,593294,
-1764,4076,16180,-748,218,-489,5000,7000,277000,593296,
-1492,4228,15996,-764,74,-434,5000,7000,277000,593309,
-1484,4172,16068,-664,100,-460,5000,7000,277000,593311,
-1568,4184,15968,-717,75,-444,5000,7000,277000,593313,
-1808,4148,15828,-676,145,-373,5000,7000,277000,593326,
-1696,4112,16036,-614,218,-326,5000,7000,277000,593328,
-1652,4112,15908,-628,118,-361,5000,7000,277000,593330,
-1644,4276,16136,-509,172,-216,5000,7000,277000,593343,
-1716,4276,16216,-656,96,-230,5000,7000,277000,593345,
-1764,4320,16172,-515,158,-212,5000,7000,277000,593347,
-1912,4132,16092,-635,68,-100,5000,7000,277000,593359,
-1996,4052,16264,-533,50,-129,5000,7000,277000,593362,
-1984,4064,16000,-609,9,-98,5000,7000,277000,593364,
