Ax,Ay,Az,Gx,Gy,Gz,Roll,Pitch,Yaw,Timestamp,Target
-4340,-2064,15280,-204,-4252,-909,-12000,15000,309000,355689,
-3748,-2220,13724,-124,-3376,-1243,-12000,15000,309000,355702,
-3724,-2232,12836,-443,-3152,-1360,-12000,15000,309000,355704,
-4488,-2336,14060,-632,1140,-1617,-12000,15000,309000,355717,
-4612,-2352,14788,-470,2093,-1548,-12000,15000,309000,355719,
-4984,-2444,15712,-248,2798,-1418,-12000,15000,309000,355721,
-6924,-2052,17812,-110,2089,-602,-12000,15000,309000,355734,
-7216,-1996,17936,-105,1503,-337,-12000,15000,309000,355736,
-7524,-1828,17964,-166,837,-73,-12000,15000,309000,355738,
-7160,-1268,17820,-497,-1545,961,-12000,15000,309000,355751,
-6868,-1232,17848,-511,-1914,956,-12000,15000,309000,355753,
-6348,-1232,17696,-575,-2223,918,-12000,15000,309000,355755,
-4240,-1100,17132,-555,-3034,425,-12000,15000,309000,355768,
-4036,-1108,16928,-539,-2898,400,-12000,15000,309000,355770,
-3576,-1116,16772,-526,-2670,338,-12000,15000,309000,355772,
0,0,0,0,0,0,-12000,15000,309000,355772,
-6652,6332,14108,169,368,-1025,19000,21000,306000,357475,
-6484,6308,13836,154,307,-999,19000,21000,306000,357477,
-3952,-2840,17088,-7,1990,518,-12000,15000,309000,355806,
-4128,-3112,15928,-278,213,120,-12000,15000,309000,355819,
-4312,-3168,15900,-322,213,113,-12000,15000,309000,355821,
-4392,-3124,15960,-306,407,101,-12000,15000,309000,355823,
-4696,-2452,16348,-279,2082,0,-12000,15000,309000,355836,
-4592,-2372,16172,-304,2060,-72,-12000,15000,309000,355838,
-4608,-2032,16128,-353,1875,-157,-12000,15000,309000,355840,
-4836,-1968,16088,-309,1074,-359,-12000,15000,309000,355853,
-4784,-1960,16132,-296,1013,-378,-12000,16000,309000,355855,
-4620,-2004,16196,-270,909,-372,-12000,16000,309000,355867,
-4520,-2088,16080,-269,842,-366,-12000,16000,309000,355870,
-4568,-2012,16072,-317,770,-359,-12000,16000,309000,355872,
-5192,-1944,15824,-452,923,-68,-12000,16000,309000,355884,
-5292,-2012,15968,-433,1034,37,-12000,16000,309000,355887,
-5292,-1952,16208,-444,1110,94,-12000,16000,309000,355889,
-5520,-1760,16192,-536,1153,374,-12000,16000,309000,355902,
-5628,-1912,16136,-549,1057,393,-12000,16000,309000,355904,
-5532,-1804,16268,-550,985,435,-12000,16000,309000,355906,
-5480,-1948,16400,-494,650,512,-12000,16000,309000,355919,
-5436,-1928,16720,-407,582,485,-12000,16000,309000,355921,
-5472,-2028,16520,-321,472,484,-12000,16000,309000,355923,
-5416,-2088,16320,-380,-363,359,-12000,16000,309000,355936,
-5588,-2096,16024,-344,-450,328,-12000,16000,309000,355938,
-5496,-2112,16012,-336,-512,300,-12000,16000,309000,355940,
-5476,-2148,16068,-302,-389,275,-12000,16000,309000,355953,
-5464,-2032,15932,-317,-356,271,-12000,16000,309000,355955,
-5248,-2140,16052,-326,-367,256,-12000,16000,309000,355957,
-4700,-2136,16268,-240,-559,235,-12000,16000,309000,355970,
-4488,-1892,16432,-248,-521,205,-12000,16000,309000,355972,
-4336,-2004,16556,-298,-482,171,-12000,16000,309000,355974,
-4100,-2076,16492,-215,-72,33,-12000,16000,309000,355987,
-3988,-1936,16444,-193,-37,54,-12000,16000,309000,355989,
-4116,-2028,16212,-185,93,88,-12000,16000,309000,355991,
-4076,-2016,16020,-282,814,144,-12000,16000,309000,356004,
-4228,-2000,16112,-302,994,125,-12000,16000,309000,356006,
-4284,-1988,16048,-318,1131,124,-12000,16000,309000,356008,
-4968,-2016,15940,-371,1660,212,-12000,16000,309000,356021,
-5172,-2004,15876,-388,1645,265,-12000,16000,309000,356023,
-5220,-2028,16036,-366,1631,291,-12000,16000,309000,356025,
-5700,-2048,15868,-402,937,462,-12000,16000,309000,356038,
-5808,-2108,15988,-431,722,456,-12000,16000,309000,356040,
-5816,-2036,15996,-420,613,476,-12000,16000,309000,356042,
-5776,-2108,15676,-377,75,418,-12000,16000,309000,356055,
-5940,-2116,15768,-399,33,425,-12000,16000,309000,356057,
-5864,-2240,15860,-362,3,413,-12000,16000,309000,356059,
-5524,-2092,16088,-274,-282,415,-12000,16000,309000,356072,
-5340,-2088,16196,-266,-388,400,-12000,16000,309000,356074,
-5336,-2076,16248,-251,-483,383,-12000,16000,309000,356076,
-4632,-1912,16364,-269,-735,150,-12000,16000,309000,356089,
-4560,-1900,16120,-273,-661,136,-12000,16000,309000,356091,
-4464,-1792,16316,-290,-538,84,-12000,16000,309000,356093,
-4228,-1640,16224,-310,166,-154,-12000,16000,309000,356106,
-4248,-1680,16276,-316,315,-212,-12000,16000,309000,356108,
-4276,-1624,16240,-319,414,-234,-12000,16000,309000,356110,
-4520,-1600,16296,-285,753,-323,-12000,16000,309000,356123,
-4676,-1732,16280,-288,760,-318,-12000,16000,309000,356125,
-4740,-1840,16356,-288,778,-325,-12000,16000,309000,356128,
-4948,-1912,16124,-419,799,-339,-12000,16000,309000,356140,
-5108,-1992,15960,-448,829,-372,-12000,16000,309000,356142,
-5184,-1992,16132,-477,871,-383,-12000,16000,309000,356145,
-5392,-2124,16084,-424,1592,-158,-12000,17000,309000,356157,
-5316,-2220,16004,-404,1730,-125,-12000,17000,309000,356159,
-5392,-2096,16132,-362,1745,-57,-12000,17000,309000,356162,
-5232,-2136,16256,-381,1085,-119,-12000,17000,309000,356174,
-5028,-2224,16232,-366,986,-157,-12000,17000,309000,356176,
-5108,-2308,16244,-371,919,-225,-12000,17000,309000,356179,
-5112,-2192,16012,-336,1053,-435,-12000,17000,309000,356191,
-5132,-2224,16236,-325,1074,-434,-12000,17000,309000,356194,
-5180,-2204,16272,-335,1087,-480,-12000,17000,309000,356196,
-5352,-2068,16460,-295,604,-696,-12000,17000,309000,356208,
-5348,-2072,16440,-302,528,-712,-12000,17000,309000,356211,
-5320,-2136,16672,-261,446,-768,-12000,17000,309000,356213,
-5144,-2092,16624,-307,-156,-1095,-12000,17000,309000,356225,
-5044,-2176,16936,-300,-237,-1164,-12000,17000,309000,356228,
-5080,-2228,16888,-306,-319,-1274,-12000,17000,309000,356230,
-4228,-2116,16960,-323,80,-1712,-12000,17000,309000,356242,
-3964,-2044,17024,-322,365,-1793,-12000,17000,309000,356245,
-3464,-2180,18604,-5,2573,-1792,-12000,17000,309000,356257,
-3388,-2096,18652,6,2997,-1745,-12000,17000,308000,356260,
-3100,-1984,18880,-3,3359,-1749,-12000,17000,308000,356262,
-2224,-1916,20524,235,5218,-1860,-12000,18000,308000,356274,
-2236,-1804,20676,301,5668,-1903,-12000,18000,308000,356276,
-2096,-1764,20568,313,6138,-1961,-12000,18000,308000,356279,
-4204,-1900,21832,828,9218,-1882,-12000,18000,308000,356291,
-4612,-1864,22056,1028,9676,-1785,-12000,19000,308000,356293,
-5704,-2040,22376,1226,9955,-1661,-12000,19000,308000,356296,
-8608,-2220,23268,2264,8139,-875,-12000,19000,307000,356308,
-9032,-2256,23180,2466,7424,-736,-12000,20000,307000,356310,
-9520,-2344,23360,2644,6654,-508,-12000,20000,307000,356313,
-10168,-2616,23956,4315,963,1087,-11000,20000,307000,356325,
-8872,-2584,23624,4465,-319,1110,-11000,20000,307000,356328,
-8004,-2464,23572,4552,-1415,1051,-11000,20000,307000,356330,
-4860,-2224,22744,5846,-2004,100,-11000,20000,307000,356342,
-4844,-2212,22880,6130,-1409,-20,-11000,20000,307000,356345,
-4736,-1784,24000,7538,1098,-538,-10000,20000,307000,356357,
-4892,-1676,23952,7694,1272,-622,-10000,20000,307000,356359,
-5076,-1560,23816,7860,1444,-663,-9000,20000,307000,356362,
-5676,-1408,22988,8748,3390,-533,-9000,20000,307000,356374,
-5612,-1496,22888,8921,3895,-473,-8000,20000,307000,356376,
-5956,-1452,22540,9060,4349,-418,-8000,20000,307000,356379,
-6804,-1596,21580,9650,5675,-357,-7000,21000,307000,356391,
-7092,-1456,21504,9844,5895,-323,-7000,21000,307000,356394,
-7308,-1388,21504,9967,6185,-276,-7000,21000,307000,356396,
-9364,-716,21516,10602,6294,57,-6000,21000,307000,356408,
-9912,-400,21724,10698,5944,150,-6000,21000,307000,356411,
-10376,-284,21748,10793,5487,304,-6000,22000,307000,356413,
-11868,548,21908,11403,1731,1541,-4000,22000,307000,356425,
-11752,708,21876,11523,1025,1860,-4000,22000,307000,356428,
-11696,700,21844,11662,400,2108,-4000,22000,307000,356430,
-10772,936,21396,12271,-2641,3184,-3000,22000,308000,356442,
-10516,764,21128,12399,-3027,3267,-2000,22000,308000,356445,
-10224,704,21116,12513,-3385,3426,-2000,22000,308000,356447,
-9024,248,20424,12901,-4255,3783,-1000,21000,308000,356459,
-8664,196,19864,12880,-4285,3789,-1000,21000,308000,356462,
-8620,228,19280,12833,-4256,3790,0,21000,308000,356464,
-7520,516,17900,12724,-3487,3589,0,21000,309000,356476,
-7296,656,17636,12738,-3226,3568,0,21000,309000,356479,
-7168,696,17592,12739,-2910,3512,1000,21000,309000,356481,
-6612,1528,16452,12549,-869,3028,2000,20000,309000,356493,
-6456,1872,16472,12500,-560,2927,2000,20000,309000,356496,
-6496,1964,16512,12413,-197,2832,2000,20000,309000,356498,
-6704,2660,16168,12149,1832,2501,4000,21000,310000,356510,
-6996,2824,16168,12100,2293,2498,4000,21000,310000,356513,
-7224,2932,15884,11994,2741,2498,4000,21000,310000,356515,
-8392,3248,16420,11672,4141,2754,5000,21000,310000,356527,
-8716,3292,16280,11664,4204,2862,6000,21000,310000,356530,
-8884,3436,16412,11675,4179,2992,6000,21000,310000,356532,
-9324,3668,16060,11612,3381,3683,7000,22000,311000,356544,
-9404,3792,16288,11581,3198,3739,7000,22000,311000,356546,
-9344,3800,16136,11581,3031,3855,8000,22000,311000,356549,
-8684,4024,15860,11530,2023,4151,9000,22000,311000,356561,
-8548,3872,15644,11521,1861,4141,9000,22000,311000,356563,
-8376,4028,15628,11506,1729,4170,9000,22000,311000,356566,
-7944,4144,15036,11264,1411,4018,11000,22000,312000,356578,
-8060,3976,15124,11242,1335,3998,11000,22000,312000,356580,
-8208,4216,14836,11171,1238,3980,11000,22000,312000,356583,
-8428,4468,14112,10855,543,4100,12000,22000,312000,356595,
-8492,4424,13876,10774,455,4127,13000,22000,312000,356597,
-8528,4448,13744,10731,329,4218,13000,22000,313000,356599,
-8560,4732,13216,10453,-336,4332,14000,22000,313000,356612,
-8392,4756,13196,10364,-480,4346,14000,22000,313000,356614,
-8260,4900,12996,10296,-615,4299,14000,22000,313000,356616,
-7448,4920,12876,9900,-938,3966,16000,22000,313000,356629,
-7360,4900,12832,9859,-954,3873,16000,22000,314000,356631,
-7024,4952,12588,9772,-919,3758,16000,22000,314000,356633,
-5760,4960,11980,9272,-629,3029,17000,22000,314000,356646,
-5744,4956,11908,9189,-508,2870,17000,22000,314000,356648,
-5564,5080,11716,9077,-410,2725,17000,22000,314000,356650,
-5564,5148,11020,8451,552,2049,18000,22000,314000,356663,
-5748,5160,11156,8336,752,1935,18000,22000,314000,356665,
-5964,5256,11100,8194,943,1896,19000,22000,314000,356667,
-6976,5668,11024,7618,862,1758,19000,22000,315000,356680,
-7032,5728,10704,7499,617,1736,20000,22000,315000,356682,
-7312,5752,10528,7403,376,1767,20000,22000,315000,356684,
-7184,5716,10036,6947,-1092,1837,20000,22000,315000,356697,
-7272,5684,9952,6837,-1393,1852,21000,22000,315000,356699,
-7140,5748,9784,6727,-1624,1839,21000,22000,315000,356701,
-6152,5624,9308,6081,-2810,1645,21000,21000,315000,356714,
-5916,5856,9268,5930,-2968,1574,22000,21000,315000,356716,
-5684,5864,9092,5806,-3079,1494,22000,21000,315000,356718,
-4044,6196,8692,4955,-2880,771,22000,21000,315000,356731,
-3816,6220,8644,4820,-2741,609,22000,21000,315000,356733,
-3596,6192,8660,4695,-2687,487,22000,21000,315000,356735,
-2664,6344,8512,3961,-2116,-418,23000,21000,315000,356748,
-2608,6464,8508,3805,-1983,-617,23000,21000,315000,356750,
-2660,6376,8312,3665,-1884,-771,23000,21000,315000,356752,
-3092,6160,8380,2759,-1287,-1815,23000,20000,315000,356765,
-3180,6100,8220,2632,-1182,-1966,23000,20000,315000,356767,
-3448,6116,8192,2455,-1123,-2135,23000,20000,314000,356769,
-4588,5580,8664,1669,-877,-2735,23000,20000,314000,356781,
-4744,5432,8920,1568,-885,-2812,23000,20000,314000,356784,
-4896,5356,9156,1440,-923,-2862,23000,20000,314000,356786,
-5028,4328,9428,893,-1196,-3263,23000,21000,314000,356799,
-4996,4220,9540,787,-1181,-3346,23000,21000,314000,356801,
-4984,3924,9392,695,-1143,-3383,23000,21000,314000,356803,
-5036,3304,9144,61,-639,-3579,23000,21000,313000,356815,
-4916,3356,9184,-49,-526,-3602,23000,21000,313000,356818,
-5036,3272,9368,-202,-475,-3582,23000,21000,313000,356820,
-4612,3504,9640,-1001,-191,-3347,23000,21000,313000,356832,
-4616,3472,9708,-1015,-223,-3338,23000,21000,313000,356835,
-4644,3512,9708,-1003,-275,-3322,23000,21000,313000,356837,
-4932,3836,10396,-1356,-269,-3282,23000,21000,312000,356849,
-5064,3880,10532,-1428,-276,-3221,23000,21000,312000,356852,
-5148,3952,10740,-1478,-339,-3131,22000,21000,312000,356854,
-5672,4048,11612,-1403,-1206,-2599,22000,21000,312000,356866,
-5656,3928,11728,-1339,-1450,-2517,22000,21000,312000,356869,
-5908,3964,11772,-1302,-1706,-2422,22000,21000,312000,356871,
-6120,3976,12204,-1178,-3093,-1979,22000,21000,312000,356883,
-6184,3940,12012,-1171,-3294,-1893,22000,21000,311000,356886,
-6108,4080,12380,-1146,-3490,-1820,22000,21000,311000,356888,
-5804,4076,12700,-940,-4298,-1608,22000,20000,311000,356900,
-5604,4108,12652,-906,-4392,-1633,21000,20000,311000,356903,
-5036,4160,13264,-610,-4598,-1779,21000,20000,311000,356915,
-4980,4008,12988,-568,-4607,-1807,21000,20000,311000,356917,
-4892,4088,12916,-524,-4628,-1824,21000,20000,311000,356920,
-4376,4288,12448,-473,-4646,-1855,21000,20000,310000,356932,
-4400,4508,12424,-462,-4457,-1846,21000,20000,310000,356934,
-4396,4492,12472,-415,-4312,-1828,21000,19000,310000,356937,
-4420,5004,12316,-385,-3312,-1559,21000,19000,310000,356949,
-4532,5144,12252,-398,-3202,-1488,21000,19000,310000,356951,
-4608,5080,12184,-397,-3077,-1424,21000,19000,310000,356954,
-4832,5524,12712,-303,-2718,-969,21000,19000,310000,356966,
-4852,5552,12824,-239,-2659,-873,21000,19000,309000,356968,
-4900,5616,12820,-218,-2723,-802,21000,19000,309000,356970,
-4476,5748,13204,4,-3017,-534,21000,19000,309000,356983,
-4356,5752,13236,55,-3083,-521,21000,19000,309000,356985,
-4324,5764,13316,75,-3084,-492,21000,19000,309000,356987,
-3932,5800,13276,132,-2686,-527,21000,18000,309000,357000,
-3944,5808,13308,138,-2567,-546,21000,18000,309000,357002,
-3888,5732,13276,139,-2434,-545,21000,18000,309000,357004,
-3924,5868,13364,102,-1993,-596,21000,18000,309000,357017,
-3924,6032,13464,107,-1884,-597,21000,18000,309000,357019,
-4032,5940,13220,86,-1808,-627,21000,18000,309000,357021,
-4376,6004,12952,-23,-1326,-671,21000,18000,309000,357034,
-4336,6064,12992,-28,-1255,-664,21000,18000,309000,357036,
-4336,6032,12776,-80,-1202,-662,21000,18000,309000,357038,
-4520,6104,12912,-292,-967,-721,21000,18000,309000,357051,
-4472,6168,12768,-358,-954,-724,21000,18000,309000,357053,
-4340,6184,12760,-421,-924,-757,21000,18000,309000,357055,
-4056,6472,13020,-797,-844,-861,20000,18000,309000,357068,
-3984,6492,12840,-823,-796,-885,20000,18000,308000,357070,
-3908,6648,12952,-843,-784,-903,20000,18000,308000,357072,
-3376,6904,13200,-1094,-379,-1282,20000,18000,308000,357085,
-3304,6876,13076,-1121,-242,-1344,20000,18000,308000,357087,
-3264,7000,13156,-1119,-160,-1432,20000,18000,308000,357089,
-3688,6780,13508,-1262,150,-1743,20000,18000,308000,357101,
-3816,6792,13580,-1308,194,-1789,20000,18000,308000,357104,
-4132,6732,13948,-1325,185,-1783,20000,18000,308000,357106,
-4940,6460,14312,-1407,42,-1757,20000,18000,308000,357118,
-4940,6460,14468,-1358,-25,-1721,20000,18000,308000,357121,
-5160,6328,14560,-1392,-96,-1687,20000,18000,308000,357123,
-5096,6112,14844,-1327,-340,-1622,20000,18000,308000,357135,
-5040,6060,14920,-1308,-330,-1607,20000,18000,308000,357138,
-4956,5992,14840,-1279,-336,-1625,20000,18000,308000,357140,
-4696,5984,15076,-1173,-111,-1712,19000,18000,308000,357152,
-4492,6040,15064,-1139,-18,-1759,19000,18000,307000,357155,
-4612,6060,15064,-1090,545,-1902,19000,18000,307000,357167,
-4640,6048,14956,-1067,620,-1909,19000,18000,307000,357169,
-4576,6104,14892,-1057,701,-1943,19000,18000,307000,357172,
-5072,6316,14964,-1043,1101,-1980,19000,18000,307000,357184,
-5060,6320,15016,-1038,1108,-1942,19000,18000,307000,357186,
-5220,6400,14940,-1038,1164,-1948,19000,18000,307000,357189,
-5920,6416,15380,-918,994,-1790,19000,18000,307000,357201,
-5996,6268,15468,-880,894,-1751,19000,18000,307000,357203,
-7304,5884,14296,192,337,-140,18000,24000,305000,358003,
-7116,5716,14152,288,31,-127,18000,24000,305000,358016,
-6920,5740,14292,303,52,-127,18000,24000,305000,358018,
-6900,5648,14212,318,89,-109,18000,24000,305000,358020,
-6728,5712,13840,328,430,-162,19000,24000,305000,358032,
-6788,5732,13900,331,515,-174,19000,24000,305000,358035,
-6780,5752,13796,340,536,-181,19000,24000,305000,358037,
-6744,6072,13476,254,738,-298,19000,25000,305000,358049,
-6704,5968,13440,198,751,-331,19000,25000,305000,358052,
-6644,6088,13384,193,780,-356,19000,25000,305000,358054,
-6812,6268,12928,-24,1071,-480,19000,25000,305000,358066,
-6920,6368,12840,-59,1153,-475,19000,25000,305000,358068,
-6912,6356,13056,-105,1219,-473,19000,25000,305000,358071,
-7120,6184,13540,-131,1231,-494,19000,25000,305000,358083,
-7164,6128,13600,-120,1148,-502,19000,25000,305000,358085,
-7080,6080,13560,-124,1079,-494,19000,25000,305000,358088,
-7200,5884,14048,-22,472,-529,19000,25000,305000,358100,
-7236,5812,14188,-10,374,-557,19000,25000,305000,358102,
-7192,5776,14040,12,282,-537,19000,25000,305000,358105,
-7228,5772,14008,41,-219,-568,19000,25000,304000,358117,
-7096,5900,13828,32,-263,-587,19000,25000,304000,358119,
-7152,5920,13868,41,-326,-626,19000,25000,304000,358121,
-6856,6192,13952,3,-512,-724,19000,25000,304000,358134,
-6804,6248,13756,0,-514,-745,19000,25000,304000,358136,
-6796,6156,13928,-35,-530,-755,19000,25000,304000,358138,
-6644,6180,13732,-79,-128,-873,19000,25000,304000,358151,
-6656,6224,13564,-90,-1,-874,19000,25000,304000,358153,
-6720,6024,13596,-114,95,-886,19000,25000,304000,358155,
-6704,5800,13572,-231,286,-922,19000,25000,304000,358168,
-6728,5804,13520,-258,364,-939,19000,25000,304000,358170,
-6800,5900,13400,-259,425,-917,19000,25000,304000,358172,
-6940,5952,13484,-312,606,-864,19000,25000,304000,358185,
-7000,5788,13720,-292,582,-856,19000,25000,304000,358187,
-7088,6000,13808,-305,521,-840,19000,25000,304000,358189,
-7292,6052,13892,-225,94,-834,19000,25000,304000,358202,
-7280,6048,13868,-223,8,-840,19000,25000,304000,358204,
-7396,6044,14076,-185,-14,-833,19000,25000,304000,358206,
-7492,6056,14276,-73,-315,-819,18000,25000,304000,358219,
-7392,6000,14308,-28,-377,-792,18000,25000,304000,358221,
-7436,5868,14416,-21,-455,-806,18000,25000,304000,358223,
-6836,5740,14040,134,-545,-903,18000,25000,304000,358236,
-6952,5752,14108,149,-483,-928,18000,25000,304000,358238,
-6692,5644,13924,126,-387,-957,18000,25000,304000,358240,
-6408,5832,13396,86,158,-1116,18000,25000,304000,358253,
-6356,5840,13196,51,277,-1112,18000,25000,304000,358255,
-6408,5872,13284,18,411,-1172,18000,25000,304000,358257,
-6784,6376,12920,-116,1007,-1332,18000,25000,304000,358270,
-6900,6464,12996,-144,1032,-1362,18000,25000,304000,358272,
-7092,6560,13060,-126,1045,-1376,18000,25000,304000,358274,
-7824,6660,13744,-175,622,-1289,18000,25000,303000,358287,
-7980,6620,13780,-169,525,-1262,18000,25000,303000,358289,
-8016,6584,13848,-143,369,-1261,18000,25000,303000,358291,
-7840,6204,13976,-70,-471,-1142,18000,25000,303000,358304,
-7800,6020,14024,-69,-580,-1124,18000,25000,303000,358306,
-7624,5952,13928,-53,-679,-1133,18000,25000,303000,358308,
-6948,5680,13900,-2,-681,-1195,18000,25000,303000,358321,
-6768,5704,13788,34,-621,-1216,18000,25000,303000,358323,
-6744,5636,13864,4,-572,-1262,18000,25000,303000,358325,
-6244,5756,13512,26,164,-1512,18000,25000,303000,358337,
-6280,5800,13532,25,332,-1557,18000,25000,303000,358340,
-6316,5864,13412,33,517,-1607,18000,26000,303000,358342,
-6724,6176,13176,-114,1326,-1736,18000,26000,303000,358354,
-6768,6236,13084,-138,1440,-1732,18000,26000,303000,358357,
-7080,6336,13032,-185,1473,-1743,18000,26000,303000,358359,
-7656,6556,13004,-253,1442,-1597,18000,26000,303000,358371,
-7704,6516,13064,-239,1355,-1599,18000,26000,303000,358374,
-7844,6612,13160,-268,1268,-1582,18000,26000,303000,358376,
-8184,6204,13016,-241,782,-1423,18000,26000,302000,358388,
-8224,6252,13096,-219,662,-1390,18000,26000,302000,358390,
-8172,6188,13160,-213,554,-1335,18000,26000,302000,358393,
-7792,5972,12900,-214,-24,-1335,18000,26000,302000,358405,
-7732,5880,12852,-246,-80,-1357,18000,26000,302000,358407,
-7692,5852,12804,-233,-106,-1384,18000,26000,302000,358410,
-7400,6000,12752,-286,-19,-1515,18000,26000,302000,358422,
-7388,5916,12796,-325,40,-1538,18000,26000,302000,358424,
-7404,5928,12916,-335,77,-1544,18000,26000,302000,358427,
-7700,6072,12568,-390,518,-1629,18000,26000,302000,358439,
-7596,6144,12456,-419,616,-1619,18000,26000,302000,358441,
-7648,6052,12504,-414,749,-1601,18000,26000,302000,358444,
-7808,6080,11860,-505,1458,-1604,18000,27000,302000,358456,
-7764,5976,11856,-542,1600,-1617,18000,27000,302000,358458,
-7932,5964,11840,-548,1749,-1620,18000,27000,302000,358461,
-8036,6128,11228,-843,2581,-1704,18000,27000,302000,358473,
-8204,6268,11252,-919,2710,-1726,18000,27000,302000,358475,
-8212,6336,11100,-962,2850,-1730,18000,27000,302000,358478,
-9080,6668,11296,-1278,3209,-1770,18000,28000,302000,358490,
-9116,6656,11428,-1316,3199,-1792,18000,28000,302000,358492,
-9332,6740,11356,-1364,3201,-1783,18000,28000,302000,358494,
-10336,6608,11224,-1517,2906,-1570,18000,28000,302000,358507,
-10496,6516,11260,-1548,2825,-1495,18000,28000,302000,358509,
-10612,6468,11308,-1558,2758,-1419,18000,28000,302000,358512,
-11048,5968,10872,-1796,2278,-1000,17000,29000,302000,358524,
-11028,6032,10916,-1837,2229,-894,17000,29000,302000,358526,
-10848,6144,10068,-2202,2306,-559,17000,29000,302000,358539,
-10832,6120,9864,-2290,2417,-544,17000,29000,302000,358541,
-10860,6184,10012,-2375,2548,-515,17000,29000,302000,358543,
-11104,6676,9740,-2808,3128,-351,17000,29000,302000,358556,
-11260,6520,9704,-2902,3219,-307,17000,29000,302000,358558,
-11456,6656,9688,-2984,3271,-272,17000,30000,302000,358560,
-12212,6380,9668,-3354,3673,140,17000,30000,302000,358573,
-12272,6384,9724,-3406,3737,251,17000,30000,302000,358575,
-12508,6244,9688,-3440,3825,366,17000,30000,302000,358578,
-13176,5692,9952,-3660,3885,1105,17000,31000,302000,358590,
-13156,5584,9692,-3732,3872,1272,17000,31000,302000,358592,
-13224,5444,9408,-3803,3809,1450,17000,31000,303000,358595,
-13184,5356,9092,-4325,3490,2172,16000,31000,303000,358607,
-13268,5428,9156,-4426,3438,2300,16000,31000,303000,358610,
-13200,5464,9252,-4538,3441,2419,16000,31000,303000,358612,
-13156,6108,9084,-5054,3516,2891,16000,32000,303000,358624,
-13248,6116,8976,-5114,3543,2949,16000,32000,304000,358627,
-13400,6108,8952,-5238,3591,3048,16000,32000,304000,358629,
-13812,6064,9164,-5700,4284,3535,16000,32000,304000,358642,
-13808,6028,9384,-5745,4482,3644,16000,32000,304000,358644,
-13900,5856,9364,-5820,4644,3762,16000,32000,304000,358646,
-13860,5220,9184,-6334,5252,4383,16000,33000,305000,358659,
-13852,5148,9036,-6444,5389,4475,16000,33000,305000,358661,
-13776,5096,9124,-6552,5523,4570,16000,33000,305000,358663,
-13876,5452,9644,-7053,6326,4923,15000,34000,306000,358676,
-14012,5640,9956,-7129,6383,4995,15000,34000,306000,358678,
-14052,5824,9964,-7233,6413,5022,15000,34000,306000,358680,
-15004,6748,9764,-7775,6142,5432,15000,34000,307000,358693,
-15212,6760,9792,-7845,6119,5580,15000,34000,307000,358695,
-15352,6824,9728,-7958,6070,5710,15000,35000,308000,358697,
-15824,6112,10136,-8403,6228,6887,15000,35000,309000,358710,
-15736,5884,10048,-8484,6202,7133,15000,35000,309000,358712,
-15668,5488,10144,-8561,6168,7388,15000,35000,309000,358715,
-14784,4172,9936,-8995,6060,8605,15000,36000,310000,358727,
-14860,3996,9904,-9111,6126,8720,15000,36000,310000,358730,
-14576,3784,9952,-9207,6222,8886,15000,36000,311000,358732,
-14664,3644,10032,-9875,6733,9572,14000,36000,312000,358744,
-14856,3676,10052,-9999,6767,9708,14000,36000,312000,358747,
-14960,3768,10216,-10098,6883,9791,14000,37000,313000,358749,
-15884,4416,10488,-10604,6716,10364,14000,37000,314000,358762,
-16108,4620,10680,-10659,6526,10499,14000,37000,314000,358764,
-16364,4748,10764,-10752,6407,10611,14000,37000,314000,358766,
-16644,4996,10596,-11027,5461,11213,14000,38000,316000,358779,
-16684,4944,10484,-11079,5313,11351,14000,38000,316000,358781,
-15756,4240,10068,-11462,5334,11876,14000,38000,318000,358794,
-15476,4080,9948,-11599,5542,11971,14000,38000,318000,358796,
-15332,3996,9956,-11719,5865,12029,14000,38000,318000,358798,
-14396,3132,10040,-12467,7550,12432,14000,39000,320000,358811,
-14404,3068,10160,-12614,7797,12469,14000,39000,321000,358813,
-14312,3012,10332,-12747,8040,12504,14000,39000,321000,358815,
-14380,3236,10616,-13494,8725,12666,14000,39000,323000,358828,
-14468,3220,10708,-13620,8788,12701,14000,39000,323000,358830,
-14532,3508,10392,-13736,8779,12790,14000,40000,323000,358833,
-15956,4324,9392,-14523,8456,13162,13000,40000,325000,358845,
-16304,4448,9212,-14688,8416,13252,13000,40000,326000,358848,
-17160,4384,8724,-15384,8683,14146,13000,41000,328000,358860,
-17144,4308,8840,-15487,8734,14296,13000,41000,328000,358862,
-17336,3856,8972,-15572,8744,14484,13000,41000,328000,358865,
-16696,2156,10100,-16029,9144,15006,13000,42000,331000,358877,
-16604,1704,10572,-16094,9314,15037,13000,42000,331000,358880,
-16548,1460,10820,-16099,9411,15047,13000,42000,331000,358882,
-16248,340,11008,-16229,9411,15133,13000,43000,334000,358895,
-16300,236,10856,-16295,9367,15129,13000,43000,334000,358897,
-16316,240,10860,-16313,9341,15169,13000,43000,334000,358899,
-16508,432,9408,-16788,9523,15527,13000,43000,337000,358912,
-16540,616,9320,-16905,9565,15644,13000,44000,337000,358914,
-16644,608,9140,-17046,9600,15797,13000,44000,337000,358916,
-16572,124,8880,-17777,9616,16711,13000,44000,340000,358929,
-16592,-32,9008,-17907,9657,16918,13000,44000,340000,358931,
-16488,-1440,9868,-18515,9551,17864,13000,45000,343000,358944,
-16392,-1756,9744,-18582,9363,18008,13000,45000,343000,358946,
-16340,-1920,9444,-18689,9069,18133,13000,45000,344000,358948,
-15936,-2720,8664,-19613,7470,18658,13000,46000,347000,358961,
-15904,-2824,8436,-19815,7250,18716,13000,46000,347000,358963,
-15676,-2828,8264,-20005,7065,18762,13000,46000,348000,358965,
-15212,-2324,7280,-21199,6006,18947,13000,46000,350000,358978,
-15172,-2280,7096,-21496,5902,19018,13000,46000,351000,358980,
-14124,-2572,6840,-22578,5888,18828,12000,46000,353000,358993,
-13888,-2648,7044,-22803,5967,18732,12000,46000,354000,358995,
-13912,-2728,7268,-23035,6071,18613,12000,46000,354000,358997,
-13436,-4124,8356,-23926,6926,18154,12000,47000,357000,359010,
-13400,-4412,8504,-24079,7120,18104,12000,47000,357000,359012,
-13512,-4712,9180,-24225,7294,18049,12000,47000,358000,359015,
-14232,-6048,10688,-24658,7690,18421,11000,47000,0,359027,
-14416,-6256,10696,-24728,7553,18547,11000,47000,1000,359029,
-14500,-6344,10736,-24809,7336,18693,11000,47000,1000,359032,
-14628,-6784,10012,-25163,5936,19533,10000,48000,4000,359044,
-14588,-6768,9892,-25258,5709,19687,10000,48000,5000,359047,
-14428,-6792,9752,-25334,5474,19853,10000,48000,5000,359049,
-13368,-6440,8740,-25911,4203,20535,10000,48000,8000,359062,
-13016,-6324,8652,-26074,4166,20609,10000,48000,9000,359064,
-12536,-6300,8704,-26197,4205,20641,10000,48000,9000,359066,
-11032,-6196,8984,-26629,4862,20306,9000,48000,12000,359079,
-10952,-6232,9088,-26691,4922,20153,9000,48000,12000,359081,
-10896,-6364,9768,-26944,5163,19090,8000,48000,15000,359094,
-10996,-6388,9952,-26981,5201,18907,8000,48000,16000,359096,
-11280,-6548,10012,-27012,5282,18741,8000,48000,16000,359098,
-12892,-7004,10032,-27316,5141,18332,7000,49000,19000,359111,
-13220,-7200,10452,-27381,5052,18317,7000,49000,19000,359113,
-13420,-7188,10604,-27423,4958,18384,7000,49000,20000,359116,
-14056,-7824,11456,-27482,3638,18799,6000,49000,22000,359128,
-13984,-7876,11500,-27405,3268,18922,6000,49000,23000,359131,
-13780,-7892,11716,-27357,2957,19010,6000,49000,23000,359133,
-12456,-8524,10868,-27005,1506,19314,5000,49000,26000,359145,
-12092,-8568,10664,-26967,1420,19324,5000,49000,26000,359148,
-11828,-8592,10496,-26957,1471,19317,5000,49000,27000,359150,
-10324,-9032,10232,-27060,2185,19150,4000,49000,30000,359163,
-10120,-9104,10572,-27092,2325,19059,4000,49000,30000,359165,
-10016,-9224,10820,-27109,2496,18994,4000,49000,31000,359167,
-10192,-9892,12060,-27114,2938,18571,3000,49000,33000,359180,
-10584,-9928,12364,-27067,3015,18518,3000,49000,34000,359182,
-11828,-10576,13272,-26895,2898,18504,2000,49000,36000,359195,
-12172,-10620,13836,-26849,2749,18534,2000,49000,37000,359197,
-12348,-10820,13964,-26757,2608,18591,2000,49000,37000,359199,
-13056,-10988,14412,-26318,1248,19010,1000,49000,40000,359212,
-13060,-10996,14340,-26234,1011,19083,1000,49000,40000,359214,
-12864,-11076,14152,-26161,808,19156,1000,49000,41000,359217,
-11804,-11036,13384,-25768,802,19473,0,49000,43000,359229,
-11520,-11004,13292,-25692,835,19471,0,49000,44000,359232,
-11272,-11052,13212,-25620,944,19470,0,49000,44000,359234,
-10424,-11068,12944,-25337,1464,19044,0,50000,47000,359246,
-10332,-11120,12764,-25235,1474,18943,0,50000,47000,359249,
-10212,-11056,12952,-25168,1592,18882,0,50000,48000,359251,
-9252,-11124,14176,-24549,1710,18273,0,50000,50000,359264,
-9116,-11064,14472,-24435,1626,18135,0,50000,51000,359266,
-8940,-11008,14648,-24298,1479,18006,0,50000,51000,359268,
-8104,-10928,15296,-23368,635,17457,-1000,50000,54000,359281,
-7896,-10748,15452,-23178,521,17384,-1000,50000,54000,359283,
-7612,-10720,15568,-23013,539,17255,-1000,50000,54000,359285,
-6816,-10212,15256,-22235,304,16581,-2000,50000,57000,359298,
-6568,-10096,15296,-22080,220,16426,-2000,50000,57000,359300,
-6472,-10188,15108,-21943,197,16261,-2000,50000,58000,359303,
-6292,-9968,15356,-21220,686,15180,-2000,50000,60000,359315,
-6428,-9864,15448,-21080,803,14939,-2000,50000,60000,359318,
-6532,-9896,15468,-20951,887,14730,-3000,50000,60000,359320,
-7204,-9808,18420,-19818,921,13631,-3000,50000,62000,359332,
-7216,-9760,18760,-19564,715,13465,-3000,50000,63000,359335,
-6268,-9280,19384,-17930,-287,13254,-4000,49000,64000,359347,
-5916,-9316,19284,-17580,-390,13095,-4000,49000,65000,359350,
-5752,-9284,19104,-17301,-459,12916,-4000,49000,65000,359352,
-4000,-8832,18568,-16039,-503,11676,-4000,49000,67000,359365,
-4096,-8848,18640,-15758,-423,11426,-4000,49000,67000,359367,
-3748,-8860,18544,-15441,-404,11101,-4000,49000,67000,359369,
-4320,-8220,18108,-14276,-550,9026,-5000,49000,68000,359382,
-4604,-7868,18120,-14120,-567,8801,-5000,49000,69000,359384,
-4872,-7792,17920,-13956,-544,8616,-5000,49000,69000,359387,
-5716,-6956,19108,-12785,-260,8304,-6000,49000,70000,359399,
-5596,-6924,19944,-12384,-316,8217,-6000,49000,70000,359401,
-5520,-6880,20464,-11827,-467,7988,-6000,49000,70000,359404,
-5940,-6840,21432,-9243,-3223,5849,-6000,48000,71000,359416,
-6060,-6932,21576,-8722,-3813,5619,-6000,48000,71000,359419,
-6320,-6948,21472,-8152,-4362,5466,-6000,48000,72000,359421,
-5740,-6816,20364,-5738,-6015,5348,-6000,47000,72000,359434,
-5416,-6724,20376,-5362,-6130,5299,-6000,47000,72000,359436,
-4892,-6632,20512,-4983,-6093,5243,-6000,47000,73000,359438,
-2412,-5696,19868,-2840,-6060,4293,-6000,46000,73000,359451,
-1788,-5420,19596,-2493,-6032,3918,-6000,46000,73000,359453,
-1332,-5188,19288,-2198,-5902,3547,-6000,46000,73000,359455,
-312,-3912,17956,-1110,-3789,1074,-6000,45000,74000,359468,
-324,-3788,18056,-990,-3308,651,-6000,45000,74000,359470,
-324,-3620,18228,-797,-2784,234,-6000,45000,74000,359473,
-1528,-3396,19364,268,-729,-2080,-6000,45000,73000,359485,
-1824,-3424,19600,517,-452,-2454,-6000,45000,73000,359488,
-2084,-3448,19496,785,-251,-2807,-6000,45000,73000,359490,
-3796,-3684,19080,2212,273,-4141,-6000,45000,73000,359502,
-3996,-3644,19036,2457,287,-4324,-6000,45000,73000,359505,
-4060,-3648,19008,2691,258,-4537,-7000,44000,72000,359507,
-4096,-3556,17632,3757,49,-5526,-7000,44000,72000,359519,
-3804,-3496,17576,3919,88,-5682,-7000,44000,71000,359522,
-3688,-3280,17532,4065,159,-5900,-7000,44000,71000,359524,
-3232,-2956,17216,4816,445,-7438,-7000,44000,70000,359537,
-3168,-2904,17052,4975,437,-7764,-7000,44000,70000,359539,
-3324,-2904,16940,5144,436,-8105,-7000,44000,70000,359541,
-3968,-3072,16960,6002,182,-9794,-7000,43000,69000,359554,
-4288,-3248,16676,6174,95,-10059,-8000,43000,68000,359556,
-4492,-3336,16716,6314,36,-10346,-8000,43000,68000,359558,
-5508,-4056,16304,7176,-312,-11637,-8000,43000,67000,359571,
-5712,-4248,16188,7338,-335,-11726,-8000,43000,66000,359573,
-5804,-4404,16092,7516,-334,-11984,-8000,43000,66000,359576,
-6128,-5036,15000,8181,-181,-12801,-9000,43000,64000,359588,
-6112,-5064,14944,8269,-77,-12954,-9000,43000,64000,359591,
-6036,-5284,14836,8391,26,-13110,-9000,42000,64000,359593,
-5768,-5508,15384,8803,606,-14171,-9000,42000,62000,359605,
-5756,-5564,15496,8884,669,-14378,-9000,42000,61000,359608,
-5812,-5804,15468,8975,737,-14604,-9000,42000,61000,359610,
-6264,-5908,16116,9570,831,-15767,-10000,42000,59000,359623,
-6444,-5972,16224,9666,836,-15956,-10000,42000,59000,359625,
-6732,-6108,16480,9779,795,-16137,-10000,42000,58000,359627,
-7876,-6276,17084,10658,-79,-16923,-11000,41000,56000,359640,
-8084,-6432,17112,10834,-374,-17021,-11000,41000,56000,359642,
-8204,-6364,17180,11033,-638,-17101,-11000,41000,55000,359644,
-8820,-7036,16372,11995,-1911,-17307,-11000,40000,53000,359657,
-8908,-7188,16284,12137,-2119,-17303,-11000,40000,53000,359659,
-8640,-7700,15732,12936,-2974,-17510,-11000,40000,50000,359672,
-8440,-7940,15432,13042,-3095,-17587,-11000,39000,50000,359674,
-8312,-7936,15400,13155,-3242,-17671,-11000,39000,50000,359676,
-7436,-8048,15084,13451,-3765,-18459,-12000,38000,47000,359689,
-7360,-8080,15236,13469,-3736,-18633,-12000,38000,47000,359691,
-7260,-7988,15388,13522,-3687,-18803,-12000,38000,47000,359693,
-6892,-8068,16280,13770,-2766,-19691,-12000,37000,44000,359706,
-6740,-8192,16216,13867,-2616,-19834,-12000,37000,44000,359708,
-6612,-8520,16620,14591,-1904,-20608,-12000,37000,41000,359721,
-6692,-8628,16716,14739,-1761,-20721,-12000,36000,41000,359723,
-6652,-8788,16872,14893,-1628,-20808,-12000,36000,40000,359725,
-6860,-9396,16500,15643,-838,-21038,-12000,36000,38000,359738,
-6860,-9376,16484,15885,-696,-21057,-12000,36000,37000,359740,
-6996,-9596,16392,15990,-578,-21065,-12000,35000,37000,359743,
-7176,-9860,15772,16470,-51,-21229,-12000,35000,34000,359755,
-7248,-9980,15616,16554,-50,-21281,-12000,35000,34000,359758,
-7276,-10004,15604,16601,-21,-21324,-12000,35000,34000,359760,
-7816,-9848,16420,17101,-458,-21533,-12000,34000,31000,359773,
-7876,-9848,16388,17252,-659,-21578,-12000,34000,31000,359775,
-8004,-9876,16088,17962,-1421,-21831,-12000,33000,28000,359787,
-8040,-9940,16012,18062,-1499,-21890,-12000,33000,28000,359790,
-8080,-9940,15876,18197,-1518,-21885,-12000,33000,27000,359792,
-7728,-10184,16244,18886,-1440,-22094,-11000,33000,25000,359805,
-7592,-10164,16080,18998,-1393,-22151,-11000,32000,24000,359807,
-7488,-10200,15872,19157,-1343,-22168,-11000,32000,24000,359810,
-6560,-10032,15032,19414,-366,-22357,-11000,32000,21000,359822,
-6468,-10040,14888,19408,-41,-22422,-11000,32000,21000,359825,
-5780,-9604,15416,19583,1256,-23067,-10000,31000,18000,359837,
-5972,-9648,15440,19618,1430,-23235,-10000,31000,17000,359839,
-5936,-9404,15408,19633,1568,-23412,-10000,31000,17000,359842,
-7232,-8972,16304,19855,1855,-24020,-10000,31000,14000,359854,
-7604,-8920,16468,19942,1750,-24086,-10000,31000,14000,359856,
-7876,-8880,16400,20031,1589,-24132,-10000,31000,13000,359859,
-8536,-7972,15580,20193,516,-23936,-9000,30000,10000,359871,
-8508,-7812,15704,20213,431,-23863,-9000,30000,10000,359873,
-8456,-7748,15556,20310,338,-23794,-9000,30000,9000,359876,
-7920,-8340,14784,20789,-561,-23942,-9000,30000,7000,359888,
-7748,-8516,14720,20846,-715,-24055,-9000,30000,6000,359891,
-7352,-9200,14276,21137,-1138,-24841,-8000,29000,3000,359903,
-7408,-9212,14296,21166,-1149,-25024,-8000,29000,3000,359906,
-7236,-9424,14292,21217,-1169,-25206,-8000,29000,2000,359908,
-7052,-9132,14644,21272,-1104,-26226,-7000,28000,0,359920,
-6944,-9092,14724,21281,-1112,-26437,-7000,28000,359000,359923,
-6864,-9076,14756,21323,-1143,-26606,-7000,28000,358000,359925,
-7180,-8776,14996,21536,-1197,-27621,-7000,28000,355000,359937,
-7324,-8704,15060,21556,-1213,-27749,-7000,28000,355000,359940,
-7412,-8780,14904,21623,-1276,-27897,-6000,28000,354000,359942,
-8108,-8772,14352,21798,-1396,-28367,-6000,27000,351000,359955,
-8356,-8824,14244,21796,-1284,-28405,-6000,27000,351000,359957,
-8888,-8340,13936,21559,-1042,-28089,-5000,27000,348000,359969,
-8992,-8548,13908,21608,-1028,-28004,-5000,27000,347000,359972,
-8868,-8732,13784,21687,-1045,-28003,-5000,27000,346000,359974,
-9096,-9660,14036,21952,-1462,-28175,-5000,26000,343000,359986,
-9436,-9916,14104,22002,-1649,-28226,-4000,26000,343000,359989,
-9576,-10072,14248,22062,-1899,-28313,-4000,26000,342000,359991,
-10312,-9932,14012,22220,-3181,-28485,-4000,26000,339000,360003,
-10444,-9852,13884,22244,-3330,-28483,-4000,26000,339000,360006,
-10648,-9088,13268,22208,-4563,-28409,-3000,25000,336000,360018,
-10632,-8864,13156,22168,-4809,-28414,-3000,25000,335000,360021,
-10432,-8680,12912,22149,-4971,-28400,-3000,25000,334000,360023,
-9976,-8112,12544,21891,-5071,-28218,-2000,24000,331000,360035,
-9888,-8012,12420,21836,-5047,-28184,-2000,24000,331000,360038,
-9816,-7964,12580,21798,-5002,-28209,-2000,24000,330000,360040,
-9116,-8152,12464,21529,-4882,-28253,-1000,24000,327000,360052,
-9032,-8232,12380,21460,-4865,-28286,-1000,24000,327000,360055,
-8512,-8308,12168,21046,-4725,-28662,0,23000,324000,360067,
-8528,-8160,12116,20985,-4788,-28816,0,23000,323000,360069,
-8496,-8164,12196,20847,-4939,-28950,0,23000,323000,360072,
-9300,-7292,12040,19951,-4716,-29634,0,23000,319000,360084,
-9692,-7100,11892,19794,-4501,-29731,0,22000,319000,360087,
-9876,-6960,11740,19585,-4262,-29756,0,22000,318000,360089,
-10696,-6180,11452,18650,-2806,-29743,0,22000,315000,360101,
-10772,-6108,11516,18509,-2537,-29734,0,22000,315000,360104,
-10968,-6228,11508,18380,-2282,-29676,0,22000,314000,360106,
-11784,-6440,11808,17655,-1371,-29249,1000,22000,311000,360118,
-12044,-6656,11656,17499,-1268,-29100,1000,22000,310000,360121,
-12192,-6704,11576,17371,-1210,-28955,1000,22000,310000,360123,
-13444,-7168,11956,16659,-1618,-27759,1000,22000,307000,360136,
-13656,-7224,12016,16517,-1859,-27466,1000,22000,306000,360138,
-14460,-7228,11348,15760,-3022,-25966,1000,22000,304000,360150,
-14636,-7044,11352,15607,-3065,-25716,1000,22000,303000,360153,
-14672,-7044,11200,15300,-2987,-25502,2000,22000,303000,360155,
-15080,-6192,11004,14345,-1900,-24042,2000,22000,300000,360167,
-15008,-6056,11252,14238,-1837,-23863,2000,22000,300000,360170,
-15008,-5912,11000,14125,-1836,-23691,2000,22000,299000,360172,
-15212,-5048,11160,13205,-1604,-22706,2000,23000,297000,360184,
-15196,-4984,11256,13103,-1462,-22440,2000,23000,296000,360187,
-15168,-4324,10612,12371,-26,-20835,2000,23000,294000,360199,
-15240,-4056,10504,12182,314,-20500,2000,23000,294000,360201,
-15180,-3952,10504,11978,567,-20135,2000,23000,293000,360204,
-14804,-4268,11124,11278,1193,-18619,3000,23000,291000,360216,
-15036,-4672,11796,11601,788,-18920,3000,23000,291000,360218,
-16224,-2948,9392,11244,425,-18652,3000,23000,291000,360221,
-18144,-2264,10864,10201,-319,-14976,3000,24000,289000,360233,
-18520,-1884,9832,9871,-461,-14335,3000,24000,289000,360236,
-18416,-1780,9928,9337,-487,-13787,3000,24000,288000,360238,
-17452,-2720,12264,8685,-1846,-12463,3000,24000,287000,360250,
-17176,-2508,11968,8784,-2437,-12457,3000,24000,287000,360253,
-16696,-396,9816,7821,-3827,-11181,4000,24000,286000,360265,
-16352,-340,10196,7633,-3522,-10645,4000,24000,285000,360267,
-15684,28,9820,7499,-3018,-10022,4000,24000,285000,360270,
-12452,580,8708,5976,1340,-7576,4000,24000,284000,360282,
-11944,484,8944,5696,2124,-7378,4000,24000,284000,360284,
-11720,476,9044,5471,2845,-7253,4000,24000,284000,360287,
-11872,72,9336,4231,6188,-6574,4000,25000,284000,360299,
-12312,116,9392,4031,6663,-6399,4000,25000,283000,360301,
-12868,-12,9472,3832,7030,-6162,4000,25000,283000,360304,
-15568,-448,10532,3099,7236,-4714,4000,26000,283000,360316,
-15932,-508,10992,3048,6932,-4455,4000,27000,283000,360318,
-16376,-384,11336,3026,6560,-4182,4000,27000,283000,360321,
-16928,428,12004,3087,3899,-2535,4000,27000,282000,360333,
-16632,612,11696,3072,3510,-2259,4000,27000,282000,360335,
-16432,764,11440,3059,3124,-1962,5000,27000,282000,360338,
-13900,1164,10408,2919,2113,-1307,5000,28000,282000,360350,
-13232,1168,10176,2815,2125,-1299,5000,28000,282000,360352,
-12988,1196,10076,2704,2202,-1309,5000,28000,282000,360355,
-11840,1648,9832,2006,3410,-1546,5000,28000,282000,360367,
-11724,1572,9792,1882,3648,-1588,5000,28000,282000,360369,
-11812,1808,9756,1790,3893,-1601,5000,29000,282000,360372,
-12828,2004,10288,1385,4668,-1459,5000,29000,282000,360384,
-12964,1924,10560,1354,4655,-1361,5000,29000,282000,360386,
-13180,1812,10564,1337,4644,-1237,5000,29000,282000,360389,
-13764,1768,11276,1197,3481,-446,5000,30000,282000,360401,
-13672,1872,11240,1191,3190,-238,5000,30000,282000,360404,
-13672,1844,11236,1178,2887,-86,5000,30000,282000,360406,
-12644,2452,10692,930,1646,609,6000,30000,282000,360418,
-12460,2568,10544,866,1507,678,6000,30000,282000,360421,
-12264,2672,10644,786,1424,748,6000,30000,282000,360423,
-10972,3120,11148,374,1349,751,6000,31000,282000,360436,
-10856,3256,11172,308,1334,716,6000,31000,282000,360438,
-10864,3152,11472,230,1320,649,6000,31000,282000,360440,
-11080,2756,12216,35,830,320,6000,31000,282000,360453,
-11100,2744,12528,33,648,303,6000,31000,282000,360455,
-11380,2716,12500,20,465,326,6000,31000,282000,360457,
-11736,2500,12856,-38,-587,517,6000,31000,282000,360470,
-11684,2504,12836,-44,-776,548,6000,31000,282000,360472,
-11552,2444,12736,-37,-964,648,6000,31000,282000,360474,
-10600,2744,12116,-129,-1545,1125,6000,31000,283000,360487,
-10372,2776,12168,-146,-1511,1175,6000,31000,283000,360489,
-10000,2944,11892,-171,-1370,1168,6000,31000,283000,360492,
-9044,3252,11976,-426,-460,951,6000,31000,283000,360504,
-9084,3136,12028,-463,-214,868,6000,31000,283000,360506,
-8956,3140,12072,-514,15,792,6000,31000,283000,360509,
-9444,2932,12696,-675,1066,412,6000,31000,283000,360521,
-9520,2772,12716,-735,1172,358,6000,31000,283000,360523,
-9560,2792,12872,-748,1246,323,6000,31000,283000,360526,
-10004,2660,12904,-812,1194,173,6000,31000,283000,360538,
-10144,2688,13100,-789,1198,188,6000,31000,283000,360541,
-10092,2572,13096,-776,1258,212,6000,31000,283000,360543,
-9968,2520,13408,-760,1337,278,6000,31000,283000,360555,
-10024,2464,13520,-769,1290,302,6000,31000,283000,360558,
-9892,2560,13460,-788,1228,330,6000,31000,283000,360560,
-9636,2748,13308,-856,1139,629,6000,31000,283000,360573,
-9588,2776,13352,-872,1133,670,6000,31000,283000,360575,
-9364,2852,13344,-884,1207,718,6000,31000,283000,360577,
-9136,2876,13356,-1003,1649,746,6000,32000,283000,360590,
-9132,2852,13196,-1002,1757,754,6000,32000,283000,360592,
-9112,2620,13116,-1051,1887,721,6000,32000,283000,360594,
-9092,2352,13104,-1247,2259,584,6000,32000,283000,360607,
-9168,2240,13060,-1246,2274,595,6000,32000,283000,360609,
-9200,2148,13184,-1280,2261,555,6000,32000,283000,360611,
-9636,1892,13540,-1303,2011,484,6000,32000,284000,360624,
-9756,1884,13680,-1299,1920,520,6000,32000,284000,360626,
-9768,1800,13856,-1249,1887,518,6000,32000,284000,360628,
-9856,1616,14196,-1053,1234,702,6000,32000,284000,360641,
-9688,1660,14140,-1000,1037,749,6000,32000,284000,360643,
-9664,1648,14212,-1011,879,778,6000,32000,284000,360646,
-9292,1656,13892,-931,653,879,6000,32000,284000,360658,
-8976,1732,13832,-962,688,923,6000,32000,284000,360660,
-8952,1760,13776,-953,709,885,6000,32000,284000,360663,
-8476,1788,13616,-961,940,684,6000,33000,284000,360675,
-8344,1948,13688,-961,1008,608,6000,33000,284000,360677,
-8380,1772,13804,-978,1077,522,6000,33000,284000,360680,
-8516,1880,13816,-1019,1265,181,6000,33000,284000,360692,
-8708,1832,14008,-1023,1233,162,6000,33000,284000,360694,
-8800,1800,13976,-1045,1205,98,6000,33000,284000,360697,
-9636,1744,13952,-1063,734,47,6000,33000,284000,360709,
-9668,1800,13932,-1085,592,51,5000,33000,284000,360712,
-9776,1664,14008,-1073,466,107,5000,33000,284000,360714,
-9968,1624,14596,-976,-364,218,5000,33000,284000,360726,
-9884,1620,14568,-949,-531,230,5000,33000,284000,360729,
-9868,1632,14688,-898,-682,278,5000,33000,284000,360731,
-9224,1684,14380,-844,-1390,375,5000,33000,284000,360743,
-9100,1724,14084,-843,-1410,398,5000,33000,284000,360746,
-9180,1788,14004,-846,-1409,386,5000,33000,284000,360748,
-8448,1992,14048,-911,-1103,345,5000,32000,284000,360761,
-8356,2032,14212,-901,-1067,314,5000,32000,284000,360763,
-8228,2064,14112,-913,-983,258,5000,32000,284000,360765,
-8680,2160,14404,-965,-626,153,5000,32000,284000,360778,
-8808,2068,14240,-946,-563,187,5000,32000,284000,360780,
-8896,2012,14544,-931,-551,193,5000,32000,284000,360782,
-9228,2032,14728,-791,-618,306,5000,32000,284000,360795,
-9216,2160,14716,-782,-659,315,5000,32000,284000,360797,
-9204,2080,14740,-707,-677,374,5000,32000,284000,360799,
-8872,1924,14648,-455,-677,381,5000,32000,284000,360812,
-8724,1808,14448,-414,-694,363,5000,32000,284000,360814,
-8672,1784,14572,-381,-619,330,5000,32000,284000,360817,
-8216,1884,14268,-364,-116,125,5000,32000,284000,360829,
-8104,1772,14300,-346,-9,78,5000,32000,284000,360831,
-8092,1860,14328,-343,94,25,5000,32000,284000,360834,
-8252,2152,14476,-329,549,-252,5000,32000,284000,360846,
-8504,2240,14484,-339,547,-259,5000,32000,284000,360848,
-8592,2272,14400,-337,559,-274,5000,32000,284000,360851,
-9276,2364,14524,-259,344,-215,5000,32000,284000,360863,
-9372,2328,14592,-247,327,-226,5000,32000,284000,360865,
-9400,2360,14548,-182,290,-171,5000,32000,284000,360868,
-9388,2148,14720,-18,-176,-43,5000,32000,284000,360880,
-9408,2152,14500,35,-259,-33,5000,32000,284000,360883,
-9220,2184,14380,47,-307,-51,5000,32000,284000,360885,
-8496,1828,13580,111,-226,-109,5000,32000,284000,360897,
-8264,1796,13772,122,-146,-143,5000,32000,284000,360900,
-8256,1776,13636,95,-24,-170,5000,32000,284000,360902,
-7952,1732,13440,-16,801,-419,5000,32000,284000,360914,
-7960,1880,13272,-11,938,-455,5000,32000,284000,360917,
-7912,1816,13412,-56,1034,-504,5000,32000,284000,360919,
-8436,1944,13732,-110,1348,-671,5000,32000,284000,360932,
-8552,1992,13508,-98,1376,-686,5000,32000,284000,360934,
-8768,1984,13720,-104,1386,-706,5000,32000,284000,360936,
-9400,2008,13916,-43,1202,-669,5000,32000,284000,360949,
-9448,2124,13900,-52,1107,-653,5000,33000,284000,360951,
-9504,2048,13944,-29,986,-633,5000,33000,284000,360953,
-9456,1876,13720,55,452,-502,5000,33000,284000,360966,
-9264,1796,13740,81,376,-512,5000,33000,284000,360968,
-9280,1752,13616,57,334,-502,5000,33000,284000,360971,
-8796,1748,13364,-61,330,-545,5000,33000,284000,360983,
-8800,1700,13388,-126,343,-574,5000,33000,284000,360985,
-8720,1644,13180,-155,413,-551,5000,33000,284000,360988,
-8780,1784,13508,-366,650,-615,5000,33000,284000,361000,
-8828,1856,13416,-389,668,-584,5000,33000,284000,361002,
-8856,1932,13308,-416,647,-585,5000,33000,284000,361005,
-9276,1984,13332,-528,520,-532,5000,33000,284000,361017,
-9312,1936,13388,-523,473,-505,5000,33000,284000,361019,
-9204,2020,13436,-546,419,-485,5000,33000,284000,361022,
-9516,1920,13376,-537,12,-515,5000,33000,284000,361034,
-9604,1896,13272,-569,-97,-503,5000,33000,284000,361037,
-9664,1792,13380,-547,-182,-517,5000,33000,284000,361039,
-10212,1496,13768,-525,-761,-430,5000,33000,284000,361051,
-10192,1476,13980,-504,-918,-373,5000,33000,284000,361054,
-10220,1548,14124,-472,-1066,-361,5000,33000,284000,361056,
-10032,1520,14336,-365,-1829,-35,4000,33000,284000,361068,
-9864,1624,14152,-335,-1919,22,4000,33000,284000,361071,
-9752,1756,14296,-350,-1968,88,4000,33000,284000,361073,
-9088,2260,13800,-397,-1751,242,4000,32000,284000,361085,
-8892,2260,13792,-440,-1574,243,4000,32000,284000,361088,
-8776,2232,13824,-478,-1395,261,4000,32000,284000,361090,
-8580,2092,13724,-689,-178,266,4000,32000,284000,361102,
-8628,2192,13680,-706,6,266,4000,32000,284000,361105,
-8640,2024,13804,-719,194,271,4000,32000,284000,361107,
-8912,1708,13848,-727,686,285,4000,32000,284000,361119,
-9132,1620,13872,-720,695,284,4000,32000,284000,361122,
-9080,1540,13952,-721,650,332,4000,32000,284000,361124,
-9260,1608,14008,-601,597,452,4000,32000,284000,361137,
-9164,1624,14004,-553,592,434,4000,32000,284000,361139,
-9212,1664,14036,-523,589,458,4000,32000,284000,361141,
-8636,1732,13824,-405,745,498,4000,33000,284000,361154,
-8532,1780,13768,-377,773,475,4000,33000,284000,361156,
-8624,1868,13768,-377,841,461,4000,33000,284000,361158,
-8372,1968,13636,-470,1160,304,4000,33000,284000,361171,
-8392,2108,13700,-508,1268,264,4000,33000,284000,361173,
-8464,2084,13676,-517,1306,223,4000,33000,284000,361175,
-8828,2156,13868,-510,1269,18,4000,33000,284000,361188,
-8928,2196,14008,-459,1194,-39,4000,33000,284000,361190,
-9060,2168,13988,-440,1134,-61,4000,33000,284000,361192,
-9552,1968,13900,-302,282,-110,4000,33000,284000,361205,
-9624,1924,13828,-270,117,-81,4000,33000,284000,361207,
-9636,1832,13900,-259,-16,-117,4000,33000,284000,361210,
-9256,1808,13420,-206,-425,-67,4000,33000,284000,361222,
-9096,1856,13352,-203,-436,-89,4000,33000,284000,361225,
-9032,1832,13396,-206,-457,-87,4000,33000,284000,361227,
-8252,1756,13292,-303,-218,-254,4000,33000,284000,361239,
-8340,1832,13204,-347,-195,-290,4000,33000,284000,361242,
-8412,1736,13336,-346,-108,-315,4000,33000,284000,361244,
-8572,1796,12968,-553,381,-390,4000,33000,284000,361256,
-8820,1844,13188,-582,478,-379,4000,33000,284000,361259,
-8944,1828,13092,-594,562,-364,4000,33000,284000,361261,
-9260,1856,13520,-645,466,-219,4000,33000,284000,361273,
-9352,1900,13580,-654,401,-184,4000,33000,284000,361276,
-9444,1796,13588,-668,299,-176,4000,33000,284000,361278,
-9388,1788,13588,-640,-288,-57,4000,33000,284000,361291,
-9204,1876,13620,-623,-373,-56,4000,33000,284000,361293,
-9140,1968,13548,-605,-470,-46,4000,33000,284000,361295,
-8692,1792,13156,-655,-653,-58,4000,33000,284000,361308,
-8568,1816,13304,-655,-653,-90,4000,33000,284000,361310,
