Ax,Ay,Az,Gx,Gy,Gz,Roll,Pitch,Yaw,Timestamp,Target
-840,9516,12668,-922,632,-482,29000,3000,45000,1417975,
-776,9548,12508,-895,557,-469,29000,3000,45000,1417977,
-824,9620,12636,-938,539,-489,29000,3000,45000,1417980,
-756,9544,12680,-997,172,-367,29000,3000,45000,1417992,
-772,9448,12796,-1046,151,-381,29000,3000,45000,1417994,
-744,9380,12568,-989,120,-377,29000,3000,45000,1417997,
-552,9376,12720,-968,175,-370,28000,3000,45000,1418009,
-484,9400,12928,-935,146,-379,28000,3000,45000,1418012,
-488,9340,12660,-934,247,-364,28000,3000,45000,1418014,
-500,9312,12916,-902,346,-366,28000,3000,45000,1418026,
-404,9432,12888,-868,448,-396,28000,3000,45000,1418029,
-476,9580,12872,-897,418,-399,28000,3000,45000,1418031,
-504,9576,12876,-880,572,-444,28000,3000,45000,1418043,
-484,9456,12616,-951,538,-480,28000,3000,45000,1418046,
-604,9452,12836,-899,559,-479,28000,3000,45000,1418048,
-872,9320,12736,-931,498,-489,28000,3000,45000,1418060,
-908,9284,12688,-884,466,-481,28000,3000,45000,1418063,
-880,9256,12876,-931,518,-457,28000,3000,45000,1418065,
-732,9328,12600,-945,404,-438,28000,3000,45000,1418078,
-716,9340,12708,-932,480,-426,28000,3000,45000,1418080,
-780,9340,12712,-958,405,-405,28000,3000,45000,1418082,
-872,9364,12788,-1031,387,-362,28000,3000,45000,1418094,
-856,9472,12844,-1029,364,-378,28000,3000,45000,1418097,
-864,9412,12824,-1042,389,-379,28000,3000,45000,1418099,
-1060,9416,12928,-1086,129,-334,28000,3000,45000,1418111,
-1116,9388,12972,-1102,89,-362,28000,3000,45000,1418114,
-1036,9376,12964,-1067,50,-338,28000,3000,45000,1418116,
-1012,9164,12944,-1110,-259,-307,28000,3000,45000,1418129,
-1000,9112,13072,-1032,-220,-329,28000,3000,45000,1418131,
-848,9044,13096,-1072,-261,-328,28000,3000,45000,1418133,
-568,8876,13068,-943,-170,-205,28000,3000,45000,1418146,
-480,8852,13036,-880,-52,-215,28000,3000,45000,1418148,
-500,9040,13012,-901,4,-193,28000,3000,45000,1418150,
-572,9144,13024,-855,311,-214,28000,3000,45000,1418163,
-564,9156,13068,-887,377,-223,28000,3000,45000,1418165,
-656,9144,13012,-879,413,-214,28000,3000,45000,1418167,
-760,9176,13012,-879,474,-175,28000,3000,45000,1418180,
-808,9088,13088,-908,377,-186,28000,3000,45000,1418182,
-844,9132,13084,-869,437,-169,28000,3000,45000,1418185,
-776,9100,13064,-921,247,-208,28000,3000,45000,1418197,
-792,9148,12992,-861,301,-200,28000,3000,45000,1418199,
-740,9132,13036,-882,265,-210,28000,3000,45000,1418202,
-684,8980,13016,-859,244,-241,28000,3000,45000,1418214,
-672,9008,13232,-838,252,-265,28000,3000,45000,1418216,
-692,9008,13200,-812,267,-243,28000,3000,45000,1418219,
-760,9036,13016,-790,257,-277,28000,3000,45000,1418231,
-868,9020,13044,-798,172,-253,28000,3000,45000,1418234,
-864,9100,12928,-768,280,-267,28000,3000,45000,1418236,
-740,8924,13036,-791,160,-236,28000,3000,45000,1418248,
-744,8912,12968,-740,276,-228,28000,3000,45000,1418251,
-764,8924,12988,-777,192,-209,28000,3000,45000,1418253,
-672,9168,12852,-739,247,-212,28000,3000,45000,1418266,
-612,9096,12960,-821,221,-202,28000,3000,45000,1418268,
-628,9196,12948,-760,214,-206,28000,3000,45000,1418270,
-756,9172,13024,-855,108,-227,28000,3000,45000,1418283,
-720,9212,12976,-866,66,-226,28000,3000,45000,1418285,
-716,9236,12928,-872,-24,-230,28000,3000,45000,1418287,
-724,9212,13084,-874,-156,-188,27000,3000,45000,1418300,
-784,9248,13180,-875,-237,-191,27000,3000,45000,1418302,
-796,9180,13200,-867,-192,-204,27000,3000,45000,1418305,
-576,9284,13044,-912,-484,-178,27000,3000,45000,1418317,
-472,9232,13156,-856,-402,-176,27000,3000,45000,1418319,
-516,9172,13108,-914,-436,-188,27000,3000,45000,1418322,
-272,9012,13200,-807,-234,-294,27000,3000,45000,1418334,
-272,8916,13200,-823,-142,-318,27000,3000,45000,1418336,
-324,8920,13212,-794,-150,-315,27000,3000,45000,1418339,
-492,9016,13256,-746,122,-388,27000,3000,45000,1418351,
-388,9040,13036,-733,126,-376,27000,3000,45000,1418354,
-512,9096,12956,-732,215,-420,27000,3000,45000,1418356,
-452,8944,12988,-701,225,-433,27000,3000,44000,1418368,
-544,9068,13136,-729,218,-456,27000,3000,44000,1418371,
-660,9112,13088,-685,180,-467,27000,3000,44000,1418373,
-760,9360,13060,-765,120,-481,27000,3000,44000,1418385,
-832,9344,13252,-715,89,-470,27000,3000,44000,1418388,
-724,9356,12972,-795,44,-500,27000,3000,44000,1418390,
-712,9316,13236,-876,-179,-503,27000,3000,44000,1418402,
-688,9272,13128,-908,-259,-494,27000,3000,44000,1418405,
-612,9256,13128,-864,-199,-527,27000,3000,44000,1418407,
-616,9124,13012,-875,-302,-594,27000,3000,44000,1418420,
-664,9180,13048,-845,-206,-612,27000,3000,44000,1418422,
-716,9088,13084,-919,-304,-624,27000,3000,44000,1418424,
-472,8828,13336,-846,-91,-619,27000,3000,44000,1418437,
-480,8892,13144,-891,-96,-650,27000,3000,44000,1418439,
-436,8896,13024,-804,0,-685,27000,3000,44000,1418441,
-468,8924,13236,-823,268,-715,27000,3000,44000,1418454,
-488,8944,13044,-746,330,-714,27000,3000,44000,1418456,
-652,8984,13148,-754,387,-698,27000,3000,44000,1418458,
-760,9088,13128,-806,541,-718,27000,3000,44000,1418471,
-840,9072,13084,-771,609,-738,27000,4000,44000,1418473,
-920,9088,13024,-814,570,-757,27000,4000,44000,1418475,
-1164,9048,13008,-819,459,-686,27000,4000,44000,1418488,
-1092,9004,13112,-846,387,-673,27000,4000,44000,1418490,
-1096,9076,13128,-829,382,-653,27000,4000,44000,1418492,
-1068,8896,13056,-880,169,-666,27000,4000,44000,1418505,
-992,8848,13028,-810,237,-656,27000,4000,44000,1418507,
-928,8772,12920,-871,134,-633,27000,4000,44000,1418510,
-1100,8952,12960,-828,53,-602,27000,4000,44000,1418522,
-1108,8996,12884,-869,-56,-556,27000,4000,44000,1418524,
-1124,8956,13012,-831,-9,-575,27000,4000,44000,1418527,
-984,8920,13172,-809,-148,-497,27000,4000,44000,1418539,
-1020,8868,13064,-862,-229,-462,27000,4000,44000,1418541,
-1068,8928,13060,-784,-147,-455,27000,4000,44000,1418544,
-816,8880,13192,-850,-220,-448,27000,4000,44000,1418556,
-932,8832,13052,-805,-164,-424,27000,4000,44000,1418559,
-768,8900,13004,-835,-172,-469,27000,4000,44000,1418561,
-752,8812,13052,-721,-54,-403,27000,4000,44000,1418573,
-776,8912,12988,-768,-62,-409,27000,4000,44000,1418576,
-824,8936,13048,-712,-18,-403,27000,4000,44000,1418578,
-708,8888,13344,-715,19,-453,27000,4000,44000,1418591,
-704,8892,13252,-650,106,-467,27000,4000,44000,1418593,
-664,8908,13132,-684,144,-455,27000,4000,44000,1418595,
-848,8896,13168,-581,241,-428,27000,4000,44000,1418607,
-712,8768,13192,-612,181,-409,27000,4000,44000,1418610,
-920,8776,13116,-571,260,-448,27000,4000,44000,1418612,
-920,8752,13328,-585,97,-397,27000,4000,44000,1418625,
-920,8656,13288,-509,178,-413,27000,4000,44000,1418627,
-932,8632,13144,-537,128,-379,27000,4000,44000,1418629,
-724,8852,12984,-460,285,-373,27000,4000,44000,1418642,
-680,8808,13140,-512,210,-356,27000,4000,44000,1418644,
-800,8916,13112,-465,299,-342,27000,4000,44000,1418646,
-728,8964,12924,-582,313,-403,27000,4000,44000,1418659,
-776,9016,13112,-532,392,-416,27000,4000,44000,1418661,
-812,9080,12988,-559,339,-442,27000,4000,44000,1418663,
-900,9092,13056,-625,229,-498,27000,4000,44000,1418676,
-984,9172,12912,-719,183,-486,27000,4000,44000,1418678,
-1016,9208,13060,-674,174,-491,27000,4000,44000,1418680,
-960,8760,13076,-777,21,-473,26000,4000,44000,1418693,
-776,8832,13164,-710,50,-464,26000,4000,44000,1418695,
-732,8728,13188,-744,67,-454,26000,4000,44000,1418698,
-888,8692,13084,-703,78,-443,26000,4000,44000,1418700,
-936,8728,13016,-683,179,-490,26000,4000,43000,1418712,
-860,8764,12932,-645,131,-490,26000,4000,43000,1418715,
-952,8728,13024,-650,154,-488,26000,4000,43000,1418717,
-1060,8848,13132,-643,5,-435,26000,4000,43000,1418730,
-1064,8824,13256,-657,44,-398,26000,4000,43000,1418732,
-1072,8764,13168,-628,-57,-414,26000,4000,43000,1418734,
-964,8984,13168,-661,-40,-400,26000,4000,43000,1418747,
-1076,8964,13128,-672,-173,-403,26000,4000,43000,1418749,
-984,9068,13160,-671,-81,-393,26000,4000,43000,1418751,
-1112,9116,13032,-779,-307,-407,26000,4000,43000,1418764,
-1036,9036,13176,-750,-298,-405,26000,4000,43000,1418766,
-1108,9104,13176,-789,-408,-405,26000,4000,43000,1418769,
-968,8836,13520,-749,-354,-381,26000,4000,43000,1418781,
-884,8784,13340,-782,-373,-382,26000,4000,43000,1418783,
-812,8708,13268,-733,-321,-360,26000,4000,43000,1418786,
-552,8660,13240,-615,-4,-385,26000,4000,43000,1418798,
-544,8664,13192,-638,40,-380,26000,4000,43000,1418801,
-516,8784,13196,-579,98,-375,26000,4000,43000,1418803,
-828,8968,13260,-563,332,-421,26000,4000,43000,1418815,
-920,8912,13272,-540,316,-449,26000,4000,43000,1418818,
-972,8928,13112,-573,348,-443,26000,4000,43000,1418820,
-1132,8872,13056,-579,134,-418,26000,4000,43000,1418832,
-1128,8896,13156,-593,135,-403,26000,4000,43000,1418835,
-1216,8984,13100,-620,37,-419,26000,4000,43000,1418837,
-1124,8804,13204,-660,-185,-402,26000,4000,43000,1418850,
-1116,8768,13256,-639,-234,-373,26000,4000,43000,1418852,
-1012,8604,13168,-667,-270,-362,26000,4000,43000,1418854,
-768,8636,13096,-611,-163,-273,26000,4000,43000,1418867,
-764,8564,13124,-570,-112,-271,26000,4000,43000,1418869,
-868,8672,13120,-626,-83,-272,26000,4000,43000,1418871,
-828,8740,13180,-584,86,-224,26000,4000,43000,1418884,
-840,8824,13140,-650,73,-240,26000,4000,43000,1418886,
-856,8768,13196,-603,116,-256,26000,4000,43000,1418888,
-756,8688,13096,-627,149,-235,26000,4000,43000,1418901,
-940,8692,13220,-626,201,-273,26000,4000,43000,1418903,
-832,8740,13340,-622,133,-309,26000,4000,43000,1418905,
-960,8972,13084,-613,221,-338,26000,4000,43000,1418918,
-928,8872,13244,-617,192,-331,26000,4000,43000,1418920,
-1052,8940,13136,-655,84,-354,26000,4000,43000,1418922,
-964,8744,13332,-592,130,-371,26000,4000,43000,1418935,
-968,8800,13348,-606,89,-372,26000,4000,43000,1418937,
-944,8728,13280,-570,172,-396,26000,4000,43000,1418939,
-836,8612,13248,-509,248,-371,26000,4000,43000,1418952,
-856,8616,13192,-551,261,-400,26000,4000,43000,1418954,
-716,8760,13276,-491,339,-333,26000,4000,43000,1418957,
-980,8644,13056,-450,534,-329,26000,4000,43000,1418969,
-840,8624,12964,-407,616,-350,26000,4000,43000,1418972,
-896,8692,13080,-459,566,-354,26000,4000,43000,1418974,
-1052,8752,12956,-416,602,-331,26000,4000,43000,1418986,
-1164,8868,12924,-466,490,-332,26000,4000,43000,1418988,
-1176,8856,12996,-419,560,-328,26000,4000,43000,1418991,
-1220,8864,13128,-497,277,-275,26000,4000,43000,1419003,
-1272,8820,12852,-506,242,-286,26000,4000,43000,1419005,
-1320,8880,12992,-521,142,-267,26000,4000,43000,1419008,
-1308,8976,13120,-610,-166,-143,26000,4000,43000,1419020,
-1184,8984,13084,-570,-157,-145,26000,4000,43000,1419023,
-1244,8912,13004,-628,-196,-147,26000,4000,43000,1419025,
-1072,8808,13148,-627,-250,-153,26000,4000,43000,1419037,
-1084,8808,13160,-652,-252,-153,26000,4000,43000,1419040,
-916,8744,13188,-618,-316,-136,26000,4000,43000,1419042,
-784,8872,13228,-593,-149,-125,26000,4000,43000,1419054,
-804,8848,13284,-564,-132,-138,26000,4000,43000,1419057,
-696,8808,13164,-566,-24,-171,26000,4000,43000,1419059,
-704,8608,13172,-501,131,-274,26000,4000,43000,1419072,
-776,8572,13236,-500,229,-285,26000,4000,43000,1419074,
-724,8676,13184,-495,222,-299,26000,4000,43000,1419076,
-776,8768,13172,-413,545,-303,26000,4000,43000,1419089,
-852,8848,13152,-491,486,-338,26000,4000,43000,1419091,
-956,8940,13244,-425,549,-335,26000,4000,43000,1419093,
-1220,8956,12988,-506,434,-306,26000,4000,43000,1419106,
-1236,8876,13140,-461,474,-272,26000,4000,43000,1419108,
-1264,8896,13292,-521,416,-274,26000,4000,43000,1419111,
-1272,8860,13148,-505,293,-235,26000,4000,43000,1419123,
-1120,8936,13144,-539,263,-261,26000,5000,43000,1419126,
-1268,8700,13200,-514,183,-237,26000,5000,43000,1419128,
-1200,8868,13196,-554,105,-217,26000,5000,43000,1419140,
-1348,8852,13136,-504,76,-235,26000,5000,43000,1419143,
-1268,8812,13060,-543,65,-203,26000,5000,43000,1419145,
-1024,8740,13252,-517,63,-166,26000,5000,43000,1419157,
-1132,8796,13168,-540,86,-204,26000,5000,43000,1419159,
-1032,8740,13272,-522,92,-176,26000,5000,43000,1419162,
-1032,8784,13180,-498,311,-195,26000,5000,43000,1419174,
-1068,8784,13128,-501,348,-177,26000,5000,43000,1419176,
-1052,8808,13220,-453,416,-198,26000,5000,43000,1419179,
-1176,8756,13244,-487,490,-174,26000,5000,43000,1419191,
-1204,8792,13172,-418,528,-178,26000,5000,43000,1419193,
-1296,8656,13012,-449,525,-178,26000,5000,43000,1419196,
-1412,8848,13064,-451,592,-82,26000,5000,43000,1419208,
-1272,8728,13112,-417,536,-100,26000,5000,43000,1419211,
-1396,8752,13008,-431,589,-104,26000,5000,43000,1419213,
-1472,8744,13108,-456,387,-48,26000,5000,43000,1419225,
-1460,8772,13280,-410,468,20,26000,5000,43000,1419228,
-1428,8784,13208,-467,391,-16,26000,5000,43000,1419230,
-1596,8844,13192,-385,338,65,26000,5000,43000,1419242,
-1660,8768,13328,-440,243,96,26000,5000,43000,1419245,
-1632,8804,13332,-360,265,128,26000,5000,43000,1419247,
-1816,8772,13272,-331,143,334,26000,5000,43000,1419259,
-1728,8656,13568,-282,82,360,26000,5000,43000,1419262,
-1680,8700,13444,-260,114,419,26000,5000,43000,1419264,
-1496,9108,13088,-198,32,534,26000,5000,43000,1419276,
-1384,9140,13268,-155,98,561,26000,5000,43000,1419278,
-1464,9128,13152,-189,62,558,26000,5000,43000,1419281,
-1444,9008,13264,-65,273,541,26000,5000,43000,1419293,
-1568,8920,13152,-24,264,558,26000,5000,43000,1419295,
-1560,8960,13132,4,318,582,26000,5000,43000,1419298,
-1544,9040,13036,15,301,650,26000,5000,43000,1419300,
-1436,9172,12816,112,626,688,26000,5000,43000,1419312,
-1524,9204,12848,87,596,687,26000,5000,43000,1419315,
-1420,9184,12676,128,703,640,26000,5000,43000,1419317,
-1856,9320,12416,35,792,689,26000,5000,43000,1419330,
-1800,9320,12364,80,857,685,26000,5000,43000,1419332,
-1788,9240,12472,7,779,695,26000,5000,43000,1419334,
-1960,9256,12360,37,840,691,26000,5000,43000,1419336,
-2288,9444,12332,-153,646,739,26000,5000,44000,1419349,
-2288,9396,12068,-172,686,779,26000,5000,44000,1419351,
-2240,9420,12284,-235,565,775,26000,5000,44000,1419353,
-2332,9288,12240,-367,488,842,26000,5000,44000,1419366,
-2332,9316,12216,-449,420,868,27000,5000,44000,1419368,
-2432,9268,12116,-407,494,898,27000,5000,44000,1419371,
-2452,9324,12180,-577,370,1027,27000,5000,44000,1419383,
-2540,9292,12168,-566,395,1055,27000,5000,44000,1419385,
-2540,9216,12292,-621,354,1055,27000,5000,44000,1419388,
-2484,9048,12500,-698,420,1198,27000,5000,44000,1419400,
-2596,9064,12396,-699,425,1231,27000,5000,44000,1419403,
-2508,8900,12300,-712,473,1236,27000,5000,44000,1419405,
-2648,8988,12216,-762,457,1440,27000,5000,44000,1419417,
-2676,9036,12480,-716,480,1464,27000,5000,44000,1419420,
-2664,9088,12496,-761,482,1538,27000,5000,44000,1419422,
-2584,9092,12300,-797,455,1754,27000,5000,44000,1419435,
-2656,9060,12376,-813,479,1784,27000,5000,44000,1419437,
-2636,9076,12544,-819,477,1829,27000,5000,44000,1419439,
-2636,9056,12260,-889,525,2050,27000,5000,45000,1419452,
-2752,9068,12276,-857,547,2105,27000,5000,45000,1419454,
-2604,9092,12468,-900,568,2144,27000,5000,45000,1419456,
-2452,9160,12184,-984,668,2309,27000,5000,45000,1419469,
-2548,9008,12260,-1018,708,2328,27000,5000,45000,1419471,
-2420,8960,12284,-1036,731,2369,26000,5000,45000,1419473,
-2348,8764,12460,-1033,923,2498,26000,5000,45000,1419486,
-2408,8868,12320,-1040,966,2529,26000,5000,45000,1419488,
-2480,8760,12412,-1010,1046,2588,26000,5000,45000,1419491,
-2336,8780,12448,-974,1238,2730,26000,5000,46000,1419503,
-2372,8744,12416,-1013,1333,2743,26000,5000,46000,1419505,
-2348,8624,12516,-975,1309,2782,26000,5000,46000,1419508,
-2308,8952,12188,-975,1549,3021,26000,5000,46000,1419520,
-2420,8936,12384,-960,1612,3038,26000,5000,46000,1419522,
-2344,8844,12232,-984,1613,3080,26000,5000,46000,1419525,
-2380,8692,12344,-992,2009,3179,26000,5000,47000,1419537,
-2392,8652,12196,-983,2035,3216,26000,5000,47000,1419540,
-2436,8596,12308,-965,2172,3243,26000,5000,47000,1419542,
-2364,8536,12076,-1012,2592,3510,26000,5000,47000,1419554,
-2352,8516,12064,-985,2710,3536,26000,5000,47000,1419557,
-2356,8480,11932,-1058,2766,3567,26000,5000,47000,1419559,
-2788,8668,11880,-1097,2907,3794,26000,5000,48000,1419571,
-2868,8660,11772,-1162,2833,3822,26000,5000,48000,1419574,
-3040,8760,11892,-1138,2806,3886,26000,5000,48000,1419576,
-3520,8848,12148,-1409,2009,4223,26000,5000,48000,1419588,
-3456,8808,12036,-1395,1864,4295,26000,5000,49000,1419591,
-3652,8872,12048,-1473,1686,4352,26000,5000,49000,1419593,
-3024,8412,12268,-1551,986,4724,26000,5000,49000,1419605,
-2968,8444,12316,-1603,938,4779,26000,5000,49000,1419608,
-2808,8368,12384,-1581,922,4832,26000,5000,49000,1419610,
-1620,8072,12288,-1599,1424,4970,26000,5000,50000,1419622,
-1432,8000,12316,-1592,1567,4985,26000,5000,50000,1419625,
-1324,7768,12488,-1566,1797,4963,26000,5000,50000,1419627,
-996,7436,12184,-1336,3039,4970,26000,5000,50000,1419640,
-952,7552,12264,-1307,3373,4988,26000,5000,51000,1419642,
-1056,7540,12316,-1299,3565,5042,26000,5000,51000,1419644,
-1956,8504,12412,-1295,4183,5293,26000,5000,51000,1419657,
-2244,8640,12452,-1336,4109,5384,26000,5000,51000,1419659,
-2496,8632,12288,-1413,4037,5399,26000,5000,52000,1419661,
-3252,8336,12552,-1688,2987,5810,26000,5000,52000,1419674,
-3308,8072,12592,-1701,2733,5881,26000,5000,52000,1419676,
-3320,7852,12460,-1689,2554,5963,26000,5000,52000,1419678,
-2960,7456,12368,-1780,1281,6451,26000,5000,53000,1419691,
-2704,7404,12376,-1776,1164,6489,26000,5000,53000,1419693,
-2544,7284,12320,-1806,958,6590,26000,5000,53000,1419696,
-1588,6424,12260,-1678,810,6806,26000,5000,54000,1419708,
-1444,6180,12332,-1635,659,6909,26000,5000,54000,1419711,
-1240,6144,12156,-1553,811,6932,26000,5000,54000,1419713,
-824,6544,12288,-1462,1441,7399,26000,5000,55000,1419725,
-872,6628,12372,-1446,1539,7479,26000,5000,55000,1419728,
-928,6852,12332,-1428,1694,7511,26000,5000,55000,1419730,
-1500,7264,12148,-1775,1667,7859,26000,5000,56000,1419742,
-1540,7316,12064,-1762,1672,7947,26000,4000,56000,1419745,
-1560,7068,12204,-1827,1563,8014,26000,4000,56000,1419747,
-1640,6324,11820,-1989,1021,8491,26000,4000,57000,1419760,
-1640,6280,11904,-1994,959,8563,25000,4000,57000,1419762,
-1560,6176,11928,-2038,843,8673,25000,4000,57000,1419764,
-772,5472,11640,-2135,651,8938,25000,4000,58000,1419777,
-760,5224,11672,-2217,559,8993,25000,4000,58000,1419779,
-452,4960,11692,-2156,679,9009,25000,4000,58000,1419781,
668,3976,11592,-2034,1559,9182,25000,3000,59000,1419794,
884,4016,11708,-1845,1888,9209,25000,3000,59000,1419796,
1172,3940,11664,-1763,2211,9237,25000,3000,59000,1419799,
1436,4692,11376,-1435,4315,9330,25000,3000,60000,1419811,
1400,5020,11360,-1405,4569,9435,25000,3000,61000,1419813,
1128,5652,11404,-1301,4915,9498,25000,3000,61000,1419816,
92,7300,11068,-2069,5502,9809,25000,3000,62000,1419828,
-184,7572,11188,-2178,5455,9903,25000,3000,62000,1419830,
-284,7620,11180,-2258,5420,9909,25000,3000,62000,1419833,
-1144,7340,11444,-2832,4647,10342,25000,3000,63000,1419845,
-1184,7312,11416,-2885,4522,10431,25000,3000,64000,1419848,
-1236,7332,11432,-3034,4334,10576,25000,3000,64000,1419850,
-412,6780,11512,-3416,3595,10910,24000,3000,65000,1419862,
-236,6480,11496,-3511,3373,10950,24000,3000,65000,1419865,
-68,6204,11820,-3535,3228,10960,24000,3000,65000,1419867,
1200,4824,12380,-3671,2979,10924,24000,3000,66000,1419880,
1324,4716,12324,-3602,3125,10817,24000,3000,67000,1419882,
1632,4484,12628,-3613,3111,10787,24000,3000,67000,1419884,
2924,3616,13028,-3140,4542,10375,24000,3000,68000,1419897,
3112,3540,13032,-3097,4870,10300,23000,3000,68000,1419899,
3348,3676,12884,-2926,5183,10247,23000,3000,68000,1419901,
3264,5352,12676,-2564,6768,9659,23000,3000,69000,1419913,
3116,5820,12848,-2564,7015,9598,23000,3000,70000,1419916,
3000,6152,12560,-2641,7164,9480,23000,3000,70000,1419918,
2220,6956,12328,-2961,7169,9130,23000,3000,71000,1419931,
1956,7060,12512,-2957,7062,9032,23000,3000,71000,1419933,
1720,7180,12636,-3026,6813,9069,23000,3000,71000,1419935,
872,8204,13316,-3645,4925,9083,23000,3000,72000,1419948,
872,8256,13464,-3832,4481,9113,23000,3000,72000,1419950,
940,8064,13520,-3968,4084,9120,23000,3000,73000,1419952,
2340,6652,14644,-4333,2150,8959,22000,3000,73000,1419965,
2620,6316,14812,-4337,1970,8879,22000,3000,74000,1419967,
2884,5984,14996,-4374,1769,8828,22000,3000,74000,1419969,
4588,4872,15252,-4124,1485,8132,22000,2000,75000,1419982,
5068,4812,15404,-4090,1506,7999,22000,2000,75000,1419984,
5100,4664,15584,-4028,1694,7844,22000,2000,75000,1419987,
6708,4356,15200,-3565,3712,6908,21000,2000,76000,1419999,
6784,4236,15232,-3440,4194,6656,21000,2000,76000,1420001,
7088,4292,15244,-3401,4499,6526,21000,2000,76000,1420004,
6272,5640,14852,-3059,6022,5347,21000,2000,77000,1420016,
6044,5948,14804,-3093,6082,5271,21000,3000,77000,1420019,
5548,6600,14988,-3048,6132,5171,21000,3000,77000,1420021,
4228,7960,15240,-3571,5162,4646,20000,3000,77000,1420034,
3936,7860,15332,-3849,4768,4481,20000,3000,77000,1420036,
3736,7952,15292,-3942,4453,4339,20000,3000,78000,1420038,
2900,6244,15980,-4347,1956,3643,20000,3000,78000,1420051,
3004,5924,16268,-4338,1491,3550,20000,3000,78000,1420053,
3012,5716,16248,-4341,934,3490,20000,3000,78000,1420055,
4168,4848,16580,-4179,-1124,2916,19000,2000,78000,1420068,
4668,4692,16592,-4203,-1442,2813,19000,2000,78000,1420070,
5012,4600,16624,-4104,-1510,2669,19000,2000,78000,1420072,
6968,4316,16932,-3873,-975,1723,19000,2000,79000,1420085,
7328,4120,16764,-3747,-618,1517,19000,2000,79000,1420087,
7684,4160,16712,-3737,-278,1261,19000,2000,79000,1420089,
8308,4176,16336,-3377,2035,-144,18000,2000,79000,1420102,
8148,4344,16232,-3323,2532,-406,18000,2000,79000,1420104,
8048,4368,16084,-3302,2940,-642,18000,2000,79000,1420107,
6856,5496,15992,-3212,4703,-1787,18000,2000,79000,1420119,
6568,5744,16112,-3280,4860,-1985,18000,2000,79000,1420121,
6336,5908,16140,-3290,5003,-2145,18000,2000,79000,1420124,
4556,6044,16076,-3567,4855,-3035,18000,3000,78000,1420136,
4360,6124,16012,-3557,4741,-3157,17000,3000,78000,1420139,
4172,6032,15956,-3681,4563,-3283,17000,3000,78000,1420141,
3448,5504,15992,-3837,3363,-3875,17000,3000,78000,1420153,
3400,5344,16160,-3885,3050,-4010,17000,3000,78000,1420156,
3388,5288,16272,-3848,2777,-4140,17000,3000,78000,1420158,
3772,4936,16568,-3822,1533,-4952,16000,4000,78000,1420170,
3764,4992,16672,-3756,1495,-5045,16000,4000,78000,1420173,
3904,5000,16712,-3771,1441,-5211,16000,4000,77000,1420175,
4108,5388,16344,-3595,1996,-6089,16000,4000,77000,1420188,
4108,5404,16356,-3650,2106,-6258,16000,4000,77000,1420190,
4108,5548,16224,-3609,2295,-6400,16000,4000,77000,1420192,
3500,5760,15420,-3812,3251,-7364,15000,4000,76000,1420204,
3332,5900,15368,-3808,3475,-7497,15000,5000,76000,1420207,
3164,5812,15468,-3884,3681,-7678,15000,5000,76000,1420209,
1980,5096,15476,-3939,4437,-8299,15000,5000,75000,1420221,
1764,5012,15368,-3984,4487,-8361,15000,5000,75000,1420224,
1680,5020,15356,-3897,4537,-8493,15000,5000,75000,1420226,
172,4604,15464,-3863,4773,-8869,14000,6000,74000,1420239,
120,4528,15536,-3786,4886,-8909,14000,6000,74000,1420241,
-208,4512,15424,-3790,4868,-8992,14000,6000,74000,1420243,
-1596,5368,15036,-3642,4870,-8897,14000,7000,73000,1420256,
-1676,5452,14836,-3738,4690,-8906,14000,7000,73000,1420258,
-2012,5648,14796,-3739,4634,-8849,14000,7000,73000,1420260,
-2676,5636,14436,-4094,3550,-8646,13000,8000,72000,1420273,
-2680,5592,14788,-4089,3366,-8584,13000,8000,72000,1420275,
-2796,5400,14856,-4158,3179,-8528,13000,8000,72000,1420278,
-2576,4680,15732,-4087,2530,-8242,12000,8000,71000,1420290,
-2544,4512,15920,-4034,2484,-8197,12000,8000,71000,1420292,
-2540,4344,15728,-3975,2456,-8196,12000,8000,71000,1420295,
-2364,3596,16272,-3537,2376,-8165,12000,9000,70000,1420307,
-2108,3404,16436,-3481,2421,-8125,12000,9000,70000,1420310,
-2128,3348,16392,-3368,2502,-8162,12000,9000,70000,1420312,
-2120,3548,15664,-2789,3509,-8193,11000,9000,69000,1420325,
-2176,3708,15380,-2689,3732,-8217,11000,10000,69000,1420327,
-2516,3824,15132,-2620,3830,-8190,11000,10000,69000,1420329,
-3924,4804,14400,-2443,4166,-8136,11000,10000,68000,1420342,
-4252,4928,14076,-2481,3972,-8076,11000,10000,68000,1420344,
-4516,4784,14160,-2488,3922,-7996,11000,10000,68000,1420346,
-5516,4584,14252,-2574,2649,-7533,10000,11000,68000,1420359,
-5460,4656,14416,-2580,2521,-7379,10000,11000,67000,1420361,
-5364,4376,14668,-2625,2259,-7284,10000,11000,67000,1420364,
-4552,4080,15204,-2475,1767,-6766,10000,11000,67000,1420376,
-4296,4000,15248,-2512,1674,-6741,10000,11000,67000,1420379,
-4268,4080,15456,-2397,1740,-6676,10000,11000,66000,1420381,
-3640,4140,15220,-2283,2242,-6571,9000,12000,66000,1420393,
-3380,4180,15148,-2180,2535,-6596,9000,12000,66000,1420396,
-3288,4276,15212,-2176,2752,-6589,9000,12000,66000,1420398,
-3716,5684,14472,-1919,4172,-6763,9000,12000,65000,1420411,
-3960,5824,14340,-1927,4325,-6829,9000,12000,65000,1420413,
-4040,6024,14324,-1940,4426,-6877,9000,13000,65000,1420415,
-5116,6004,14128,-2067,4401,-7073,9000,13000,64000,1420428,
-5124,5804,14284,-2104,4321,-7088,9000,13000,64000,1420430,
-5280,5684,14332,-2057,4235,-7099,9000,13000,64000,1420433,
-5624,4748,14644,-1890,3746,-7137,8000,14000,63000,1420445,
-5468,4532,14784,-1787,3701,-7131,8000,14000,63000,1420447,
-5348,4236,14812,-1768,3683,-7150,8000,14000,63000,1420450,
-5316,3568,15332,-1207,4010,-7100,8000,15000,63000,1420462,
-5328,3552,15324,-1142,4087,-7091,8000,15000,62000,1420464,
-5288,3500,15380,-989,4240,-7069,8000,15000,62000,1420467,
-5756,4368,15088,-640,4804,-6646,8000,15000,62000,1420479,
-5828,4400,15016,-613,4842,-6551,8000,15000,62000,1420481,
-5992,4828,14904,-573,4972,-6442,8000,16000,62000,1420484,
-6836,5924,13912,-784,4802,-5826,8000,16000,61000,1420496,
-7000,5892,13936,-824,4749,-5708,8000,16000,61000,1420498,
-7100,6008,13816,-975,4505,-5574,8000,16000,61000,1420501,
-7332,5556,14032,-1328,3386,-4749,7000,17000,61000,1420513,
-7376,5508,14084,-1420,3199,-4583,7000,17000,60000,1420516,
-7152,5288,13980,-1453,3089,-4451,7000,17000,60000,1420518,
-5788,4880,14632,-1713,2742,-3841,7000,17000,60000,1420530,
-5540,4804,14756,-1717,2873,-3769,7000,17000,60000,1420533,
-5216,4600,14776,-1782,2868,-3782,7000,17000,60000,1420535,
-6456,4924,14536,-1752,5599,-3918,6000,19000,59000,1420568,
-6588,4844,14712,-1791,5698,-3915,6000,19000,59000,1420570,
-6764,4772,14488,-1753,5863,-3889,6000,19000,59000,1420573,
-7896,5144,14136,-1824,6082,-3568,6000,20000,59000,1420585,
-8124,5092,14096,-1789,6046,-3457,6000,20000,59000,1420587,
-8308,5224,14100,-1897,5931,-3383,6000,20000,59000,1420590,
-9404,5668,13856,-2194,4816,-2716,6000,21000,58000,1420602,
-9404,5596,13896,-2305,4525,-2601,6000,21000,58000,1420604,
-9456,5648,14024,-2363,4244,-2433,6000,21000,58000,1420607,
-9264,5360,14672,-2717,2928,-1545,6000,21000,58000,1420619,
-9196,5328,14832,-2708,2733,-1421,6000,21000,58000,1420621,
-9020,5256,14764,-2768,2578,-1310,6000,21000,58000,1420624,
-8752,4752,15228,-2872,2160,-871,5000,22000,58000,1420636,
-8584,4808,15200,-2919,2061,-830,5000,22000,58000,1420639,
-8664,4632,15360,-2833,2166,-734,5000,22000,58000,1420641,
-8736,4452,15400,-2833,2513,-236,5000,22000,58000,1420653,
-8624,4432,15488,-2733,2653,-170,5000,22000,58000,1420656,
-8688,4516,15408,-2767,2767,-58,5000,22000,58000,1420658,
-9124,4744,15108,-2613,3425,388,5000,22000,58000,1420670,
-9216,4752,15036,-2627,3426,523,5000,23000,58000,1420673,
-9464,4936,15040,-2607,3480,623,5000,23000,58000,1420675,
-10224,5156,14480,-2621,2749,1525,5000,23000,59000,1420688,
-10304,5236,14776,-2660,2563,1716,5000,23000,59000,1420690,
-10480,5288,14652,-2696,2307,1948,5000,23000,59000,1420692,
-10364,5464,14832,-2894,953,3022,5000,23000,59000,1420705,
-10256,5428,14972,-2970,661,3225,5000,23000,59000,1420707,
-10192,5308,15076,-2976,485,3372,5000,23000,59000,1420710,
-9016,5012,15312,-3200,-177,4307,4000,23000,60000,1420722,
-8664,4924,15288,-3185,-134,4435,4000,23000,60000,1420724,
-8320,4948,15312,-3248,-202,4547,4000,23000,60000,1420727,
-7412,4700,15192,-3233,188,4909,4000,23000,60000,1420739,
-7408,4536,15064,-3314,240,4976,4000,23000,61000,1420742,
-7316,4608,15252,-3255,378,4996,4000,23000,61000,1420744,
-7104,4216,15292,-3203,678,5263,4000,23000,61000,1420756,
-7144,4264,15120,-3211,633,5316,4000,23000,61000,1420759,
-7000,4204,15188,-3167,726,5331,4000,23000,61000,1420761,
-6816,4188,15060,-3150,620,5441,4000,23000,62000,1420774,
-6924,4120,14920,-3079,637,5416,4000,23000,62000,1420776,
-6780,4036,14912,-3117,575,5486,4000,23000,62000,1420778,
-6652,4064,14792,-3103,234,5653,4000,23000,63000,1420791,
-6672,4052,14832,-3142,90,5703,4000,23000,63000,1420793,
-6780,3900,14780,-3096,61,5720,4000,23000,63000,1420795,
-6184,3708,14936,-3183,-501,6042,4000,23000,64000,1420807,
-6044,3616,15040,-3112,-491,6078,4000,23000,64000,1420810,
-6028,3688,15084,-3160,-558,6127,4000,23000,64000,1420812,
-5016,3764,15068,-3118,-436,6331,4000,23000,65000,1420825,
-4896,3716,15084,-3164,-395,6349,4000,23000,65000,1420827,
-4780,3616,15116,-3139,-333,6324,4000,23000,65000,1420829,
-4560,3560,14852,-3185,93,6074,4000,23000,66000,1420842,
-4588,3592,14836,-3143,185,6058,4000,23000,66000,1420844,
-4480,3416,14864,-3161,240,6024,4000,23000,66000,1420846,
-4224,3328,14668,-3192,455,5880,4000,23000,66000,1420859,
-4208,3220,14620,-3185,481,5812,4000,23000,67000,1420861,
-4196,3204,14876,-3217,433,5794,4000,23000,67000,1420864,
-3996,2648,14992,-3114,371,5586,4000,23000,67000,1420876,
-3848,2740,15016,-3106,341,5569,4000,23000,67000,1420878,
-3772,2616,15268,-3056,367,5497,4000,23000,67000,1420881,
-3488,2468,15912,-2748,277,5252,4000,23000,68000,1420893,
-3440,2428,15800,-2703,269,5133,4000,22000,68000,1420895,
-3396,2468,15872,-2638,125,5031,4000,22000,68000,1420898,
-3748,2396,16020,-2254,-264,4453,4000,22000,69000,1420910,
-3804,2400,16024,-2242,-460,4433,4000,22000,69000,1420912,
-3752,2504,16008,-2132,-443,4376,4000,22000,69000,1420915,
-3004,2628,15920,-2017,-494,4165,4000,22000,69000,1420927,
-2836,2608,15844,-1952,-337,4118,4000,22000,69000,1420930,
-2588,2684,15864,-1971,-254,4025,4000,22000,69000,1420932,
-2340,2348,15940,-1727,530,3642,4000,22000,70000,1420945,
-2448,2208,15936,-1738,631,3587,4000,22000,70000,1420947,
-2648,2120,15992,-1683,778,3509,4000,22000,70000,1420949,
-3472,2016,15592,-1578,1067,3441,4000,22000,70000,1420962,
-3756,2028,15744,-1610,1085,3464,4000,22000,70000,1420964,
-3712,1988,15632,-1585,1055,3522,4000,22000,71000,1420966,
-3412,1924,15564,-1653,828,3422,4000,22000,71000,1420979,
-3276,1868,15492,-1609,781,3388,4000,22000,71000,1420981,
-3356,1972,15588,-1599,780,3331,4000,22000,71000,1420983,
-3304,1808,15396,-1574,654,3128,4000,22000,71000,1420996,
-3272,1876,15372,-1544,697,3118,4000,22000,71000,1420998,
-3256,1864,15416,-1583,627,3087,4000,22000,71000,1421001,
-3004,1880,15204,-1575,629,2777,4000,22000,72000,1421013,
-2916,1888,15324,-1629,601,2738,4000,22000,72000,1421015,
-2980,1856,15372,-1600,669,2686,4000,22000,72000,1421017,
-3244,1900,15436,-1630,500,2358,4000,22000,72000,1421030,
-3352,1864,15504,-1575,445,2318,4000,22000,72000,1421032,
-3328,1764,15540,-1584,371,2303,4000,22000,72000,1421034,
-3544,1572,15500,-1482,-200,2166,4000,22000,72000,1421047,
-3584,1668,15576,-1518,-412,2173,4000,22000,72000,1421049,
-3424,1656,15516,-1440,-424,2131,4000,22000,73000,1421052,
-3192,1956,15492,-1419,-959,2135,4000,22000,73000,1421064,
-3144,2044,15536,-1370,-908,2099,4000,22000,73000,1421066,
-2980,2160,15636,-1429,-976,2079,4000,21000,73000,1421069,
-2804,2224,15564,-1374,-884,1909,4000,21000,73000,1421081,
-2748,2152,15712,-1427,-896,1869,4000,21000,73000,1421083,
-2860,2120,15500,-1349,-827,1834,4000,21000,73000,1421086,
-2844,2120,15488,-1403,-790,1594,4000,21000,73000,1421098,
-2772,2028,15572,-1340,-786,1556,4000,21000,73000,1421100,
-2812,2188,15436,-1380,-762,1513,4000,21000,73000,1421103,
-2816,1800,15640,-1275,-706,1242,4000,21000,73000,1421115,
-2824,1764,15764,-1257,-644,1177,4000,21000,73000,1421118,
-2744,1784,15568,-1233,-689,1133,4000,21000,73000,1421120,
-2864,1940,15664,-1058,-684,903,4000,21000,74000,1421132,
-2884,2016,15692,-1067,-750,888,4000,21000,74000,1421135,
-2884,2060,15492,-1032,-669,841,4000,21000,74000,1421137,
-2756,2500,15540,-1023,-511,559,4000,21000,74000,1421149,
-2704,2584,15492,-969,-410,458,4000,21000,74000,1421152,
-2756,2696,15476,-995,-428,385,4000,20000,74000,1421154,
-3032,2792,15184,-1011,-342,126,4000,20000,74000,1421167,
-3216,2832,15272,-978,-296,63,4000,20000,74000,1421169,
-3380,2732,15340,-1042,-401,42,4000,20000,74000,1421171,
-3716,2504,15244,-943,-640,-129,4000,20000,74000,1421184,
-3652,2560,15216,-976,-747,-134,4000,20000,74000,1421186,
-3792,2512,15084,-933,-756,-134,4000,20000,74000,1421188,
-3276,2444,15132,-913,-663,-97,4000,20000,74000,1421201,
-3384,2496,14924,-908,-480,-136,4000,20000,74000,1421203,
-3284,2556,15072,-917,-444,-120,3000,20000,74000,1421205,
-3584,2844,14952,-863,264,-197,3000,20000,74000,1421218,
-3652,2984,14952,-933,322,-190,3000,20000,74000,1421220,
-3740,2924,14872,-881,467,-205,3000,20000,74000,1421222,
-4644,3264,14836,-1021,486,-97,3000,20000,74000,1421235,
-4828,3340,14636,-1039,471,-70,3000,20000,74000,1421237,
-4984,3368,14628,-1118,386,-24,3000,20000,74000,1421240,
-5048,3692,14656,-1285,46,251,3000,20000,74000,1421252,
-5000,3696,14756,-1378,-32,217,3000,20000,74000,1421255,
-4988,3696,14740,-1371,-64,277,3000,20000,74000,1421257,
-4932,3272,15164,-1513,-473,240,3000,20000,74000,1421269,
-5040,3240,15216,-1466,-556,277,3000,20000,74000,1421272,
-5104,3120,15352,-1473,-582,286,3000,20000,74000,1421274,
-4872,2496,15680,-1373,-890,335,3000,20000,74000,1421286,
-4824,2392,15596,-1322,-867,318,3000,20000,74000,1421289,
-4824,2212,15648,-1309,-942,356,3000,20000,74000,1421291,
-4412,2368,15308,-1125,-683,381,3000,20000,74000,1421304,
-4252,2428,15132,-1079,-585,340,3000,20000,74000,1421306,
-4260,2436,15140,-1092,-502,349,3000,20000,74000,1421308,
-3788,2448,14920,-976,213,232,3000,20000,74000,1421321,
-3844,2420,14816,-1021,324,225,3000,20000,74000,1421323,
-3868,2384,14796,-939,552,195,3000,20000,74000,1421325,
-4028,2532,14756,-853,941,179,3000,20000,74000,1421337,
-4144,2468,14740,-789,991,155,3000,20000,74000,1421340,
-4140,2660,14676,-842,968,174,3000,20000,74000,1421342,
-4244,2784,14620,-859,782,155,3000,20000,74000,1421355,
-4316,2680,14560,-901,647,138,3000,20000,74000,1421357,
-4232,2668,14448,-857,645,160,3000,20000,74000,1421359,
-4348,2772,14288,-854,221,46,3000,20000,74000,1421372,
-4232,2700,14256,-811,185,26,3000,20000,74000,1421374,
-4292,2752,14196,-870,52,25,3000,20000,74000,1421376,
-4040,2432,14540,-844,-42,-30,3000,20000,74000,1421389,
-3972,2456,14584,-890,-29,-64,3000,20000,74000,1421391,
-3932,2308,14672,-822,13,-74,3000,20000,74000,1421393,
-3968,2088,14952,-800,499,-306,3000,20000,74000,1421406,
-3992,2116,14832,-709,570,-315,3000,20000,74000,1421408,
-3992,2048,14780,-732,700,-360,3000,20000,74000,1421410,
-4356,2244,14712,-574,1090,-407,3000,20000,74000,1421423,
-4452,2148,14732,-606,1167,-406,3000,20000,74000,1421425,
-4396,2136,14844,-552,1222,-406,3000,20000,74000,1421427,
-4540,2288,14796,-563,1412,-424,3000,20000,74000,1421440,
-4728,2392,14748,-498,1463,-437,3000,20000,74000,1421442,
-4764,2360,14724,-512,1460,-423,3000,20000,74000,1421445,
-5064,2564,14620,-443,1343,-422,3000,20000,74000,1421457,
-5120,2584,14592,-509,1244,-441,3000,20000,74000,1421459,
-5088,2684,14676,-450,1185,-406,3000,20000,74000,1421462,
-4996,2872,14660,-539,712,-320,3000,20000,74000,1421474,
-5044,2824,14640,-497,690,-296,3000,20000,74000,1421477,
-4864,2852,14580,-554,602,-275,3000,20000,74000,1421479,
-4768,2732,14544,-527,408,-307,3000,20000,74000,1421491,
-4720,2688,14692,-579,342,-331,3000,20000,74000,1421494,
-4744,2784,14604,-533,403,-288,3000,20000,74000,1421496,
-4316,2672,14708,-576,444,-292,3000,20000,74000,1421508,
-4420,2792,14720,-524,533,-327,3000,20000,74000,1421511,
-4404,2780,14732,-578,479,-321,3000,20000,74000,1421513,
-4404,2756,14660,-528,641,-384,2000,20000,74000,1421526,
-4548,2796,14576,-574,615,-363,2000,20000,74000,1421528,
-4452,2844,14596,-534,662,-382,2000,20000,74000,1421530,
-4428,2768,14872,-628,721,-352,2000,20000,74000,1421543,
-4456,2756,14596,-538,813,-386,2000,20000,74000,1421545,
-4576,2820,14816,-606,757,-361,2000,20000,74000,1421547,
-4528,2768,14752,-588,800,-366,2000,21000,74000,1421560,
-4492,2768,14748,-616,784,-364,2000,21000,74000,1421562,
-4636,2832,14812,-542,786,-335,2000,21000,74000,1421564,
-4528,2748,14944,-644,810,-301,2000,21000,74000,1421577,
-4516,2712,14812,-596,820,-306,2000,21000,74000,1421579,
