Ax,Ay,Az,Gx,Gy,Gz,Roll,Pitch,Yaw,Timestamp,Target
-260,3208,16036,-141,683,274,4000,4000,187000,735874,
-8,3384,15856,-169,279,190,4000,4000,187000,735886,
28,3504,15924,-176,225,167,4000,4000,187000,735889,
96,3656,15864,-222,184,137,4000,4000,187000,735891,
164,3604,15700,-259,98,161,4000,4000,187000,735893,
424,4036,15908,-466,165,105,4000,4000,187000,735906,
440,3932,15824,-557,170,110,4000,4000,187000,735908,
484,4084,16004,-606,206,114,4000,4000,187000,735911,
448,3956,16256,-633,298,84,4000,4000,187000,735913,
364,3652,16380,-757,584,45,4000,4000,187000,735926,
468,3504,16484,-719,646,12,4000,4000,187000,735928,
280,3316,16452,-738,642,5,4000,4000,187000,735930,
40,3008,16360,-683,426,-29,4000,4000,187000,735943,
80,2984,16276,-692,313,-2,4000,4000,187000,735946,
112,3188,16160,-686,210,-8,4000,4000,187000,735948,
-24,3260,16140,-667,114,-1,4000,4000,187000,735950,
56,3520,16128,-764,-187,49,4000,4000,187000,735963,
104,3856,16200,-742,-168,34,4000,4000,187000,735965,
52,3856,16024,-794,-215,37,4000,4000,187000,735968,
176,3800,16008,-811,-174,-9,4000,4000,187000,735970,
244,3532,16200,-818,-40,-293,4000,4000,187000,735983,
248,3516,16024,-817,23,-377,4000,4000,187000,735985,
288,3332,16120,-791,97,-406,4000,4000,187000,735987,
220,3100,16104,-832,326,-437,4000,4000,187000,736000,
148,3048,16124,-795,392,-458,4000,4000,187000,736002,
144,3172,15948,-792,391,-411,4000,4000,187000,736005,
104,3160,16176,-791,404,-416,4000,4000,187000,736007,
44,3432,16048,-879,596,-148,4000,4000,187000,736020,
-160,3464,16128,-885,670,-95,4000,4000,187000,736022,
-136,3608,16040,-887,749,-100,4000,4000,187000,736025,
-324,3588,16024,-971,807,-98,4000,4000,187000,736037,
-412,3504,16156,-910,794,-141,4000,4000,187000,736040,
-472,3460,16268,-908,741,-118,4000,4000,187000,736042,
-512,3348,16264,-937,703,-122,4000,4000,187000,736044,
-620,3088,16156,-864,411,-127,4000,4000,187000,736057,
-664,3148,16112,-857,336,-120,4000,4000,187000,736059,
-648,3036,16136,-845,313,-129,4000,4000,187000,736062,
-712,3272,16192,-840,-110,28,4000,4000,187000,736074,
-672,3200,16304,-800,-125,35,4000,4000,187000,736077,
-788,3308,16332,-818,-196,59,4000,4000,187000,736079,
-808,3316,16164,-811,-229,78,4000,4000,187000,736082,
-272,3588,16616,-757,-224,36,4000,4000,187000,736098,
-328,3452,16552,-759,-290,55,4000,4000,187000,736100,
-184,3568,16520,-762,-316,33,4000,4000,187000,736103,
32,3492,16420,-688,-183,19,4000,4000,187000,736115,
76,3340,16276,-712,-119,25,4000,4000,187000,736118,
48,3568,16360,-660,17,75,4000,4000,187000,736120,
-72,3488,16356,-690,26,130,4000,4000,187000,736122,
-40,3552,16424,-683,395,227,4000,4000,187000,736135,
-128,3580,16488,-699,404,266,4000,4000,187000,736137,
-164,3504,16472,-708,432,257,4000,4000,187000,736140,
-32,3420,16616,-698,479,218,4000,4000,187000,736142,
-472,3488,16728,-696,521,194,4000,4000,187000,736155,
-340,3496,16704,-641,530,179,4000,4000,187000,736157,
-464,3484,16672,-618,496,210,4000,4000,187000,736160,
-332,3304,16480,-584,289,312,4000,4000,187000,736172,
-364,3316,16428,-581,189,341,4000,4000,187000,736175,
-352,3364,16360,-586,131,385,4000,4000,187000,736177,
-316,3356,16492,-568,128,383,4000,4000,187000,736179,
-376,3376,16576,-548,-10,500,4000,4000,187000,736192,
-336,3284,16508,-535,56,509,4000,4000,187000,736194,
-396,3252,16616,-475,23,508,4000,4000,187000,736197,
-316,3220,16624,-466,276,452,4000,4000,187000,736209,
-288,3216,16504,-445,286,480,4000,4000,187000,736212,
-336,3128,16580,-423,299,476,4000,4000,187000,736214,
-292,3128,16532,-421,390,490,4000,4000,187000,736217,
-224,3216,16272,-362,517,599,4000,4000,187000,736229,
-168,3232,16284,-333,608,637,4000,4000,187000,736232,
-232,3188,16328,-295,618,663,4000,4000,187000,736234,
-132,3252,16144,-297,799,751,4000,4000,187000,736247,
-136,3392,16068,-291,794,777,4000,4000,187000,736249,
-156,3292,16184,-293,752,773,4000,4000,187000,736251,
-116,3404,16232,-284,806,781,4000,4000,187000,736254,
-20,3524,16428,-287,692,781,4000,4000,187000,736266,
4,3536,16452,-301,711,823,4000,4000,187000,736269,
16,3300,16504,-271,674,809,4000,4000,187000,736271,
-56,3168,16372,-320,796,758,4000,4000,187000,736284,
-24,3304,16360,-262,771,728,4000,4000,187000,736286,
28,3216,16384,-290,799,743,4000,4000,187000,736289,
-8,3180,16240,-306,810,734,4000,4000,187000,736291,
-48,3224,16300,-298,665,703,4000,4000,187000,736304,
-212,3272,16316,-292,695,694,4000,4000,187000,736306,
-124,3332,16248,-246,659,709,4000,4000,188000,736308,
-116,3364,16260,-291,664,705,4000,4000,188000,736311,
16,3548,16320,-262,602,646,4000,4000,188000,736323,
40,3584,16348,-315,609,662,4000,4000,188000,736326,
16,3528,16224,-317,622,605,4000,4000,188000,736328,
220,3420,16264,-375,663,550,4000,4000,188000,736341,
252,3400,16384,-367,729,512,4000,4000,188000,736343,
248,3256,16272,-344,733,507,4000,4000,188000,736346,
184,3332,16248,-372,768,493,4000,4000,188000,736348,
144,3436,16556,-403,768,490,4000,4000,188000,736361,
-20,3464,16372,-445,738,515,4000,4000,188000,736363,
-72,3516,16364,-477,712,507,4000,4000,188000,736365,
-40,3572,16436,-450,659,520,4000,4000,188000,736368,
-264,3536,16556,-482,476,432,4000,4000,188000,736380,
-336,3384,16552,-441,434,405,4000,4000,188000,736383,
-296,3476,16472,-448,310,394,4000,4000,188000,736385,
-156,3224,16548,-337,-52,213,4000,4000,188000,736398,
-168,3168,16484,-375,-134,208,4000,4000,188000,736400,
60,3176,16492,-344,-185,142,4000,4000,188000,736403,
-44,3024,16468,-308,-183,118,4000,4000,188000,736405,
568,3216,16596,-316,-156,77,4000,4000,188000,736418,
624,3200,16612,-279,-119,62,4000,4000,188000,736420,
684,3332,16556,-292,-74,62,4000,4000,188000,736422,
748,3436,16532,-291,513,19,4000,4000,188000,736435,
620,3456,16600,-263,594,23,4000,4000,188000,736437,
652,3436,16664,-269,719,6,4000,4000,188000,736440,
556,3264,16628,-238,892,-49,4000,4000,188000,736442,
104,2860,17064,-124,1181,-144,4000,4000,188000,736455,
28,2804,17168,-52,1234,-164,4000,4000,188000,736457,
-24,2700,17060,1,1156,-179,4000,4000,188000,736459,
-76,2600,17148,32,1139,-195,4000,4000,188000,736462,
-204,2412,17156,406,728,-213,4000,4000,188000,736474,
-140,2380,17248,430,654,-209,4000,4000,188000,736477,
-184,2544,17072,495,577,-208,4000,4000,188000,736479,
-84,3068,17088,707,286,-104,4000,4000,188000,736492,
-72,3344,16992,723,321,-110,4000,4000,188000,736494,
44,3532,16964,756,363,-47,4000,4000,188000,736497,
96,3552,16872,751,433,-77,4000,4000,188000,736499,
272,3656,16884,801,1073,-155,4000,4000,188000,736512,
332,3620,16756,801,1267,-197,4000,4000,188000,736514,
476,3500,16688,823,1403,-246,5000,4000,188000,736517,
684,3500,16712,796,1523,-242,5000,4000,188000,736519,
136,3252,16420,823,2223,-281,5000,5000,188000,736535,
-28,3448,16148,791,2328,-264,5000,5000,188000,736538,
-56,3412,16156,822,2325,-230,5000,5000,188000,736540,
-440,3848,16008,527,2421,-53,5000,5000,188000,736553,
-560,4004,16076,546,2349,-20,5000,5000,188000,736555,
-532,4056,15916,454,2293,-1,5000,5000,188000,736557,
-580,3936,16052,389,2270,-30,5000,5000,188000,736560,
-984,3856,15984,84,1763,-44,5000,5000,188000,736572,
-1096,3768,16112,118,1736,-80,5000,5000,188000,736575,
-1036,3664,15952,123,1580,-125,5000,5000,188000,736577,
-1332,3472,15864,26,821,-430,5000,5000,188000,736590,
-1344,3404,15948,42,577,-409,5000,5000,188000,736592,
-1364,3400,15732,3,375,-436,5000,5000,188000,736595,
-1300,3388,15800,-6,220,-459,5000,5000,188000,736597,
-1044,3780,15756,-144,-785,-346,5000,5000,188000,736610,
-888,3980,15808,-154,-870,-378,5000,5000,188000,736612,
-688,3896,15852,-213,-988,-306,5000,5000,188000,736614,
-244,4060,15920,-460,-1052,-406,5000,5000,188000,736627,
-280,4116,15832,-506,-993,-397,5000,5000,188000,736629,
-184,4172,15952,-529,-894,-455,5000,5000,188000,736632,
-140,3864,16020,-650,-477,-470,5000,5000,188000,736644,
-200,3988,15976,-697,-345,-470,5000,5000,188000,736647,
-264,3808,15980,-632,-344,-477,5000,5000,188000,736649,
-680,3644,16044,-682,-77,-429,5000,5000,188000,736662,
-720,3600,15732,-632,-124,-397,5000,5000,188000,736664,
-804,3540,15672,-644,-121,-356,5000,5000,188000,736667,
-804,3564,15920,-630,-102,-371,5000,5000,188000,736669,
-976,3460,15692,-625,-368,-272,5000,5000,188000,736682,
-948,3540,15780,-589,-407,-294,5000,5000,188000,736684,
-844,3544,15860,-598,-453,-251,5000,5000,188000,736687,
-644,3596,16008,-613,-521,-300,5000,5000,188000,736699,
-612,3592,15988,-611,-547,-282,5000,5000,188000,736702,
-620,3672,15944,-642,-500,-306,5000,5000,188000,736704,
-420,3552,16168,-565,-168,-364,5000,5000,188000,736717,
-348,3412,16148,-568,-104,-335,5000,5000,188000,736719,
-444,3372,16308,-560,-31,-371,5000,5000,188000,736721,
-532,3288,16256,-514,175,-253,5000,5000,188000,736734,
-580,3228,16236,-479,230,-266,5000,5000,188000,736736,
-532,3288,16132,-459,230,-193,5000,5000,188000,736739,
-636,3192,16228,-484,255,-166,5000,5000,188000,736741,
-680,3664,15892,-495,325,-26,5000,5000,188000,736754,
-628,3700,15784,-574,329,-6,5000,5000,188000,736756,
-692,3632,15868,-538,377,-24,5000,5000,188000,736759,
-580,3656,16056,-645,334,57,5000,5000,188000,736771,
-696,3736,15888,-623,351,62,5000,5000,188000,736774,
-588,3608,15908,-632,299,55,5000,5000,188000,736776,
-596,3540,16112,-674,299,52,5000,5000,188000,736778,
-492,3316,16212,-602,241,-8,5000,5000,188000,736791,
-592,3264,16020,-620,230,-24,5000,5000,188000,736793,
-556,3252,16084,-634,222,-46,5000,5000,188000,736796,
-452,3524,16168,-619,-27,45,5000,5000,188000,736808,
-476,3572,16220,-584,-99,60,5000,5000,188000,736811,
-464,3664,16320,-601,-168,50,5000,5000,188000,736813,
-488,3840,16176,-647,-193,77,5000,5000,188000,736816,
-368,3948,16340,-716,-301,71,5000,5000,188000,736828,
-224,3988,16400,-763,-300,61,5000,5000,188000,736831,
-256,3908,16424,-745,-272,50,5000,5000,188000,736833,
-24,3740,16128,-782,-237,-82,5000,5000,188000,736846,
-100,3768,16212,-719,-212,-96,5000,5000,188000,736848,
-84,3744,16080,-732,-262,-85,5000,5000,188000,736850,
24,3732,16148,-751,-184,-103,5000,5000,188000,736853,
112,3740,16012,-744,-214,-126,5000,5000,188000,736865,
148,3700,16012,-792,-225,-145,5000,5000,188000,736868,
320,3740,15916,-746,-219,-157,5000,5000,188000,736870,
504,3912,16256,-970,-281,-143,5000,4000,188000,736887,
380,3992,16256,-1014,-248,-130,5000,4000,188000,736889,
404,3884,16140,-1051,-215,-210,5000,4000,188000,736891,
344,3772,16372,-1098,-143,-380,5000,4000,188000,736904,
136,3768,16336,-1134,-140,-458,5000,4000,187000,736906,
200,3744,16520,-1096,-179,-464,5000,4000,187000,736909,
-12,3652,16740,-1094,-475,-563,5000,4000,187000,736921,
-44,3684,16656,-1052,-549,-551,5000,4000,187000,736924,
-160,3644,16728,-1079,-657,-524,5000,4000,187000,736926,
-116,3528,16524,-1019,-1005,-571,4000,4000,187000,736939,
-96,3576,16528,-1010,-1111,-591,4000,4000,187000,736941,
-204,3460,16400,-991,-1116,-649,4000,4000,187000,736944,
-192,3332,16204,-896,-1139,-744,4000,4000,187000,736956,
-236,3444,16044,-888,-1008,-765,4000,4000,187000,736959,
-304,3388,16000,-813,-951,-769,4000,4000,187000,736961,
-380,3460,16168,-681,-195,-756,4000,4000,187000,736974,
-492,3384,16344,-627,-136,-741,4000,4000,187000,736976,
-356,3576,16564,-621,-40,-680,4000,4000,187000,736978,
-228,3500,16464,-609,70,-722,4000,4000,187000,736981,
128,3624,16660,-536,256,-725,4000,4000,187000,736993,
172,3836,16756,-547,344,-751,4000,4000,187000,736996,
24,3756,16704,-504,372,-743,4000,4000,187000,736998,
-192,3520,16812,-508,979,-738,4000,4000,187000,737011,
-268,3492,16612,-461,1038,-669,4000,4000,187000,737013,
-332,3552,16628,-539,1137,-649,4000,4000,187000,737016,
-380,3356,16628,-485,1254,-647,4000,4000,187000,737018,
-904,3248,16396,-479,1275,-378,4000,4000,187000,737031,
-952,3320,16340,-488,1257,-372,4000,4000,187000,737033,
-960,3208,16240,-422,1143,-348,4000,4000,187000,737035,
-1228,3328,15948,-410,741,-233,4000,4000,187000,737048,
-1208,3408,15960,-397,626,-219,4000,4000,187000,737050,
-1312,3408,15960,-412,509,-204,4000,4000,187000,737053,
-1008,3348,16348,-320,180,-287,4000,4000,187000,737065,
-1060,3236,16460,-337,121,-298,4000,4000,187000,737068,
-868,3180,16300,-322,117,-341,4000,4000,187000,737070,
-480,3124,16456,-209,-49,-325,4000,4000,187000,737083,
-480,3100,16372,-223,17,-289,4000,4000,187000,737085,
-408,3160,16212,-176,36,-271,4000,4000,187000,737087,
-360,3188,16440,-191,83,-246,4000,4000,187000,737090,
-256,3680,16232,-253,465,-22,4000,4000,187000,737102,
-200,3688,16232,-289,532,39,4000,4000,187000,737105,
-288,3700,16160,-317,653,66,4000,4000,187000,737107,
-264,3672,16264,-314,1018,117,4000,4000,187000,737120,
-388,3572,16348,-350,1111,86,4000,4000,187000,737122,
-364,3672,16264,-291,1096,101,4000,4000,187000,737125,
-308,3636,16168,-373,1118,97,4000,4000,187000,737127,
-528,3608,16144,-380,1102,142,4000,4000,187000,737140,
-688,3524,16128,-433,1071,179,4000,4000,187000,737142,
-656,3688,16124,-459,1100,152,4000,5000,187000,737145,
-844,3828,15984,-597,773,214,4000,5000,187000,737157,
-880,3800,16056,-635,762,175,4000,5000,187000,737160,
-792,3900,16160,-597,639,159,4000,5000,187000,737162,
-1020,3896,16188,-634,549,174,4000,5000,187000,737164,
-908,3736,16620,-736,-17,116,4000,5000,187000,737177,
-884,3784,16608,-774,-136,119,4000,5000,187000,737179,
-888,3692,16580,-804,-244,121,4000,5000,187000,737182,
-708,3316,16428,-767,-641,154,4000,4000,187000,737195,
-684,3304,16396,-757,-658,169,4000,4000,187000,737197,
-788,3324,16268,-698,-669,159,4000,4000,187000,737199,
-840,3244,16312,-688,-670,178,4000,4000,187000,737202,
-552,3300,16312,-584,-595,208,4000,4000,187000,737214,
-536,3328,16428,-630,-590,224,4000,4000,187000,737217,
-536,3344,16428,-621,-555,262,4000,4000,187000,737219,
-80,3616,16576,-651,-413,373,4000,4000,187000,737232,
-124,3712,16712,-652,-332,379,4000,4000,187000,737234,
-32,3688,16540,-600,-277,372,4000,4000,187000,737236,
-96,3856,16572,-630,-173,425,4000,4000,187000,737239,
-244,3872,16596,-544,343,405,4000,4000,187000,737251,
-348,3672,16760,-574,419,406,4000,4000,187000,737254,
-368,3632,16572,-570,494,420,4000,4000,187000,737256,
-576,3364,16428,-480,585,379,4000,4000,187000,737269,
-548,3424,16404,-465,566,383,4000,4000,187000,737271,
-492,3352,16504,-423,546,361,4000,4000,187000,737273,
-488,3452,16340,-400,458,393,4000,4000,187000,737276,
-576,3584,16492,-347,44,364,4000,4000,187000,737292,
-476,3600,16476,-361,29,383,4000,4000,187000,737295,
-320,3708,16344,-286,-1,362,4000,4000,187000,737297,
-152,3696,16352,-347,-8,231,4000,4000,187000,737310,
16,3648,16340,-303,-6,183,4000,4000,187000,737312,
0,3660,16408,-315,22,165,4000,4000,187000,737314,
-56,3632,16432,-329,83,134,4000,4000,187000,737317,
-112,3484,16124,-274,429,91,4000,4000,187000,737329,
-192,3556,16160,-270,555,100,4000,4000,187000,737332,
-204,3416,16156,-230,588,104,4000,4000,187000,737334,
-100,3508,16208,-262,631,127,4000,4000,187000,737337,
-348,3500,16256,-283,701,179,4000,4000,187000,737349,
-384,3500,16444,-332,723,197,4000,4000,187000,737352,
-420,3464,16284,-313,776,197,4000,4000,187000,737354,
-720,3284,16144,-264,817,325,4000,4000,187000,737367,
-572,3276,16252,-234,857,336,4000,4000,187000,737369,
-700,3208,16324,-199,802,344,4000,4000,187000,737371,
-736,3140,16296,-213,772,380,4000,4000,187000,737374,
-716,3280,16196,-138,635,413,4000,4000,187000,737387,
-736,3220,16116,-168,588,448,5000,4000,187000,737389,
-768,3284,16132,-176,599,440,5000,4000,188000,737391,
-560,3584,16132,-158,412,470,5000,4000,188000,737404,
-356,3584,16372,-175,411,473,5000,4000,188000,737406,
-404,3756,16264,-152,336,478,5000,4000,188000,737409,
-376,3700,16332,-186,262,474,5000,4000,188000,737411,
-276,3940,16252,-236,177,412,5000,4000,188000,737424,
-308,3792,16404,-289,200,403,5000,4000,188000,737426,
-236,3900,16412,-303,253,408,5000,4000,188000,737428,
-268,3820,16232,-331,393,263,5000,4000,188000,737441,
-332,3824,16292,-329,441,211,5000,4000,188000,737443,
-284,3840,16140,-293,414,240,5000,4000,188000,737446,
-360,3676,16144,-329,404,248,5000,4000,188000,737448,
-180,3752,15912,-312,326,282,5000,4000,188000,737461,
-188,3708,15812,-382,329,292,5000,4000,188000,737463,
-120,3844,16044,-377,356,280,5000,4000,188000,737466,
-152,3936,16152,-495,456,274,5000,5000,188000,737478,
-320,3740,16152,-515,498,286,5000,5000,188000,737481,
-240,3844,16172,-522,488,343,5000,5000,188000,737483,
-344,3872,16132,-545,546,330,5000,5000,188000,737485,
-468,3688,16200,-582,610,281,5000,5000,188000,737498,
-652,3592,16104,-622,603,289,5000,5000,188000,737500,
-692,3572,16276,-628,605,279,5000,5000,188000,737503,
-1020,3404,16148,-597,336,440,5000,5000,188000,737515,
-936,3444,16104,-633,301,437,5000,5000,188000,737518,
-972,3388,16184,-585,201,480,5000,5000,188000,737520,
-1020,3360,16256,-649,158,501,5000,5000,188000,737522,
-1020,3528,16416,-657,-121,631,5000,5000,188000,737535,
-1036,3660,16560,-705,-167,667,5000,5000,188000,737537,
-1020,3564,16420,-723,-188,686,5000,5000,188000,737540,
-944,3500,16464,-635,-303,689,5000,5000,188000,737552,
-852,3544,16628,-611,-240,661,5000,4000,188000,737555,
-872,3400,16552,-535,-276,656,5000,4000,188000,737557,
-888,3304,16520,-503,-261,657,5000,4000,188000,737560,
-944,3048,16588,-255,-268,674,5000,4000,188000,737572,
-812,3188,16504,-248,-310,708,5000,4000,188000,737575,
-832,3336,16524,-231,-318,726,5000,4000,188000,737577,
-268,3368,16508,-79,-365,809,5000,4000,188000,737590,
-160,3428,16576,-55,-312,798,5000,4000,188000,737592,
-56,3400,16564,4,-286,786,5000,4000,188000,737594,
-60,3492,16588,7,-194,821,5000,4000,188000,737597,
164,3592,16332,184,528,778,5000,4000,188000,737609,
304,3516,16248,177,703,793,5000,4000,188000,737612,
388,3444,16132,180,865,757,5000,4000,188000,737614,
252,3444,16104,248,965,756,5000,4000,188000,737617,
176,3232,15588,385,1629,750,5000,4000,189000,737629,
136,3236,15628,393,1641,750,5000,4000,189000,737632,
208,3276,15556,394,1705,784,5000,5000,189000,737634,
132,3104,15124,479,1740,758,5000,5000,189000,737647,
176,3096,15132,465,1729,751,5000,5000,189000,737649,
280,3188,15080,457,1734,693,5000,5000,189000,737651,
384,3320,14924,466,1643,672,5000,5000,189000,737654,
748,3384,14496,441,1526,436,5000,5000,189000,737666,
712,3292,14320,337,1496,398,5000,5000,189000,737669,
960,3168,13968,295,1437,172,5000,5000,189000,737682,
1008,3048,13908,208,1453,148,5000,5000,189000,737684,
992,3100,13752,207,1504,100,5000,5000,189000,737686,
1184,2988,13464,163,1404,23,5000,5000,189000,737689,
1356,2528,13144,1,1230,-349,5000,5000,189000,737701,
1368,2544,13056,31,1201,-452,5000,5000,189000,737704,
1444,2480,12796,0,1202,-537,5000,5000,189000,737706,
1336,2104,12352,-146,1213,-951,5000,5000,189000,737719,
1388,2192,12080,-231,1223,-962,5000,5000,189000,737721,
1516,2144,12068,-295,1255,-1025,5000,5000,189000,737724,
1548,1936,11772,-623,995,-1185,5000,5000,189000,737736,
1676,2020,11676,-710,907,-1198,5000,5000,189000,737738,
1668,1980,11612,-748,758,-1225,5000,5000,189000,737741,
1600,1924,11228,-1207,338,-1507,5000,5000,188000,737753,
1516,1784,11140,-1249,140,-1538,5000,5000,188000,737756,
1360,1760,11164,-1340,-25,-1588,5000,5000,188000,737758,
920,1924,10968,-1950,-1023,-1991,5000,5000,188000,737771,
904,1912,10820,-2088,-1171,-2005,5000,5000,188000,737773,
780,1792,10784,-2271,-1237,-2065,5000,5000,188000,737776,
1048,1776,10568,-2994,-1643,-2249,5000,5000,188000,737788,
1244,1840,10420,-3182,-1664,-2334,5000,5000,188000,737791,
1320,1708,10472,-3271,-1725,-2349,4000,5000,188000,737793,
2208,2112,10612,-4166,-1598,-2690,4000,4000,188000,737806,
2416,2180,10772,-4343,-1517,-2759,4000,4000,187000,737808,
2584,2344,10948,-4521,-1459,-2817,4000,4000,187000,737810,
3456,2452,11520,-5245,-529,-3248,3000,4000,187000,737823,
3552,2436,11456,-5420,-255,-3324,3000,4000,187000,737826,
3456,2436,11380,-5596,50,-3422,3000,4000,187000,737828,
3040,1900,12344,-6214,1422,-3797,3000,4000,187000,737841,
2964,1804,12432,-6313,1693,-3917,3000,4000,187000,737843,
2808,1440,12400,-6328,1806,-3943,2000,4000,186000,737845,
1956,904,13292,-6650,2430,-4413,2000,4000,186000,737858,
1840,880,13356,-6692,2385,-4507,2000,4000,186000,737860,
1708,812,13520,-6800,2342,-4611,1000,4000,186000,737863,
1016,808,14240,-7057,1536,-5025,1000,4000,185000,737875,
976,780,14312,-7167,1380,-5116,1000,4000,185000,737878,
952,860,14448,-7227,1223,-5235,0,4000,185000,737880,
760,884,14456,-7235,1018,-5290,0,4000,185000,737883,
296,516,14900,-7399,529,-5739,0,4000,185000,737895,
216,468,14884,-7395,471,-5757,0,4000,184000,737898,
264,420,15124,-7402,470,-5882,0,5000,184000,737900,
664,-244,15300,-7359,464,-6439,0,4000,184000,737913,
620,-452,15292,-7351,454,-6550,-1000,4000,184000,737915,
660,-532,15256,-7314,525,-6745,-1000,4000,183000,737918,
632,-740,15588,-7226,1109,-7064,-2000,5000,183000,737930,
644,-624,15612,-7237,1261,-7138,-2000,5000,183000,737933,
668,-604,15860,-7162,1299,-7153,-2000,5000,183000,737935,
96,-120,16776,-7289,1389,-7171,-3000,5000,182000,737948,
-44,12,16756,-7255,1414,-7138,-3000,5000,182000,737950,
-184,24,16944,-7305,1433,-7079,-3000,5000,182000,737952,
-1140,200,17256,-7318,1310,-7203,-4000,5000,181000,737965,
-1236,-12,17460,-7322,1212,-7236,-4000,5000,181000,737967,
-1388,-164,17292,-7270,1180,-7322,-4000,5000,181000,737970,
-1944,-1184,16976,-7183,777,-7646,-5000,5000,180000,737982,
-1940,-1192,16856,-7172,726,-7728,-5000,5000,180000,737985,
-2048,-1312,16696,-7112,631,-7815,-5000,5000,180000,737987,
-1680,-1572,17020,-7196,639,-7970,-6000,5000,179000,738000,
-1604,-1556,17092,-7205,582,-7938,-6000,5000,179000,738002,
-1552,-1512,17240,-7213,617,-7920,-6000,5000,179000,738005,
-884,-544,17724,-7269,1259,-7633,-7000,5000,178000,738021,
-956,-336,17784,-7272,1420,-7614,-7000,5000,177000,738024,
-940,-360,17884,-7262,1538,-7537,-7000,5000,177000,738026,
-1612,-484,17772,-7144,2268,-7573,-8000,5000,177000,738039,
-1584,-692,17716,-7121,2268,-7535,-8000,5000,176000,738041,
-1860,-912,17716,-7121,2312,-7559,-8000,5000,176000,738043,
-2660,-1588,17596,-7022,2406,-7701,-9000,5000,175000,738056,
-2712,-1824,17524,-6998,2353,-7718,-9000,5000,175000,738058,
-2784,-1920,17708,-6966,2342,-7792,-9000,5000,175000,738061,
-3056,-2268,18284,-6950,1871,-7741,-10000,5000,174000,738073,
-3024,-2376,18416,-6950,1900,-7711,-10000,5000,174000,738076,
-2952,-2148,18596,-6978,1886,-7621,-10000,5000,174000,738078,
-2664,-1972,18892,-6842,2280,-7359,-11000,5000,173000,738091,
-2648,-1832,18944,-6828,2324,-7215,-11000,5000,173000,738093,
-2720,-1960,19088,-6828,2424,-7152,-11000,5000,173000,738096,
-2824,-1932,19044,-6575,3191,-6564,-12000,6000,172000,738108,
-2928,-2040,18968,-6513,3372,-6486,-12000,6000,172000,738111,
-2792,-2088,18828,-6481,3555,-6467,-12000,6000,172000,738113,
-3252,-2680,18268,-6046,4156,-6239,-13000,6000,171000,738126,
-3268,-2776,18352,-5914,4238,-6292,-13000,6000,171000,738128,
-3348,-2812,18184,-5863,4190,-6270,-13000,6000,171000,738131,
-3600,-2856,17956,-5613,4143,-6309,-14000,6000,170000,738143,
-3756,-2880,18048,-5616,4084,-6201,-14000,6000,170000,738146,
-3760,-2832,18184,-5512,4015,-6206,-14000,6000,170000,738148,
-3588,-2396,17996,-5303,4118,-5991,-14000,7000,170000,738161,
-3588,-2336,18048,-5219,4212,-5966,-14000,7000,169000,738163,
-3528,-2352,18160,-5166,4261,-5952,-15000,7000,169000,738166,
-3452,-2148,18360,-5071,4545,-5729,-15000,7000,169000,738178,
-3388,-1996,18180,-5050,4646,-5737,-15000,7000,169000,738181,
-3304,-2172,18368,-5013,4724,-5657,-15000,7000,168000,738183,
-3348,-2740,18392,-4727,5510,-5545,-16000,8000,168000,738196,
-3464,-2800,18452,-4698,5634,-5447,-16000,8000,168000,738198,
-3460,-2856,18400,-4691,5823,-5398,-16000,8000,167000,738201,
-3588,-3208,18444,-4363,6048,-5239,-16000,8000,167000,738213,
-3848,-3144,18360,-4333,6096,-5250,-17000,8000,167000,738216,
-3876,-3252,18224,-4211,6086,-5249,-17000,8000,167000,738218,
-4428,-2732,18400,-4044,5871,-4916,-17000,9000,166000,738231,
-4556,-2660,18632,-3961,5838,-4847,-17000,9000,166000,738233,
-4944,-2384,19028,-3660,5138,-4437,-18000,9000,165000,738246,
-4996,-2216,19040,-3576,4964,-4426,-18000,9000,165000,738248,
-5016,-2448,19092,-3561,4816,-4351,-18000,9000,165000,738251,
-5312,-2616,19600,-3180,4463,-4253,-18000,10000,165000,738263,
-5376,-2648,19484,-3106,4287,-4213,-18000,10000,164000,738266,
-5328,-2896,19700,-3018,4159,-4212,-18000,10000,164000,738268,
-5172,-3164,19848,-2614,4035,-3962,-18000,10000,164000,738281,
-5144,-3196,19676,-2567,4017,-3968,-18000,10000,164000,738283,
-5084,-3324,19632,-2535,3950,-3942,-19000,10000,164000,738286,
-4808,-3144,19932,-2149,3788,-3636,-19000,10000,163000,738298,
-4860,-3232,19812,-2060,3763,-3589,-19000,10000,163000,738301,
-4920,-3248,20236,-2012,3791,-3430,-19000,10000,163000,738303,
-5016,-3084,20568,-1600,4341,-2744,-19000,11000,163000,738316,
-5212,-3176,20640,-1565,4397,-2552,-19000,11000,163000,738318,
-5364,-3184,21064,-980,5288,-1765,-19000,11000,162000,738331,
-5312,-3100,20924,-944,5453,-1735,-19000,11000,162000,738333,
-5248,-3248,20876,-907,5541,-1760,-19000,11000,162000,738335,
-5776,-3644,21060,-513,5749,-1779,-19000,12000,162000,738348,
-5880,-3588,21100,-403,5820,-1748,-19000,12000,162000,738351,
-5956,-3560,21392,-229,5777,-1689,-19000,12000,162000,738353,
-5556,-3432,20928,-116,5586,-1454,-19000,13000,161000,738366,
-5404,-3592,21692,112,5502,-1431,-19000,13000,161000,738368,
-5296,-3468,21512,233,5695,-1341,-19000,13000,161000,738370,
-4452,-2960,21444,876,5330,-1535,-19000,13000,161000,738383,
-4408,-2916,21432,832,5273,-1558,-19000,13000,161000,738385,
-4236,-2852,21460,942,5258,-1600,-19000,13000,161000,738388,
-4140,-2684,21720,1460,5415,-1561,-19000,14000,161000,738401,
-4068,-2560,21668,1553,5557,-1562,-19000,14000,160000,738403,
-3972,-2524,21708,1644,5749,-1579,-19000,14000,160000,738405,
-3884,-2948,21996,2250,5696,-1386,-19000,14000,160000,738418,
-3932,-2920,21728,2426,5695,-1420,-19000,14000,160000,738420,
-4096,-2928,21796,2530,5490,-1394,-19000,15000,160000,738423,
-4612,-3360,21448,3008,5100,-1559,-18000,15000,160000,738435,
-4576,-3372,20956,3144,4849,-1506,-18000,15000,160000,738438,
-4900,-3432,21024,3195,4714,-1556,-18000,15000,160000,738440,
-5280,-3524,20652,3767,3781,-1418,-18000,15000,159000,738453,
-5412,-3264,20540,3777,3641,-1367,-18000,15000,159000,738455,
-5344,-3316,20552,3903,3525,-1423,-18000,16000,159000,738458,
-5056,-3292,20344,4140,2729,-1698,-17000,16000,159000,738470,
-5184,-3396,20312,4214,2580,-1721,-17000,16000,159000,738473,
-5032,-3340,20328,4337,2301,-1746,-17000,16000,159000,738475,
-5088,-3324,20052,4901,1608,-1714,-17000,16000,159000,738488,
-5388,-3408,20024,4926,1467,-1610,-17000,16000,159000,738490,
-5684,-3444,19828,5295,1028,-1517,-16000,16000,159000,738503,
-5724,-3328,19892,5307,783,-1480,-16000,16000,159000,738505,
-5848,-3400,19784,5381,651,-1512,-16000,16000,158000,738508,
-6168,-3392,19456,5670,38,-1318,-15000,16000,158000,738520,
-6212,-3364,19504,5684,-131,-1329,-15000,16000,158000,738523,
-6216,-3364,19304,5771,-313,-1298,-15000,16000,158000,738525,
-6236,-3380,19048,6072,-1217,-1297,-15000,16000,158000,738538,
-6156,-3364,19104,6145,-1314,-1299,-14000,16000,158000,738540,
-6204,-3352,18932,6223,-1426,-1345,-14000,16000,158000,738543,
-6140,-3056,18444,6545,-1959,-1343,-14000,15000,158000,738555,
-5996,-2972,18272,6495,-2095,-1310,-14000,15000,158000,738558,
-5948,-2808,18160,6497,-2112,-1296,-13000,15000,158000,738560,
-5604,-2848,18348,6610,-2269,-1120,-13000,15000,158000,738573,
-5548,-2808,18328,6724,-2212,-1039,-13000,15000,158000,738575,
-5436,-2776,18404,6715,-2214,-1008,-13000,15000,158000,738578,
-5124,-2252,17992,6837,-2212,-979,-12000,15000,158000,738591,
-5008,-2204,18012,6771,-2163,-913,-12000,15000,158000,738593,
-5636,-2172,17696,6943,-2194,-914,-11000,15000,158000,738606,
-5592,-2172,17684,6933,-2262,-856,-11000,15000,158000,738608,
-5800,-2060,17556,6978,-2269,-803,-11000,15000,158000,738611,
-5868,-2392,17632,7023,-2602,-467,-10000,14000,158000,738623,
-5940,-2236,17652,7052,-2720,-469,-10000,14000,158000,738626,
-6020,-2196,17532,7070,-2922,-477,-10000,14000,158000,738628,
-6176,-2076,17356,7210,-4065,-578,-9000,14000,158000,738641,
-6176,-2088,17392,7212,-4274,-573,-9000,14000,158000,738643,
-6272,-1968,17608,7207,-4382,-552,-9000,14000,158000,738646,
-5732,-1488,17272,7495,-5087,-483,-8000,13000,158000,738658,
-5600,-1356,17292,7447,-5264,-535,-8000,13000,158000,738661,
-5488,-1348,17088,7472,-5404,-573,-8000,13000,158000,738663,
-4996,-1364,17256,7328,-5810,-730,-7000,12000,158000,738676,
-4940,-1476,17192,7452,-5810,-725,-7000,12000,158000,738678,
-4728,-1448,17156,7492,-5768,-679,-7000,12000,158000,738681,
-4364,-1080,17132,7590,-5598,-596,-6000,12000,158000,738693,
-4368,-948,17120,7545,-5603,-553,-6000,12000,158000,738696,
-4068,-932,17048,7561,-5578,-545,-6000,11000,158000,738698,
-3916,-592,16456,7501,-5369,-629,-5000,11000,158000,738711,
-3856,-580,16656,7535,-5263,-654,-5000,11000,158000,738713,
-3840,-660,16632,7626,-5158,-690,-5000,11000,158000,738716,
-3784,-384,16160,7580,-4580,-681,-4000,10000,158000,738728,
-3844,-396,16344,7607,-4495,-696,-4000,10000,158000,738731,
-3828,-300,16156,7525,-4392,-686,-4000,10000,158000,738733,
-3828,-140,16024,7574,-4106,-759,-3000,10000,158000,738746,
-3984,-180,15816,7463,-4121,-781,-3000,10000,158000,738748,
-3756,-8,15640,7446,-4131,-800,-3000,10000,158000,738751,
-3388,256,15268,7376,-4094,-885,-2000,9000,158000,738763,
-3488,368,15028,7351,-4063,-917,-2000,9000,158000,738766,
-3460,452,14948,7350,-3946,-931,-2000,9000,158000,738768,
-3004,472,14936,7043,-3226,-856,-1000,9000,158000,738781,
-2824,428,14688,7053,-3036,-891,-1000,9000,158000,738783,
-2920,592,14628,6964,-2887,-853,-1000,9000,158000,738786,
-2804,792,14384,6638,-1947,-784,0,9000,158000,738798,
-2916,904,14372,6553,-1918,-770,0,9000,158000,738801,
-2964,956,14172,6458,-1815,-773,0,8000,158000,738803,
-3004,980,14064,6405,-1620,-787,0,8000,158000,738805,
-3300,1252,13776,6034,-887,-737,0,8000,158000,738818,
-3184,1424,13580,5819,-868,-855,0,8000,158000,738820,
-3380,1176,13904,5774,-990,-844,0,8000,158000,738823,
-3128,1620,13052,5471,-568,-969,1000,8000,157000,738835,
-3096,1380,13132,5252,-933,-1077,1000,8000,157000,738838,
-3040,1516,13260,5289,-885,-1122,1000,8000,157000,738840,
-2556,1664,13272,4966,-550,-1250,1000,8000,157000,738853,
-2500,1784,13212,4851,-486,-1279,2000,8000,157000,738855,
-2344,1716,13392,4835,-352,-1282,2000,8000,157000,738858,
-1848,1832,13236,4601,236,-1297,2000,8000,157000,738870,
-1808,1920,13368,4542,255,-1308,2000,8000,157000,738873,
-1772,1996,13212,4544,207,-1318,2000,8000,157000,738875,
-2200,1968,13752,4419,176,-1249,3000,8000,157000,738888,
-2268,1848,13816,4411,120,-1215,3000,8000,157000,738890,
-2316,1880,13872,4367,71,-1156,3000,8000,157000,738892,
-3048,1648,13680,4385,-473,-910,3000,8000,157000,738905,
-3204,1564,13856,4303,-609,-872,3000,8000,157000,738907,
-3292,1684,13748,4324,-756,-884,3000,8000,157000,738910,
-3220,1900,13688,4278,-1948,-852,4000,8000,157000,738926,
-3052,2004,13344,4206,-2087,-817,4000,8000,157000,738929,
-3000,2188,13332,4198,-2215,-831,4000,8000,157000,738931,
-2512,2628,13176,3900,-2750,-811,5000,8000,157000,738944,
-2436,2692,13184,3829,-2787,-882,5000,8000,157000,738946,
-2456,2712,13264,3813,-2819,-919,5000,8000,157000,738948,
-2300,2596,13036,3603,-2473,-930,5000,8000,156000,738961,
-2148,2824,12928,3659,-2470,-877,5000,7000,156000,738964,
-2152,2828,13104,3562,-2491,-869,5000,7000,156000,738966,
-2096,3236,13596,3330,-2947,-813,6000,7000,156000,738978,
-2076,3308,13628,3281,-3020,-750,6000,7000,156000,738981,
-1948,3316,13660,3221,-3124,-774,6000,7000,156000,738983,
-2108,3284,13232,3097,-3421,-714,6000,7000,156000,738996,
-2244,3196,13088,3052,-3371,-738,6000,7000,156000,738998,
-2196,3252,13132,3044,-3350,-742,6000,7000,156000,739001,
-1988,2980,13236,2754,-3147,-724,6000,6000,156000,739013,
-1732,2972,13188,2764,-3187,-758,7000,6000,156000,739016,
-1668,2996,13340,2677,-3179,-690,7000,6000,156000,739018,
-1332,3312,13612,2552,-3155,-866,7000,6000,156000,739031,
-1224,3400,13556,2494,-3059,-860,7000,6000,156000,739033,
-1256,3316,13412,2462,-2922,-870,7000,6000,156000,739035,
-1016,3572,13176,2331,-2207,-815,7000,6000,156000,739048,
-984,3560,13256,2252,-2074,-832,7000,6000,156000,739050,
-1072,3472,13008,2228,-1967,-804,7000,6000,156000,739053,
-1376,3248,13248,2086,-1406,-739,8000,5000,156000,739065,
-1448,3144,13028,2057,-1301,-704,8000,5000,156000,739068,
-1360,3204,13088,2074,-1257,-657,8000,5000,156000,739070,
-1560,3508,12808,1943,-1230,-571,8000,5000,156000,739083,
-1244,3620,12904,1909,-1245,-533,8000,5000,155000,739085,
-1404,3664,12820,1884,-1197,-590,8000,5000,155000,739088,
-1256,4200,12748,1583,-1153,-580,8000,5000,155000,739100,
-1268,4220,12616,1543,-1074,-630,8000,5000,155000,739103,
-1260,4456,12900,1454,-1083,-580,8000,5000,155000,739105,
-1392,4272,13460,1113,-1109,-548,8000,5000,155000,739118,
-1472,4276,13460,1013,-1101,-527,8000,5000,155000,739120,
-1480,4052,13492,966,-1064,-511,8000,5000,155000,739122,
-1280,3904,13112,843,-769,-383,9000,5000,155000,739135,
-1264,3788,12964,773,-713,-382,9000,5000,155000,739137,
-1272,3936,12776,806,-702,-413,9000,5000,155000,739140,
-960,4144,13224,548,-645,-390,9000,5000,155000,739152,
-1040,4140,13200,548,-687,-339,9000,5000,155000,739155,
-980,4220,13220,478,-631,-329,9000,5000,155000,739157,
-1024,4144,13148,468,-573,-321,9000,5000,155000,739160,
-1384,4256,13236,323,-337,-133,9000,5000,155000,739172,
-1340,4168,13304,289,-232,-109,9000,5000,155000,739175,
-1452,4140,13364,251,-241,-83,9000,5000,155000,739177,
-1296,4024,13548,127,-111,33,9000,5000,155000,739190,
-1268,4128,13644,96,-165,74,9000,5000,155000,739192,
-1336,4144,13776,62,-166,88,9000,5000,155000,739194,
-1224,4016,13872,52,-171,74,9000,5000,155000,739197,
-1364,4604,14024,-76,-341,193,9000,5000,155000,739210,
-1296,4692,14036,-81,-327,172,9000,5000,155000,739212,
-1316,4768,13924,-136,-319,208,9000,5000,155000,739214,
-1644,4756,13960,-410,-10,239,9000,5000,155000,739227,
-1548,4600,14280,-503,-61,279,9000,5000,155000,739229,
-1556,4652,14336,-574,-84,303,9000,5000,155000,739232,
-1568,4588,14500,-599,-91,255,9000,5000,155000,739234,
-1132,4492,14572,-739,-556,318,9000,5000,155000,739247,
-1100,4516,14548,-743,-583,320,9000,5000,155000,739249,
-1032,4584,14800,-741,-596,329,9000,5000,155000,739251,
-1032,4572,14972,-778,-324,335,9000,5000,155000,739264,
-996,4568,14816,-761,-268,335,9000,5000,155000,739266,
-912,4500,14912,-760,-182,349,9000,5000,155000,739269,
-748,4452,14708,-853,106,370,9000,4000,155000,739281,
-812,4500,14604,-927,138,398,9000,4000,155000,739284,
-760,4652,14700,-985,244,382,9000,4000,155000,739286,
-836,4616,14824,-997,257,405,9000,4000,155000,739289,
-904,4972,15168,-1229,538,358,9000,5000,155000,739301,
-876,5104,15336,-1212,491,354,9000,5000,155000,739304,
-884,4960,15352,-1281,529,310,9000,5000,155000,739306,
-1272,4644,15492,-1512,295,140,9000,5000,155000,739322,
-1416,4632,15496,-1475,305,82,9000,5000,155000,739325,
-1468,4412,15524,-1514,218,136,9000,5000,155000,739327,
-1552,4196,15764,-1491,-219,223,9000,5000,156000,739340,
-1536,4252,15792,-1507,-402,286,9000,5000,156000,739342,
-1484,4200,15860,-1549,-532,309,9000,5000,156000,739345,
-1264,4588,16356,-1593,-1365,326,8000,4000,156000,739357,
-1308,4504,16412,-1623,-1453,306,8000,4000,156000,739360,
-1232,4700,16428,-1597,-1508,250,8000,4000,156000,739362,
-1472,4448,16120,-1516,-1656,115,8000,4000,156000,739375,
-1372,4328,16120,-1467,-1596,85,8000,4000,156000,739377,
-1360,4224,16072,-1420,-1549,50,8000,4000,156000,739379,
-956,3728,15820,-1295,-1100,35,8000,4000,156000,739392,
-884,3812,15804,-1288,-1048,71,8000,4000,156000,739394,
-780,3728,15804,-1314,-957,99,8000,4000,156000,739397,
-348,4104,16560,-1226,-305,161,8000,4000,156000,739409,
-348,4260,16532,-1248,-117,204,8000,4000,156000,739412,
-348,4388,16460,-1217,141,241,8000,4000,156000,739414,
