Ax,Ay,Az,Gx,Gy,Gz,Roll,Pitch,Yaw,Timestamp,Target
4372,4268,14856,-129,-428,-524,8000,-13000,329000,664467,
4528,4272,14864,-148,-241,-605,8000,-13000,329000,664479,
4480,4312,14868,-107,-105,-580,8000,-13000,329000,664482,
4416,4356,14680,-178,-56,-602,8000,-13000,329000,664484,
4400,4336,14644,-206,506,-617,8000,-13000,329000,664496,
4464,4424,14628,-344,479,-603,8000,-13000,329000,664499,
4444,4408,14744,-275,585,-617,8000,-13000,329000,664501,
4088,4444,14736,-458,698,-585,8000,-13000,329000,664513,
4084,4308,14776,-402,728,-584,8000,-13000,329000,664516,
4060,4368,14728,-436,700,-563,8000,-13000,329000,664518,
4004,4536,14824,-424,592,-477,8000,-13000,329000,664530,
4012,4524,14892,-481,487,-502,8000,-13000,329000,664533,
3988,4528,14924,-424,463,-459,9000,-13000,329000,664535,
4000,4560,14968,-522,175,-475,9000,-13000,329000,664547,
4016,4624,14932,-471,224,-493,9000,-13000,329000,664550,
4080,4556,15056,-531,135,-467,9000,-13000,329000,664552,
4144,4576,15004,-497,-25,-456,9000,-13000,329000,664564,
4160,4596,14984,-478,-77,-421,9000,-13000,328000,664567,
4156,4504,14788,-442,-112,-410,9000,-13000,328000,664569,
4188,4668,14932,-390,-157,-372,9000,-13000,328000,664582,
4128,4688,15036,-400,-132,-367,9000,-13000,328000,664584,
4316,4708,15032,-395,-163,-364,9000,-13000,328000,664586,
4532,4816,14900,-448,10,-413,9000,-13000,328000,664598,
4540,4724,15044,-402,50,-357,9000,-13000,328000,664601,
4620,4720,14960,-444,104,-419,9000,-13000,328000,664603,
4604,4620,14888,-463,363,-450,9000,-13000,328000,664616,
4632,4648,14968,-494,430,-480,9000,-13000,328000,664618,
4560,4636,14820,-464,438,-444,9000,-13000,328000,664620,
4236,4748,14860,-492,538,-492,9000,-13000,328000,664633,
4220,4780,14956,-531,469,-508,9000,-13000,328000,664635,
4160,4664,15000,-484,517,-463,9000,-13000,328000,664637,
4156,4900,15088,-529,257,-378,9000,-13000,328000,664650,
4108,4844,15200,-568,149,-364,9000,-13000,328000,664652,
4160,4768,15128,-523,109,-323,9000,-13000,328000,664654,
4072,4824,15156,-632,-221,-284,9000,-13000,328000,664667,
4048,4860,15296,-608,-232,-297,9000,-13000,328000,664669,
4040,4880,15260,-631,-262,-251,9000,-13000,328000,664671,
4272,5008,15260,-628,-465,-241,9000,-13000,328000,664684,
4204,4884,15352,-669,-509,-242,9000,-13000,328000,664686,
4240,4872,15348,-657,-598,-243,9000,-13000,328000,664688,
4312,4848,15316,-611,-681,-226,9000,-13000,328000,664701,
4284,4976,15208,-575,-652,-236,9000,-13000,328000,664703,
4308,4916,15244,-604,-731,-232,9000,-13000,328000,664705,
4340,4964,15184,-448,-633,-275,9000,-13000,328000,664718,
4648,4816,15052,-426,-685,-285,9000,-13000,328000,664720,
4660,4812,15288,-371,-602,-317,9000,-13000,328000,664722,
4776,4748,15072,-287,-427,-335,9000,-13000,328000,664735,
4716,4688,15084,-245,-256,-355,9000,-13000,328000,664737,
4732,4684,14932,-274,-260,-353,9000,-13000,328000,664740,
4696,4680,15016,-241,166,-429,9000,-13000,328000,664752,
4660,4732,15120,-310,170,-401,9000,-13000,328000,664754,
4768,4684,15076,-238,298,-422,9000,-13000,328000,664757,
4520,4668,14904,-383,524,-422,9000,-13000,328000,664769,
4452,4628,15016,-322,564,-452,9000,-13000,328000,664771,
4344,4588,14892,-357,606,-440,9000,-13000,328000,664774,
4028,4560,14892,-347,599,-442,9000,-13000,328000,664786,
4020,4580,14812,-364,633,-434,9000,-13000,328000,664788,
4024,4620,14796,-362,532,-405,9000,-13000,328000,664791,
3800,4640,14832,-417,242,-377,9000,-13000,328000,664803,
3892,4628,14816,-429,139,-350,9000,-13000,328000,664806,
3892,4684,15048,-450,93,-327,9000,-13000,328000,664808,
3888,4588,14960,-505,-299,-283,9000,-13000,328000,664820,
3888,4640,14960,-505,-356,-307,9000,-13000,328000,664823,
3896,4580,14884,-540,-416,-310,9000,-13000,328000,664825,
4012,4516,14644,-535,-669,-267,9000,-13000,327000,664837,
4092,4592,14668,-561,-758,-274,9000,-13000,327000,664840,
4184,4436,14740,-501,-678,-249,9000,-13000,327000,664842,
4304,4540,14680,-545,-855,-193,9000,-13000,327000,664854,
4408,4524,14692,-542,-818,-184,9000,-13000,327000,664857,
4472,4492,14772,-545,-804,-196,9000,-13000,327000,664859,
4680,4500,14920,-654,-730,-124,9000,-13000,327000,664872,
4656,4468,14704,-597,-732,-136,9000,-13000,327000,664874,
4648,4500,14708,-615,-695,-112,9000,-13000,327000,664876,
4708,4292,14708,-545,-291,-86,9000,-13000,327000,664889,
4636,4344,14732,-593,-342,-109,9000,-13000,327000,664891,
4644,4340,14748,-520,-230,-91,9000,-13000,327000,664893,
4720,4380,14688,-575,83,-189,9000,-13000,327000,664905,
4624,4248,14812,-527,147,-214,9000,-13000,327000,664908,
4664,4480,14660,-596,166,-222,9000,-13000,327000,664910,
4708,4536,14816,-632,327,-360,9000,-13000,327000,664923,
4620,4420,14932,-670,260,-354,9000,-13000,327000,664925,
4792,4456,14852,-619,304,-380,9000,-13000,327000,664927,
4440,4356,14864,-726,91,-490,9000,-13000,327000,664940,
4456,4340,14880,-667,92,-482,9000,-13000,327000,664942,
4428,4244,14972,-696,23,-465,9000,-13000,327000,664944,
4524,4364,14972,-681,-108,-504,9000,-13000,327000,664957,
4532,4328,14872,-652,-112,-479,9000,-13000,327000,664959,
4448,4228,14940,-665,-75,-476,9000,-13000,327000,664961,
4608,4248,14916,-634,65,-462,9000,-13000,327000,664973,
4764,4204,15112,-658,101,-465,9000,-13000,327000,664976,
4704,4308,15176,-661,102,-434,9000,-13000,327000,664978,
4608,4388,15088,-694,306,-421,9000,-13000,327000,664991,
4508,4332,15296,-696,353,-448,9000,-13000,327000,664993,
4524,4264,15428,-676,408,-477,9000,-13000,327000,664995,
4404,4204,15424,-653,454,-518,9000,-13000,327000,665008,
4368,4188,15404,-636,475,-554,9000,-13000,327000,665010,
4272,4188,15460,-607,379,-538,9000,-13000,327000,665012,
4196,4292,15628,-430,293,-558,9000,-13000,327000,665025,
4204,4304,15492,-453,268,-538,9000,-13000,327000,665027,
4096,4248,15608,-391,266,-473,9000,-13000,327000,665029,
4272,4544,15476,-330,116,-548,9000,-13000,327000,665042,
4340,4528,15392,-290,111,-557,9000,-13000,327000,665044,
4340,4520,15496,-319,151,-587,9000,-13000,327000,665046,
4344,4492,15592,-352,85,-567,9000,-13000,327000,665059,
4372,4580,15420,-388,105,-604,9000,-13000,327000,665061,
4292,4492,15584,-413,-19,-590,9000,-13000,327000,665063,
4100,4628,15532,-466,-278,-557,9000,-13000,327000,665076,
4012,4544,15640,-487,-421,-497,9000,-13000,327000,665078,
4124,4596,15712,-485,-500,-479,9000,-13000,327000,665080,
4244,4436,15592,-471,-941,-432,9000,-13000,326000,665093,
4192,4428,15704,-442,-1044,-404,9000,-13000,326000,665095,
4456,4464,15572,-438,-1041,-426,9000,-13000,326000,665097,
4596,4612,15608,-432,-1449,-455,9000,-13000,326000,665110,
4488,4472,15488,-355,-1476,-439,9000,-13000,326000,665112,
4532,4512,15596,-375,-1611,-446,9000,-13000,326000,665114,
4596,4472,15488,-209,-1763,-472,9000,-14000,326000,665127,
4560,4456,15384,-217,-1858,-483,9000,-14000,326000,665129,
4660,4456,15252,-145,-1817,-513,9000,-14000,326000,665131,
4916,4636,15188,-133,-1833,-615,9000,-14000,326000,665143,
4988,4596,15212,-91,-1811,-601,9000,-14000,326000,665146,
4992,4596,15324,-135,-1743,-661,9000,-14000,326000,665148,
5220,4628,14864,-91,-1538,-797,9000,-14000,326000,665161,
5012,4592,15016,-129,-1527,-794,9000,-14000,326000,665163,
5008,4544,14952,-83,-1414,-835,9000,-14000,326000,665165,
5000,4512,14936,-117,-1234,-912,9000,-14000,326000,665178,
5076,4524,14752,-109,-1132,-904,9000,-14000,326000,665180,
4952,4528,14824,-154,-1124,-933,9000,-14000,326000,665182,
4972,4428,14524,-105,-883,-979,9000,-14000,326000,665195,
4784,4528,14444,-128,-873,-1025,9000,-14000,326000,665197,
4964,4480,14664,-116,-837,-1025,9000,-14000,326000,665199,
4960,4420,14376,-178,-650,-1084,9000,-14000,325000,665212,
4960,4580,14408,-190,-647,-1095,9000,-14000,325000,665214,
4952,4420,14492,-173,-598,-1104,9000,-15000,325000,665216,
5072,4388,14128,-140,-430,-1113,9000,-15000,325000,665229,
4904,4376,14304,-185,-478,-1132,9000,-15000,325000,665231,
4820,4288,14236,-80,-465,-1120,9000,-15000,325000,665233,
4676,4276,14148,-116,-371,-1105,9000,-15000,325000,665246,
4672,4348,14296,-82,-370,-1138,9000,-15000,325000,665248,
4668,4392,14240,-119,-390,-1126,10000,-15000,325000,665250,
4736,4452,14256,-127,-229,-1185,10000,-15000,325000,665263,
4672,4488,14292,-219,-284,-1216,10000,-15000,325000,665265,
4860,4408,14184,-153,-211,-1194,10000,-15000,325000,665267,
4568,4436,14156,-269,-184,-1269,10000,-15000,325000,665280,
4676,4312,14032,-221,-107,-1275,10000,-15000,325000,665282,
4648,4368,13900,-273,-118,-1279,10000,-15000,325000,665285,
4512,4256,13980,-274,1,-1267,10000,-15000,325000,665297,
4472,4312,14008,-246,57,-1263,10000,-15000,325000,665299,
4500,4360,13956,-318,-14,-1249,10000,-15000,325000,665302,
4564,4344,14124,-388,171,-1255,10000,-15000,324000,665314,
4436,4316,13872,-473,139,-1232,10000,-15000,324000,665316,
4468,4504,13800,-421,195,-1205,10000,-15000,324000,665319,
4500,4272,13908,-579,306,-1233,10000,-15000,324000,665331,
4440,4228,13856,-572,370,-1224,10000,-15000,324000,665334,
4440,4248,13940,-593,321,-1240,10000,-15000,324000,665336,
4484,4276,13964,-593,516,-1223,10000,-15000,324000,665348,
4500,4280,13856,-694,447,-1207,10000,-14000,324000,665351,
4504,4312,13968,-635,508,-1176,10000,-14000,324000,665353,
4232,4240,14200,-716,449,-1115,10000,-14000,324000,665365,
4292,4260,14264,-672,526,-1067,10000,-14000,324000,665368,
4324,4288,14108,-733,454,-1032,10000,-14000,324000,665370,
4448,4452,14400,-810,343,-1002,10000,-14000,324000,665382,
4272,4380,14344,-775,349,-1007,10000,-14000,324000,665385,
4328,4456,14460,-834,285,-1006,10000,-14000,324000,665387,
4368,4500,14512,-877,205,-919,10000,-14000,324000,665399,
4364,4464,14528,-920,197,-938,10000,-14000,324000,665402,
4424,4492,14536,-877,215,-949,10000,-14000,324000,665404,
4492,4516,14760,-944,127,-967,10000,-14000,323000,665416,
4452,4500,14616,-925,96,-986,10000,-14000,323000,665419,
4508,4496,14612,-909,181,-988,10000,-14000,323000,665421,
4536,4380,14896,-886,232,-1060,10000,-14000,323000,665433,
4540,4460,14900,-890,215,-1077,10000,-14000,323000,665436,
4540,4508,14852,-852,166,-1075,10000,-14000,323000,665438,
4492,4544,15092,-852,-131,-1046,10000,-14000,323000,665450,
4628,4572,15132,-792,-128,-1031,10000,-14000,323000,665453,
4680,4608,15028,-843,-203,-1018,10000,-14000,323000,665455,
4924,4672,15268,-764,-309,-1055,10000,-14000,323000,665467,
4856,4768,15224,-832,-311,-1086,10000,-14000,323000,665470,
4924,4720,15244,-804,-251,-1069,10000,-14000,323000,665472,
5148,4736,15204,-794,-190,-1173,10000,-14000,323000,665484,
5032,4712,15228,-760,-90,-1154,10000,-14000,323000,665487,
5044,4712,15320,-760,-149,-1178,10000,-14000,323000,665489,
4948,4772,15176,-557,66,-1111,10000,-14000,323000,665501,
4920,4768,15236,-506,107,-1129,10000,-14000,323000,665504,
4972,4564,15196,-469,242,-1121,10000,-14000,323000,665506,
4860,4816,15336,-217,557,-1306,10000,-14000,322000,665518,
4756,4884,15240,-210,637,-1387,10000,-14000,322000,665521,
4644,4732,15304,-131,733,-1437,10000,-14000,322000,665523,
4288,4772,15560,75,779,-1634,10000,-14000,322000,665536,
4476,4900,15416,158,728,-1652,10000,-14000,322000,665538,
4340,4936,15560,154,697,-1628,10000,-14000,322000,665540,
4296,4952,15544,371,379,-1497,10000,-14000,322000,665553,
4272,5040,15576,380,356,-1473,10000,-14000,322000,665555,
4372,4956,15576,393,303,-1454,10000,-14000,322000,665557,
4276,5224,15608,378,187,-1468,10000,-14000,322000,665570,
4292,5260,15668,415,165,-1495,10000,-14000,322000,665572,
4300,5208,15672,368,188,-1492,10000,-14000,322000,665574,
4380,5256,15288,442,384,-1566,10000,-14000,322000,665587,
4284,5316,15444,413,380,-1562,10000,-14000,322000,665589,
4248,5280,15428,487,386,-1549,10000,-14000,322000,665591,
4028,5500,15080,534,602,-1451,11000,-14000,321000,665604,
3896,5432,15132,616,652,-1408,11000,-14000,321000,665606,
3956,5552,15272,601,700,-1426,11000,-14000,321000,665608,
3876,5676,14884,725,1143,-1430,11000,-14000,321000,665621,
3804,5720,14980,724,1204,-1427,11000,-14000,321000,665623,
3776,5584,14908,834,1237,-1380,11000,-14000,321000,665625,
3388,5556,14872,1016,1379,-1187,11000,-13000,321000,665638,
3124,5576,15040,1118,1453,-1074,11000,-13000,321000,665640,
3264,5596,15060,1073,1470,-1026,11000,-13000,321000,665643,
2884,5924,15252,1136,1509,-600,11000,-13000,321000,665655,
3012,5808,15160,1126,1487,-539,11000,-13000,321000,665657,
2900,5980,15020,1148,1595,-503,11000,-13000,321000,665660,
2532,6136,15072,1070,1479,-244,11000,-13000,321000,665672,
2384,6116,14996,1061,1464,-192,11000,-13000,321000,665674,
2448,6216,15096,993,1416,-132,12000,-13000,321000,665677,
2312,6208,14948,1062,1196,207,12000,-13000,321000,665689,
2380,6224,14912,995,1123,217,12000,-13000,321000,665692,
2216,6228,14852,1058,1144,287,12000,-13000,321000,665694,
2160,6188,14624,1056,1063,588,12000,-13000,321000,665706,
2220,6216,14700,1089,976,648,12000,-13000,321000,665709,
2176,6196,14656,1090,1037,698,12000,-13000,321000,665711,
2200,6168,14704,1216,791,1087,12000,-12000,321000,665723,
2132,6100,14564,1251,848,1162,12000,-12000,321000,665726,
2152,6108,14620,1263,785,1237,12000,-12000,321000,665728,
1932,6016,14624,1375,1050,1653,12000,-12000,321000,665740,
1868,6044,14836,1343,1011,1727,12000,-12000,322000,665743,
1952,6084,14876,1431,1149,1803,12000,-12000,322000,665745,
1668,6076,14612,1316,1474,2207,12000,-12000,322000,665757,
1580,6048,14704,1355,1574,2307,13000,-12000,322000,665760,
1628,6012,14868,1283,1540,2377,13000,-12000,322000,665762,
1384,6064,14844,1211,1586,2806,13000,-12000,322000,665774,
1372,6124,14908,1255,1564,2914,13000,-12000,322000,665777,
1264,6104,14904,1193,1480,3012,13000,-12000,322000,665779,
1016,6044,14944,1174,1250,3578,13000,-12000,323000,665791,
1016,5988,14964,1135,1157,3685,13000,-12000,323000,665794,
1020,5988,14776,1185,1118,3790,13000,-12000,323000,665796,
972,5948,14684,1207,737,4372,13000,-12000,323000,665808,
1112,5744,14604,1257,640,4495,13000,-12000,323000,665811,
1064,5748,14660,1273,604,4583,13000,-12000,323000,665813,
1100,5596,14780,1328,480,5187,13000,-12000,324000,665825,
1216,5500,14716,1254,497,5250,13000,-12000,324000,665828,
1080,5564,14592,1308,476,5387,13000,-12000,324000,665830,
1372,5496,14572,1238,388,5871,13000,-12000,325000,665842,
1472,5352,14592,1260,421,5966,13000,-12000,325000,665845,
1448,5404,14604,1218,475,6082,13000,-12000,325000,665847,
1776,5212,14544,1205,643,6606,13000,-12000,325000,665859,
1712,5132,14468,1116,637,6709,13000,-12000,326000,665862,
1736,5216,14388,1161,725,6781,13000,-12000,326000,665864,
2048,5084,14412,1111,857,7356,13000,-12000,326000,665876,
2152,4968,14356,1154,855,7499,13000,-12000,326000,665879,
2176,5028,14328,1159,909,7563,13000,-12000,327000,665881,
2348,4828,14032,1300,1102,8020,13000,-12000,327000,665893,
2516,4904,13828,1311,1181,8047,13000,-12000,328000,665896,
2432,4788,13932,1316,1167,8116,13000,-12000,328000,665898,
2456,4620,13856,1313,1513,8436,13000,-12000,329000,665911,
2500,4492,13880,1352,1535,8542,13000,-12000,329000,665913,
2548,4512,13968,1316,1603,8586,13000,-12000,329000,665915,
2424,4288,14004,1252,1624,8937,13000,-12000,330000,665928,
2440,4188,13780,1263,1623,8958,13000,-12000,330000,665930,
2420,4116,13960,1228,1517,9046,13000,-12000,330000,665932,
2512,3928,14092,1154,1241,9439,13000,-12000,331000,665945,
2572,3872,14144,1125,1145,9570,13000,-12000,331000,665947,
2648,3792,14068,1129,1136,9604,13000,-12000,331000,665949,
3148,3556,14012,1227,853,9922,13000,-12000,332000,665962,
3276,3464,13884,1252,874,9917,13000,-12000,332000,665964,
3416,3468,14024,1223,759,10012,13000,-12000,333000,665966,
3932,3340,13760,1466,921,10206,13000,-13000,334000,665979,
3996,3252,13784,1419,921,10294,13000,-13000,334000,665981,
4212,3212,13704,1523,996,10272,13000,-13000,334000,665983,
4468,3288,13636,1498,1412,10269,12000,-13000,335000,665996,
4568,3120,13708,1527,1452,10243,12000,-13000,335000,665998,
4620,3124,13584,1482,1554,10262,12000,-13000,335000,666000,
4864,2964,13316,1473,1949,10285,12000,-13000,336000,666013,
4856,3008,13300,1369,2086,10241,12000,-13000,337000,666015,
5016,2980,13104,1369,2116,10265,12000,-13000,337000,666017,
5072,2708,12796,1125,2756,10122,12000,-13000,338000,666030,
5168,2800,12788,1044,2795,10163,12000,-13000,338000,666032,
5132,2736,12776,1042,2935,10122,12000,-13000,338000,666034,
5032,2480,12260,747,3364,10151,12000,-13000,339000,666046,
5076,2372,12452,648,3461,10158,12000,-13000,339000,666049,
5012,2408,12300,597,3393,10182,12000,-13000,340000,666051,
4764,2288,12364,156,3494,10150,12000,-13000,341000,666063,
4992,2392,12544,29,3393,10156,12000,-13000,341000,666066,
4812,2428,12388,-35,3459,10116,12000,-13000,341000,666068,
4896,2372,12312,-516,2937,10100,11000,-13000,342000,666080,
5044,2340,12216,-544,2956,10065,11000,-13000,342000,666083,
5072,2272,12124,-674,2883,10024,11000,-13000,342000,666085,
5188,2072,12120,-1030,2527,9930,11000,-13000,343000,666098,
5164,2040,12196,-1207,2401,9942,11000,-13000,344000,666100,
5116,1944,12180,-1227,2389,9875,11000,-13000,344000,666102,
5104,2024,12268,-1678,1989,9657,10000,-13000,345000,666115,
5156,1844,12140,-1823,1883,9611,10000,-13000,345000,666117,
5116,1928,12308,-1885,1837,9644,10000,-13000,345000,666119,
5248,1592,12452,-2394,1368,9519,10000,-13000,346000,666132,
5168,1440,12756,-2382,1320,9491,10000,-13000,346000,666134,
5268,1632,12700,-2570,1189,9484,10000,-13000,346000,666136,
5532,1460,12948,-2997,743,9495,9000,-13000,347000,666149,
5600,1448,12912,-3105,653,9459,9000,-13000,348000,666151,
5788,1528,13000,-3183,515,9452,9000,-13000,348000,666153,
6412,1512,13240,-3701,86,9218,8000,-13000,349000,666166,
6636,1440,13280,-3728,100,9189,8000,-13000,349000,666168,
6676,1408,13520,-3806,70,9168,8000,-13000,349000,666170,
7544,1208,13680,-4216,148,8787,7000,-14000,350000,666183,
7668,1284,13468,-4296,142,8655,7000,-14000,350000,666185,
7684,1264,13364,-4329,169,8588,7000,-14000,350000,666188,
7976,1052,13456,-4551,733,8070,6000,-14000,351000,666200,
8176,924,13296,-4498,949,7901,6000,-14000,351000,666202,
8248,968,13436,-4574,1177,7782,6000,-14000,351000,666205,
8452,1128,13532,-4804,2017,6859,6000,-14000,352000,666217,
8456,1216,13628,-4853,2132,6677,5000,-14000,352000,666219,
8340,1300,13644,-4964,2216,6613,5000,-14000,352000,666222,
8272,1464,14044,-5436,2469,6141,5000,-14000,353000,666234,
8340,1308,14288,-5588,2320,6090,5000,-14000,353000,666236,
8320,1416,14488,-5619,2205,5998,4000,-14000,353000,666239,
8092,1532,15032,-6168,1101,5386,4000,-14000,354000,666251,
7940,1508,15032,-6341,900,5416,4000,-14000,354000,666253,
8308,1504,15468,-6393,713,5397,3000,-14000,354000,666256,
8832,1352,15664,-6780,-501,4466,3000,-14000,354000,666268,
8944,1336,15556,-6837,-639,4359,3000,-14000,354000,666270,
9008,1180,15624,-6802,-816,4185,2000,-14000,354000,666273,
9236,876,15684,-6719,-1802,3067,2000,-14000,355000,666285,
9220,620,15704,-6648,-1887,2898,2000,-14000,355000,666287,
9444,704,15576,-6628,-2103,2725,1000,-14000,355000,666290,
9736,484,15696,-6376,-2188,1644,1000,-15000,355000,666302,
9816,740,15576,-6431,-2267,1455,1000,-15000,355000,666304,
9844,516,15760,-6374,-2210,1274,1000,-15000,355000,666307,
10240,820,15568,-6237,-2079,289,0,-15000,355000,666319,
10436,860,15592,-6196,-1887,118,0,-15000,355000,666322,
10588,952,15624,-6214,-1746,25,0,-15000,355000,666324,
10844,908,15628,-6374,-987,-1079,0,-15000,355000,666336,
10936,924,15624,-6350,-860,-1177,0,-15000,355000,666338,
10832,856,15660,-6410,-616,-1291,0,-16000,355000,666341,
10964,768,15972,-6759,509,-1965,-1000,-16000,355000,666353,
11072,636,16080,-6821,699,-2076,-1000,-16000,355000,666356,
10972,812,16116,-6872,946,-2261,-1000,-16000,354000,666358,
10968,968,15988,-7069,1936,-3562,-1000,-16000,354000,666370,
10852,828,15924,-7021,2123,-3715,-1000,-16000,354000,666373,
10792,712,16048,-7092,2219,-3845,-2000,-15000,354000,666375,
10228,516,16176,-6979,2851,-4809,-2000,-15000,353000,666388,
10144,560,16232,-6901,3002,-4905,-2000,-15000,353000,666390,
10064,480,16416,-6881,2987,-5115,-2000,-15000,353000,666392,
9416,304,16848,-6499,2862,-6144,-3000,-15000,353000,666405,
9364,292,16988,-6549,2751,-6310,-3000,-15000,353000,666407,
9312,268,17212,-6394,2692,-6443,-3000,-15000,352000,666409,
9116,300,17680,-5965,2002,-7516,-3000,-15000,352000,666422,
8932,128,17720,-5818,1931,-7664,-3000,-15000,352000,666424,
8636,12,17712,-5716,1728,-7856,-3000,-15000,351000,666426,
8532,-60,18072,-5016,744,-8463,-3000,-15000,351000,666439,
8500,4,18080,-4938,482,-8599,-4000,-15000,350000,666441,
8356,0,18144,-4739,365,-8679,-4000,-15000,350000,666443,
8504,168,17908,-4212,-337,-9264,-4000,-15000,349000,666456,
8536,212,17916,-4044,-354,-9340,-4000,-15000,349000,666458,
8672,412,18020,-3988,-416,-9475,-4000,-15000,349000,666460,
8696,628,17524,-3443,-485,-10224,-4000,-15000,348000,666473,
8816,664,17512,-3376,-480,-10385,-4000,-15000,348000,666475,
8884,736,17528,-3290,-492,-10530,-4000,-16000,348000,666478,
9056,756,17304,-2961,26,-11069,-4000,-16000,346000,666490,
9032,800,17284,-2839,201,-11137,-4000,-16000,346000,666492,
9088,720,17180,-2818,298,-11284,-4000,-16000,346000,666495,
8892,792,16728,-2443,1125,-11809,-4000,-16000,345000,666507,
8944,824,16728,-2395,1265,-11935,-4000,-16000,345000,666509,
8884,816,16868,-2343,1403,-12042,-3000,-16000,344000,666512,
8172,540,16808,-2033,2570,-12794,-3000,-16000,343000,666524,
8200,628,16700,-1918,2836,-12838,-3000,-16000,343000,666527,
8092,616,16684,-1913,2982,-12979,-3000,-16000,343000,666529,
7292,760,16288,-1505,3630,-13256,-3000,-15000,341000,666541,
6964,728,16332,-1450,3652,-13292,-3000,-15000,341000,666544,
6796,888,16308,-1361,3758,-13330,-3000,-15000,341000,666546,
6224,956,15992,-956,3646,-13445,-3000,-15000,339000,666558,
6304,1060,15764,-891,3609,-13391,-2000,-15000,339000,666561,
5440,1252,15360,-664,2721,-13453,-2000,-15000,338000,666573,
5572,1304,15304,-568,2580,-13380,-2000,-15000,338000,666575,
5404,1344,15204,-611,2303,-13360,-2000,-15000,337000,666578,
5288,1612,14940,-411,789,-13353,-2000,-15000,336000,666590,
5256,1664,14796,-455,516,-13382,-2000,-15000,336000,666592,
5284,1760,14804,-439,370,-13408,-2000,-15000,335000,666595,
5960,1920,14844,-667,177,-13476,-1000,-15000,334000,666607,
6084,1864,14804,-731,179,-13659,-1000,-15000,334000,666609,
6104,1916,14696,-775,324,-13661,-1000,-15000,334000,666612,
6528,1900,14356,-1137,1390,-14089,-1000,-15000,332000,666624,
6760,1900,14492,-1228,1766,-14123,-1000,-15000,332000,666626,
6704,1988,14248,-1340,2211,-14142,-1000,-15000,332000,666629,
6968,1688,13988,-1536,4969,-14352,0,-14000,330000,666641,
6792,1540,13976,-1519,5421,-14457,0,-14000,330000,666644,
6692,1660,13812,-1559,5934,-14501,0,-14000,330000,666646,
5324,1340,14120,-1345,7549,-14560,0,-14000,328000,666658,
5072,1332,13792,-1341,7664,-14488,0,-13000,328000,666661,
4888,1264,13900,-1244,7681,-14479,0,-13000,328000,666663,
3264,1364,14268,-1083,7115,-14227,0,-13000,326000,666675,
2984,1416,14404,-1068,6934,-14213,0,-13000,326000,666678,
2804,1432,14476,-1010,6728,-14126,0,-12000,326000,666680,
1852,1344,14800,-977,4890,-14033,0,-12000,324000,666692,
1740,1480,14804,-955,4502,-14016,0,-12000,324000,666695,
1624,1472,14908,-977,4071,-14006,0,-12000,324000,666697,
1108,1468,15024,-1077,1990,-13854,0,-12000,323000,666709,
1088,1420,15112,-1105,1640,-13828,0,-11000,322000,666712,
1024,1496,14840,-1134,1349,-13780,0,-11000,322000,666714,
1412,1508,14608,-1429,210,-13519,0,-11000,321000,666726,
1384,1500,14580,-1405,220,-13403,0,-11000,321000,666729,
1520,1420,14688,-1539,144,-13358,0,-11000,320000,666731,
1960,1440,14608,-1656,380,-12900,0,-11000,319000,666743,
1904,1504,14500,-1762,389,-12890,0,-11000,319000,666746,
1936,1380,14440,-1723,559,-12753,0,-11000,319000,666748,
1896,1388,14440,-1902,551,-12230,1000,-11000,317000,666761,
1720,1460,14404,-1868,486,-12090,1000,-11000,317000,666763,
1636,1416,14512,-1913,368,-11992,1000,-11000,317000,666765,
1208,1512,14792,-2116,-310,-11504,1000,-11000,316000,666778,
1172,1536,14788,-2134,-379,-11418,1000,-11000,316000,666780,
1132,1532,14708,-2193,-452,-11384,1000,-11000,315000,666782,
1232,1324,14940,-2427,-259,-11477,1000,-11000,314000,666795,
1184,1304,14976,-2528,-164,-11467,1000,-11000,314000,666797,
1224,1280,14836,-2574,-62,-11497,1000,-11000,314000,666799,
1444,1108,14696,-2910,664,-11260,1000,-11000,313000,666812,
1532,976,14636,-2887,918,-11159,1000,-11000,313000,666814,
1580,948,14748,-2960,1008,-11154,1000,-11000,312000,666817,
1388,868,14588,-2996,1828,-10654,1000,-11000,311000,666829,
1364,828,14548,-2992,1819,-10579,1000,-11000,311000,666832,
1184,856,14600,-2938,1873,-10438,1000,-10000,311000,666834,
572,576,14692,-2884,1480,-9962,0,-10000,310000,666846,
328,672,14752,-2888,1345,-9833,0,-10000,310000,666849,
188,648,14784,-2894,1123,-9777,0,-10000,310000,666851,
24,752,14964,-3005,19,-9203,0,-10000,309000,666863,
152,812,14764,-3028,-197,-9152,0,-10000,309000,666866,
240,848,14808,-3081,-391,-9046,0,-10000,308000,666868,
312,888,14836,-3133,-587,-9025,0,-10000,308000,666870,
1128,1012,14508,-3537,-706,-8777,0,-10000,307000,666883,
1220,932,14580,-3583,-620,-8748,0,-10000,307000,666885,
1344,856,14324,-3684,-578,-8757,0,-10000,307000,666887,
1336,576,14192,-4011,-39,-8712,0,-10000,306000,666900,
1408,520,14300,-4114,13,-8668,0,-10000,306000,666902,
1292,600,14292,-4103,54,-8589,0,-10000,306000,666904,
1068,496,13980,-4341,-108,-8178,0,-10000,305000,666917,
1096,528,14056,-4303,-99,-8091,0,-10000,305000,666919,
984,496,14020,-4381,-151,-8038,0,-10000,305000,666921,
1056,508,14208,-4585,-634,-7806,0,-10000,304000,666934,
1048,672,14048,-4672,-763,-7736,0,-10000,304000,666936,
1044,608,13928,-4655,-924,-7691,0,-10000,304000,666938,
1368,688,13836,-4780,-1728,-7248,0,-10000,303000,666951,
1528,696,13924,-4761,-1736,-7185,0,-10000,303000,666953,
1604,892,13896,-4853,-1691,-7160,0,-10000,303000,666955,
2264,760,13820,-5161,-728,-7153,-1000,-10000,302000,666968,
2468,616,13688,-5326,-577,-7220,-1000,-10000,302000,666970,
2588,640,13704,-5301,-265,-7251,-1000,-10000,302000,666972,
2568,428,13736,-5693,1087,-7378,-1000,-10000,301000,666985,
2332,352,13532,-5816,1197,-7425,-1000,-10000,301000,666987,
2260,236,13592,-5782,1411,-7415,-1000,-10000,301000,666990,
1324,48,13496,-6103,1561,-7285,-2000,-10000,300000,667002,
1252,-52,13528,-6135,1553,-7196,-2000,-10000,300000,667004,
956,-36,13448,-6239,1438,-7167,-2000,-10000,300000,667007,
784,-216,13660,-6612,754,-6827,-3000,-10000,299000,667019,
784,-184,13672,-6722,521,-6785,-3000,-10000,299000,667021,
860,-204,13484,-6695,384,-6731,-3000,-10000,299000,667024,
1072,-128,13732,-7055,-463,-6280,-3000,-10000,298000,667036,
1040,-140,13516,-7097,-554,-6224,-3000,-10000,298000,667038,
1000,-168,13528,-7147,-554,-6167,-3000,-10000,298000,667041,
1444,-148,13628,-7530,-665,-5888,-4000,-10000,298000,667053,
1540,-260,13604,-7560,-654,-5820,-4000,-10000,297000,667055,
1412,-268,13536,-7655,-708,-5786,-4000,-10000,297000,667058,
1456,-572,13564,-7916,-464,-5593,-5000,-10000,297000,667070,
1352,-500,13524,-8016,-454,-5570,-5000,-10000,297000,667073,
1392,-556,13556,-8021,-327,-5543,-5000,-10000,297000,667075,
1180,-844,13764,-8444,161,-5467,-6000,-10000,296000,667087,
1256,-904,13628,-8534,247,-5473,-6000,-10000,296000,667090,
1140,-948,13888,-8561,355,-5416,-6000,-10000,296000,667092,
1232,-1084,14192,-8952,417,-5208,-7000,-10000,295000,667104,
1312,-1204,14020,-8972,461,-5132,-7000,-10000,295000,667107,
1220,-1188,14144,-9032,532,-5118,-7000,-10000,295000,667109,
1028,-1528,14184,-9311,532,-4991,-8000,-10000,295000,667121,
984,-1572,14236,-9299,615,-4930,-8000,-10000,295000,667124,
984,-1696,14096,-9406,507,-4899,-8000,-10000,295000,667126,
772,-2068,14204,-9526,613,-4760,-9000,-10000,294000,667138,
852,-2060,14296,-9615,571,-4738,-9000,-10000,294000,667141,
584,-2368,14324,-9635,663,-4507,-10000,-10000,294000,667153,
664,-2356,14376,-9713,630,-4505,-10000,-10000,293000,667155,
584,-2416,14460,-9705,725,-4401,-10000,-10000,293000,667158,
540,-2764,14436,-9964,1267,-4080,-11000,-10000,293000,667170,
548,-2900,14496,-9944,1430,-4020,-11000,-10000,293000,667172,
536,-2876,14528,-10035,1468,-3959,-12000,-10000,293000,667175,
432,-3084,14820,-10159,1890,-3584,-12000,-10000,292000,667187,
316,-3208,14884,-10170,2034,-3490,-13000,-10000,292000,667190,
260,-3216,14756,-10218,2103,-3441,-13000,-10000,292000,667192,
4,-3756,14968,-10270,2380,-3116,-14000,-9000,292000,667204,
-40,-3784,15120,-10240,2447,-3048,-14000,-9000,292000,667207,
-152,-3824,15184,-10270,2481,-3029,-14000,-9000,292000,667209,
-728,-4004,15568,-10409,2319,-2610,-15000,-9000,292000,667222,
-768,-4068,15600,-10361,2220,-2529,-15000,-9000,291000,667224,
-1064,-4376,15744,-10394,1773,-2012,-16000,-9000,291000,667237,
-1192,-4308,15572,-10339,1782,-1913,-16000,-9000,291000,667239,
-1212,-4500,15296,-10425,1623,-1787,-16000,-9000,291000,667241,
-968,-4968,15580,-10398,1411,-1154,-17000,-9000,291000,667254,
-1248,-5168,15684,-10497,1298,-1067,-18000,-9000,291000,667256,
-1272,-5296,15744,-10447,1343,-946,-18000,-9000,291000,667259,
-1592,-5644,16096,-10471,753,-273,-19000,-8000,291000,667271,
-1700,-5736,15848,-10422,733,-127,-19000,-8000,291000,667274,
-1668,-5724,15888,-10538,525,30,-19000,-8000,291000,667276,
-1276,-5776,16060,-10458,449,987,-20000,-8000,291000,667288,
-1152,-5904,16160,-10517,452,1164,-20000,-8000,291000,667291,
20,-5736,16292,-10331,1508,1682,-21000,-8000,291000,667303,
76,-5740,16180,-10392,1721,1741,-22000,-8000,291000,667306,
108,-5716,16212,-10246,2104,1765,-22000,-8000,291000,667308,
312,-5976,16612,-9900,3656,1777,-23000,-7000,291000,667321,
176,-5996,16748,-9721,3957,1775,-23000,-7000,291000,667323,
28,-6092,16868,-9648,4149,1735,-23000,-7000,291000,667325,
-636,-6476,17516,-8953,5308,1745,-24000,-7000,291000,667338,
-820,-6484,17496,-8899,5359,1784,-24000,-7000,291000,667340,
-876,-6716,17392,-8754,5510,1819,-24000,-6000,291000,667342,
-1512,-7272,18476,-8329,5411,2103,-25000,-6000,291000,667355,
-1576,-7208,18536,-8156,5365,2209,-25000,-6000,291000,667357,
-1680,-7296,18628,-8135,5249,2274,-25000,-6000,291000,667359,
-2972,-7612,18924,-7601,4223,2935,-26000,-5000,291000,667372,
-3024,-7684,18744,-7504,4022,3111,-26000,-5000,291000,667374,
-3256,-7856,18728,-7371,3727,3327,-26000,-5000,291000,667377,
-3460,-8200,18688,-6695,2389,4516,-27000,-4000,291000,667389,
-3284,-8228,18772,-6603,2098,4775,-27000,-4000,291000,667391,
-3204,-8260,18916,-6427,1910,4975,-27000,-4000,291000,667394,
-2476,-8344,18812,-5751,967,6034,-28000,-4000,292000,667406,
-2232,-8304,18712,-5546,983,6160,-28000,-4000,292000,667409,
-1688,-8440,18740,-4857,968,6866,-28000,-3000,293000,667421,
-1620,-8460,18876,-4746,1054,6955,-28000,-3000,293000,667424,
-1484,-8512,18712,-4706,1031,7081,-28000,-3000,293000,667426,
-1352,-8576,19200,-4153,1071,7720,-29000,-3000,293000,667438,
-1264,-8604,19420,-4109,925,7848,-29000,-2000,294000,667441,
-1284,-8540,19392,-3988,886,7887,-29000,-2000,294000,667443,
-1184,-8672,19520,-3495,409,8402,-29000,-2000,294000,667456,
-1224,-8600,19552,-3292,379,8474,-29000,-2000,294000,667458,
-1168,-8656,19508,-3255,241,8627,-29000,-2000,295000,667460,
-724,-8740,19500,-2419,-135,8933,-30000,-1000,295000,667473,
-604,-8716,19424,-2271,-241,9065,-30000,-1000,295000,667475,
-612,-8680,19324,-2142,-227,9135,-30000,-1000,296000,667477,
-272,-8716,18828,-1347,11,9431,-30000,-1000,296000,667490,
-296,-8788,18828,-1272,12,9522,-30000,-1000,296000,667492,
-276,-8840,18772,-1078,121,9581,-30000,0,297000,667494,
-184,-8768,18820,-537,408,10067,-30000,0,297000,667507,
-212,-8728,18804,-351,488,10128,-30000,0,298000,667509,
-268,-8792,18760,-323,481,10243,-30000,0,298000,667511,
-392,-8888,18936,204,280,10661,-30000,0,299000,667524,
-348,-8908,19016,185,186,10759,-30000,0,299000,667526,
-316,-8788,19004,307,108,10786,-30000,0,299000,667529,
60,-8752,18680,643,-505,10926,-30000,0,300000,667541,
-88,-8820,18540,733,-488,10938,-30000,1000,300000,667543,
164,-8792,18652,782,-603,10972,-30000,1000,300000,667546,
324,-8728,18248,1305,-873,10904,-29000,1000,301000,667558,
404,-8732,18232,1365,-1069,10981,-29000,1000,301000,667560,
436,-8684,18160,1464,-1041,10967,-29000,1000,302000,667563,
920,-8372,17720,1911,-1257,11111,-29000,2000,302000,667575,
1076,-8480,17592,2014,-1292,11065,-29000,2000,303000,667577,
1036,-8432,17600,2159,-1290,10998,-29000,2000,303000,667580,
1200,-8228,17252,2517,-1220,10822,-29000,2000,304000,667592,
1268,-8064,17272,2580,-1263,10835,-29000,2000,304000,667594,
1232,-8176,17188,2691,-1258,10718,-29000,2000,304000,667597,
1496,-7856,16816,2962,-1151,10560,-28000,3000,305000,667609,
1452,-7808,16852,3012,-1068,10454,-28000,3000,305000,667612,
1624,-7836,16768,3021,-1156,10431,-28000,3000,305000,667614,
1912,-7656,16456,3367,-1014,9977,-28000,3000,306000,667626,
1872,-7544,16316,3372,-1116,9925,-28000,3000,306000,667629,
2028,-7348,16332,3456,-1069,9792,-28000,3000,307000,667631,
2504,-6652,15892,3516,-1305,9468,-27000,3000,308000,667644,
2516,-6524,15844,3588,-1248,9349,-27000,3000,308000,667646,
2684,-6520,15564,3520,-1262,9221,-27000,4000,308000,667648,
3160,-6020,14848,3649,-1273,8483,-27000,4000,309000,667661,
3324,-5976,14712,3618,-1297,8389,-26000,4000,309000,667663,
3088,-5888,14492,3649,-1272,8234,-26000,4000,309000,667665,
3304,-5476,14192,3514,-1178,7647,-26000,4000,310000,667678,
3352,-5524,14060,3535,-1107,7492,-26000,4000,310000,667680,
3348,-5328,13984,3414,-1120,7348,-26000,4000,310000,667682,
3404,-5072,13708,3151,-903,6485,-25000,4000,310000,667695,
3404,-5112,13640,3069,-916,6371,-25000,4000,311000,667697,
3468,-5124,13492,2979,-902,6221,-25000,4000,311000,667699,
3372,-4784,13576,2439,-751,5409,-25000,4000,311000,667712,
3296,-4792,13616,2280,-690,5262,-25000,4000,311000,667714,
3456,-4744,13432,2157,-759,5138,-25000,4000,311000,667716,
3108,-4660,13636,1548,-773,4400,-25000,4000,312000,667729,
3064,-4776,13600,1441,-946,4291,-25000,4000,312000,667731,
3044,-4736,13540,1382,-939,4172,-25000,4000,312000,667734,
2960,-4844,13492,995,-1252,3470,-24000,4000,312000,667746,
2964,-4812,13568,995,-1198,3329,-24000,4000,312000,667748,
2868,-4784,13556,929,-1210,3214,-24000,4000,312000,667751,
2796,-4816,13420,765,-937,2682,-24000,4000,313000,667763,
2700,-4832,13416,721,-765,2509,-24000,4000,313000,667765,
2688,-4840,13552,694,-764,2364,-24000,4000,313000,667768,
2424,-4692,13500,498,-81,1663,-24000,4000,313000,667780,
2280,-4728,13576,416,-102,1587,-24000,4000,313000,667782,
2152,-4576,13692,376,119,1446,-24000,4000,313000,667785,
