Ax,Ay,Az,Gx,Gy,Gz,Roll,Pitch,Yaw,Timestamp,Target
4068,4248,15340,-440,-457,-63,7000,-12000,310000,669739,
3836,4296,15252,-430,-684,-108,7000,-12000,310000,669752,
3880,4316,15272,-471,-877,-129,7000,-12000,310000,669754,
3748,4320,15348,-463,-896,-127,7000,-12000,310000,669756,
3736,4460,15364,-696,-1496,-158,7000,-13000,310000,669769,
3784,4500,15356,-653,-1522,-177,7000,-13000,310000,669771,
3940,4532,15344,-758,-1664,-193,7000,-13000,310000,669773,
4076,4516,15644,-931,-1822,-301,7000,-13000,310000,669786,
4064,4384,15392,-1024,-1876,-312,7000,-13000,310000,669788,
4168,4340,15476,-980,-1897,-316,7000,-13000,310000,669790,
4512,4100,15016,-1050,-1831,-475,6000,-13000,310000,669803,
4440,4168,14944,-1071,-1762,-524,6000,-13000,310000,669805,
4452,4168,14808,-1003,-1693,-542,6000,-13000,310000,669807,
4676,3924,14504,-829,-1367,-378,6000,-13000,309000,669820,
4748,3932,14544,-729,-1222,-358,6000,-13000,309000,669822,
4728,3840,14444,-717,-1181,-292,6000,-13000,3312,16572,
4860,2744,12936,4359,-3131,-397,3000,-15000,320000,674433,
-316,-4728,15392,-151,97,-343,-23000,2000,309000,673256,
4324,3824,15384,-463,1280,-234,6000,-13000,309000,669858,
3908,3608,15300,-495,1563,-264,6000,-13000,309000,669871,
3660,3640,15368,-574,1518,-216,6000,-13000,309000,669873,
3780,3644,15412,-513,1554,-175,6000,-13000,309000,669875,
3448,3656,15404,-624,1123,-125,6000,-13000,309000,669888,
3448,3564,15228,-612,1073,-122,6000,-13000,309000,669890,
3344,3660,15260,-585,991,-130,6000,-13000,309000,669892,
3264,3708,15300,-628,278,-84,6000,-13000,309000,669904,
3332,3664,15320,-598,151,-79,6000,-13000,309000,669907,
3468,3744,15192,-587,78,-76,6000,-13000,309000,669909,
3444,3736,15132,-555,-596,-9,6000,-13000,309000,669921,
3624,3796,15324,-530,-597,-9,6000,-13000,309000,669924,
3668,3660,15328,-554,-776,5,6000,-13000,309000,669926,
4048,3716,15072,-419,-863,46,6000,-13000,309000,669938,
4132,3588,15076,-320,-789,31,6000,-13000,309000,669940,
4116,3608,15140,-341,-767,23,6000,-13000,309000,669943,
4252,3556,15152,-149,-377,22,6000,-13000,309000,669955,
4324,3632,15232,-192,-281,24,6000,-13000,309000,669957,
4280,3644,15196,-163,-174,19,6000,-13000,309000,669960,
4484,3680,15416,-277,318,-45,6000,-13000,309000,669972,
4328,3656,15352,-244,368,-24,6000,-13000,309000,669975,
4332,3584,15356,-298,456,-34,6000,-13000,309000,669977,
4140,3520,15408,-343,623,23,6000,-13000,309000,669989,
4012,3568,15500,-392,598,28,6000,-13000,309000,669992,
4004,3460,15444,-342,618,3,6000,-13000,309000,669994,
3936,3508,15372,-349,376,50,6000,-13000,309000,670006,
3804,3468,15456,-273,422,1,6000,-13000,309000,670009,
3852,3500,15428,-319,283,23,6000,-13000,309000,670011,
4116,3512,15276,-175,37,-4,6000,-13000,309000,670023,
4076,3520,15068,-218,-3,-2,6000,-13000,309000,670026,
4080,3424,15284,-132,-55,10,6000,-13000,309000,670028,
4120,3452,15208,-156,-82,-16,7000,-13000,309000,670030,
4224,3492,15236,-64,-149,-76,7000,-13000,309000,670043,
4256,3552,15088,-102,-123,-69,7000,-13000,309000,670045,
4268,3492,15256,-77,-129,-65,7000,-13000,309000,670047,
4384,3708,15252,-136,-135,-110,7000,-13000,309000,670060,
4484,3736,15352,-127,-134,-75,7000,-13000,309000,670062,
4456,3748,15308,-87,-93,-123,7000,-13000,309000,670064,
4660,3648,15140,-101,60,-215,7000,-13000,309000,670077,
4396,3800,14992,-116,-25,-231,7000,-13000,309000,670079,
4404,3740,15152,-74,91,-246,7000,-13000,309000,670081,
4316,3744,15008,-64,143,-290,7000,-13000,309000,670094,
4436,3844,14948,-29,250,-319,7000,-13000,309000,670096,
4368,3724,15052,-49,216,-359,7000,-13000,309000,670098,
4436,3828,14872,-35,467,-440,7000,-13000,309000,670111,
4460,3824,14940,-86,492,-470,7000,-13000,309000,670113,
4404,3812,15036,-30,519,-416,7000,-13000,309000,670115,
4316,3888,15040,-131,599,-491,7000,-13000,309000,670128,
4224,3880,15068,-178,563,-492,7000,-13000,309000,670130,
4200,3828,15012,-154,597,-448,7000,-13000,309000,670132,
3896,3764,15244,-269,488,-425,7000,-13000,309000,670145,
3964,3740,15064,-249,491,-412,7000,-13000,309000,670147,
3924,3788,15184,-274,423,-405,7000,-13000,309000,670149,
4024,3784,15072,-290,430,-317,7000,-13000,309000,670162,
3992,3648,15036,-298,360,-340,7000,-13000,309000,670164,
4024,3736,14792,-282,426,-297,7000,-13000,309000,670166,
3984,3924,14916,-334,428,-311,7000,-13000,309000,670179,
3960,3884,14984,-355,379,-286,7000,-13000,309000,670181,
4044,3980,14948,-403,367,-306,7000,-13000,309000,670183,
3940,4124,15084,-446,174,-318,7000,-13000,309000,670196,
3920,4012,15004,-494,207,-270,7000,-13000,309000,670198,
4000,3948,14968,-497,176,-277,7000,-13000,309000,670200,
4144,4028,15104,-528,45,-281,7000,-13000,309000,670213,
4080,4156,15076,-527,19,-264,7000,-13000,309000,670215,
3984,4072,15024,-539,-24,-254,7000,-13000,309000,670217,
4160,4048,14976,-433,4,-269,7000,-13000,309000,670230,
4264,3984,14940,-414,63,-302,7000,-13000,309000,670232,
4288,4016,15020,-426,60,-317,7000,-13000,309000,670234,
4064,3988,15100,-331,181,-377,7000,-13000,309000,670247,
4100,4108,15032,-320,164,-401,7000,-13000,309000,670249,
4128,4120,15052,-304,228,-426,7000,-13000,309000,670251,
4076,4108,15052,-365,262,-397,7000,-13000,309000,670264,
4060,4148,15204,-292,284,-385,7000,-13000,309000,670266,
4076,4088,15136,-387,251,-407,7000,-13000,309000,670268,
3916,4020,15056,-360,403,-354,7000,-13000,308000,670281,
3956,3932,15084,-352,356,-361,7000,-13000,308000,670283,
4016,4040,15092,-378,403,-349,7000,-13000,308000,670285,
3872,4080,15112,-308,407,-276,7000,-13000,308000,670298,
4000,3996,15264,-294,477,-272,7000,-13000,308000,670300,
3892,4036,15148,-292,415,-287,7000,-13000,308000,670302,
3872,4108,15188,-347,474,-244,7000,-13000,308000,670315,
3936,4024,15072,-290,497,-239,7000,-13000,308000,670317,
3884,4132,15224,-347,486,-233,7000,-13000,308000,670319,
3836,4068,15336,-286,343,-242,7000,-13000,308000,670332,
3848,4132,15248,-334,292,-226,7000,-13000,308000,670334,
3964,4092,15276,-326,297,-224,7000,-13000,308000,670336,
4048,4132,15260,-303,287,-286,7000,-13000,308000,670349,
4064,4020,15224,-248,241,-319,7000,-13000,308000,670351,
4112,4164,15032,-249,237,-330,7000,-13000,308000,670353,
4076,4148,15232,-227,153,-376,7000,-13000,308000,670365,
4164,4160,15164,-220,210,-385,7000,-13000,308000,670368,
4192,4124,15104,-276,142,-374,7000,-13000,308000,670370,
4020,4188,15068,-237,206,-399,7000,-13000,308000,670382,
4116,4216,15020,-318,211,-395,7000,-13000,308000,670385,
4020,4156,14876,-251,228,-381,7000,-13000,308000,670387,
4180,4180,14952,-349,304,-397,7000,-12000,308000,670399,
4216,4104,14988,-337,398,-407,7000,-12000,308000,670402,
4124,4184,14932,-424,334,-388,7000,-12000,308000,670404,
4032,4212,15084,-443,484,-369,7000,-12000,308000,670416,
4164,4144,15076,-515,494,-377,7000,-12000,308000,670419,
4080,4132,15164,-482,509,-400,7000,-12000,308000,670421,
3908,4032,15156,-562,394,-436,7000,-12000,308000,670433,
3916,3984,15240,-534,348,-399,7000,-12000,308000,670436,
3848,4028,15140,-566,330,-417,7000,-12000,308000,670438,
3952,3916,14960,-495,199,-406,7000,-12000,308000,670450,
4048,3928,14952,-456,202,-386,7000,-12000,308000,670453,
3988,3836,14964,-480,183,-413,7000,-12000,308000,670455,
3976,3888,14944,-388,146,-447,7000,-12000,308000,670467,
3956,3860,14912,-406,126,-441,7000,-12000,308000,670470,
3940,3792,14968,-376,190,-448,7000,-12000,308000,670472,
4012,3924,14852,-403,113,-490,7000,-12000,308000,670484,
4000,3832,15056,-362,165,-550,7000,-12000,308000,670487,
3940,3836,14972,-412,127,-522,7000,-12000,308000,670489,
4080,3872,14904,-407,175,-526,7000,-12000,308000,670501,
3992,3924,14956,-450,142,-554,7000,-12000,308000,670503,
4064,3988,15028,-392,208,-545,7000,-12000,308000,670506,
4180,4100,15064,-520,245,-671,7000,-12000,308000,670518,
4052,3972,14864,-493,378,-643,7000,-12000,308000,670520,
4068,3952,14836,-558,330,-679,7000,-12000,308000,670523,
3956,3868,14860,-519,454,-751,7000,-12000,308000,670535,
4156,3920,14800,-571,367,-730,7000,-12000,308000,670537,
4020,3872,14868,-548,433,-690,7000,-12000,308000,670539,
3940,3988,14920,-614,344,-633,7000,-12000,307000,670552,
4068,3904,14780,-672,320,-652,7000,-12000,307000,670554,
3976,3836,14908,-600,381,-636,7000,-12000,307000,670557,
3924,3768,14800,-651,386,-617,7000,-12000,307000,670569,
4056,3920,14788,-597,441,-608,7000,-12000,307000,670571,
4004,3964,14784,-630,488,-613,7000,-12000,307000,670573,
4152,4080,15068,-637,515,-682,7000,-12000,307000,670586,
4088,4092,14880,-654,551,-715,7000,-12000,307000,670588,
4020,4040,14848,-685,481,-716,7000,-12000,307000,670590,
4124,3968,15024,-729,612,-777,7000,-12000,307000,670603,
4056,3968,14940,-723,575,-827,7000,-12000,307000,670605,
4008,4068,14872,-732,666,-816,7000,-12000,307000,670607,
3928,4060,15032,-828,481,-862,7000,-12000,307000,670620,
3964,4044,14824,-784,534,-882,7000,-12000,307000,670622,
3964,4004,15024,-842,489,-900,7000,-12000,307000,670624,
4032,4064,14996,-830,289,-902,7000,-12000,307000,670637,
3980,4036,15044,-895,226,-940,7000,-12000,307000,670639,
4136,4164,15032,-813,207,-905,7000,-12000,307000,670641,
4244,4068,15252,-960,203,-1018,7000,-12000,307000,670654,
4188,4012,15176,-924,205,-1016,7000,-12000,307000,670656,
4224,4224,15184,-946,228,-1030,7000,-12000,307000,670658,
4184,4104,15272,-896,403,-1101,7000,-12000,307000,670670,
4208,4064,15324,-981,360,-1097,7000,-12000,307000,670673,
4236,3936,15144,-907,480,-1095,7000,-12000,307000,670675,
4140,4176,15312,-904,664,-1083,7000,-12000,306000,670687,
4112,4072,15380,-837,778,-1116,7000,-12000,306000,670690,
4132,4152,15332,-872,802,-1095,7000,-12000,306000,670692,
3852,4340,15832,-814,827,-1243,7000,-12000,306000,670704,
3880,4336,15784,-886,776,-1234,7000,-12000,306000,670707,
3780,4464,15712,-832,769,-1235,7000,-12000,306000,670709,
3664,4360,15844,-879,533,-1329,7000,-12000,306000,670721,
3620,4408,15896,-827,522,-1337,7000,-12000,306000,670724,
3584,4480,15992,-851,431,-1332,7000,-12000,306000,670726,
3560,4424,15980,-705,222,-1412,7000,-12000,306000,670738,
3616,4512,15964,-694,101,-1389,7000,-12000,306000,670741,
3568,4440,15960,-622,136,-1411,7000,-12000,306000,670743,
3660,4540,16040,-467,-12,-1366,7000,-12000,306000,670755,
3640,4412,16124,-388,-7,-1340,7000,-11000,306000,670758,
3556,4468,16036,-388,53,-1317,7000,-11000,306000,670760,
3520,4780,16212,-279,316,-1264,7000,-11000,306000,670772,
3540,4780,16272,-319,348,-1275,7000,-11000,306000,670774,
3676,4828,16372,-255,424,-1301,7000,-11000,306000,670777,
3252,4884,16128,-273,912,-1251,7000,-11000,305000,670789,
3212,4824,16284,-213,940,-1266,7000,-11000,305000,670791,
3116,4872,16216,-251,1035,-1259,7000,-11000,305000,670794,
2696,4736,16196,-147,1336,-1166,7000,-11000,305000,670806,
2596,4772,16292,-137,1442,-1114,7000,-11000,305000,670808,
2516,4656,16304,-118,1419,-1105,7000,-11000,305000,670811,
2088,4748,16448,91,1543,-849,8000,-11000,305000,670823,
1932,4688,16384,160,1558,-788,8000,-11000,305000,670825,
1984,4636,16416,174,1600,-742,8000,-11000,305000,670827,
1628,4728,16456,402,1634,-540,8000,-11000,305000,670840,
1660,4668,16456,402,1575,-514,8000,-11000,305000,670842,
1472,4724,16528,484,1608,-463,8000,-11000,305000,670845,
1204,4660,16460,719,1466,-182,8000,-10000,305000,670857,
1048,4684,16516,672,1426,-114,8000,-10000,305000,670859,
936,4680,16452,788,1399,-47,8000,-10000,305000,670862,
896,4656,16340,967,1087,436,8000,-10000,305000,670874,
1000,4596,16332,1072,1056,527,8000,-10000,305000,670876,
848,4612,16232,1060,1010,606,8000,-10000,305000,670879,
824,4772,16276,1268,833,1087,8000,-10000,305000,670891,
900,4792,16160,1329,860,1145,8000,-10000,305000,670893,
924,4640,16276,1376,780,1286,8000,-10000,305000,670895,
788,4852,16052,1577,886,1712,8000,-10000,305000,670908,
788,4796,15992,1627,815,1783,8000,-10000,306000,670910,
792,4816,16048,1707,863,1884,8000,-10000,306000,670913,
600,4504,15844,1979,970,2264,9000,-10000,306000,670925,
552,4620,15672,2045,1117,2296,9000,-10000,306000,670927,
504,4632,15724,2043,1150,2395,9000,-10000,306000,670930,
476,4568,15592,2379,1446,2713,9000,-10000,306000,670942,
408,4580,15616,2352,1466,2806,9000,-9000,306000,670944,
440,4564,15368,2433,1510,2892,9000,-9000,306000,670946,
276,4616,15388,2578,1485,3396,9000,-9000,307000,670959,
304,4624,15608,2596,1425,3498,9000,-9000,307000,670961,
260,4668,15272,2626,1399,3613,9000,-9000,307000,670963,
304,4776,15324,2666,1092,4311,10000,-9000,307000,670976,
284,4804,15260,2619,992,4420,10000,-9000,307000,670978,
392,4764,15368,2654,1011,4542,10000,-9000,307000,670980,
556,4808,14888,2595,903,5151,10000,-9000,308000,670993,
624,4764,14976,2647,891,5253,10000,-9000,308000,670995,
636,4808,14816,2611,957,5355,10000,-9000,308000,670997,
720,4768,14800,2601,1092,5860,10000,-9000,309000,671010,
684,4764,14740,2539,1161,5895,10000,-9000,309000,671012,
744,4616,14528,2601,1164,5984,10000,-9000,309000,671014,
732,4604,14304,2515,1489,6336,10000,-9000,309000,671027,
824,4608,14196,2530,1563,6446,10000,-9000,309000,671029,
744,4516,14212,2504,1648,6528,10000,-9000,310000,671031,
964,4596,14096,2364,1876,6957,11000,-9000,310000,671044,
824,4444,14168,2328,1923,7020,11000,-9000,310000,671046,
876,4428,14096,2257,1876,7107,11000,-9000,311000,671048,
476,4324,13948,2214,1490,7605,11000,-9000,311000,671061,
380,4376,14080,2099,1297,7791,11000,-9000,311000,671063,
360,4292,14252,2140,1153,7895,11000,-9000,312000,671065,
632,4372,14316,1909,253,8697,11000,-9000,312000,671078,
552,4400,14196,1889,116,8819,11000,-9000,313000,671080,
752,4344,14192,1834,33,8924,11000,-9000,313000,671082,
1404,4308,14188,1605,-494,9454,11000,-9000,314000,671095,
1468,4328,13884,1548,-536,9516,11000,-9000,314000,671097,
1688,4336,13896,1540,-615,9606,11000,-9000,314000,671099,
2180,4140,13792,1358,-624,9927,11000,-9000,315000,671112,
2180,4232,13736,1378,-649,10054,11000,-9000,315000,671114,
2192,4108,13716,1349,-541,10098,11000,-10000,315000,671116,
2396,3804,13524,1283,-218,10369,11000,-10000,316000,671129,
2660,3772,13500,1263,-33,10310,11000,-10000,316000,671131,
2724,3700,13536,1234,-38,10372,11000,-10000,316000,671133,
2756,3508,13384,1209,262,10477,11000,-10000,317000,671146,
2768,3588,13444,1180,298,10521,11000,-10000,318000,671148,
2824,3516,13440,1165,326,10550,11000,-10000,318000,671150,
2992,3296,13548,1037,388,10718,11000,-10000,319000,671163,
3080,3316,13488,945,427,10746,11000,-10000,319000,671165,
3048,3292,13584,947,375,10744,11000,-10000,319000,671167,
3140,3096,13592,698,232,10906,11000,-10000,320000,671180,
3220,3016,13508,710,254,10990,11000,-11000,320000,671182,
3212,3044,13568,655,184,11058,11000,-11000,321000,671184,
3616,2668,13380,685,-14,11381,10000,-11000,322000,671197,
3576,2648,13172,712,18,11398,10000,-11000,322000,671199,
3460,2632,13236,664,-37,11498,10000,-11000,322000,671201,
4108,2652,13072,701,234,11758,10000,-11000,323000,671214,
4336,2576,13144,727,318,11770,10000,-11000,323000,671216,
4396,2588,13156,694,423,11732,10000,-11000,324000,671218,
4956,2552,13148,588,1011,11530,10000,-11000,325000,671231,
5124,2656,13028,550,1085,11552,10000,-11000,325000,671233,
5064,2612,12836,531,1224,11464,10000,-11000,325000,671235,
5076,2384,12808,321,1649,11307,10000,-11000,326000,671248,
4860,2404,12948,346,1753,11241,10000,-12000,327000,671250,
5028,2360,12812,274,1743,11289,10000,-12000,327000,671252,
5012,2376,12648,-50,1876,11302,9000,-12000,328000,671265,
4980,2244,12728,-53,1964,11265,9000,-12000,328000,671267,
5044,2244,12624,-149,1996,11238,9000,-12000,328000,671269,
4960,2124,12656,-400,1958,11057,9000,-12000,329000,671282,
4852,2072,12664,-459,1858,11060,9000,-12000,330000,671284,
4696,1952,12628,-481,1744,11070,9000,-12000,330000,671286,
4596,3364,16480,-973,341,-702,5000,-15000,318000,674859,
4556,3348,16616,-1003,266,-714,5000,-15000,318000,674861,
4836,3324,16196,-819,179,-702,5000,-15000,318000,674873,
4776,3284,16092,-731,158,-664,5000,-15000,318000,674876,
4736,3256,16160,-680,225,-653,5000,-15000,318000,674878,
4904,3320,16052,-447,284,-634,5000,-15000,317000,674890,
4744,3424,16068,-400,346,-637,5000,-15000,317000,674893,
4900,3344,15944,-372,291,-631,5000,-15000,317000,674895,
4880,3532,15968,-261,438,-656,5000,-15000,317000,674907,
4880,3540,15852,-286,361,-652,5000,-15000,317000,674910,
4800,3608,16008,-234,445,-664,5000,-15000,317000,674912,
4652,3528,15740,-201,368,-708,5000,-15000,317000,674924,
4672,3492,15716,-229,329,-647,5000,-15000,317000,674927,
4544,3460,15844,-203,272,-669,5000,-15000,317000,674929,
4632,3584,15456,-184,183,-590,5000,-15000,317000,674941,
4648,3544,15336,-188,82,-589,5000,-15000,317000,674944,
4820,3544,15600,-162,120,-601,5000,-15000,317000,674946,
4996,3692,15484,-121,-135,-520,6000,-15000,317000,674959,
4952,3712,15420,-104,-178,-508,6000,-15000,317000,674961,
4868,3716,15500,-58,-191,-509,6000,-15000,317000,674963,
4928,3804,15376,82,-283,-483,6000,-15000,317000,674975,
4984,3780,15544,50,-352,-488,6000,-15000,317000,674978,
4988,3836,15476,117,-284,-460,6000,-15000,317000,674980,
5112,3948,15300,177,-321,-513,6000,-15000,317000,674992,
5128,3872,15284,252,-266,-539,6000,-15000,317000,674995,
5152,3908,15292,207,-233,-600,6000,-15000,317000,674997,
5328,3780,15188,362,-27,-601,6000,-15000,317000,675009,
5248,3768,15176,345,-21,-581,6000,-15000,317000,675012,
5184,3800,15212,362,28,-611,6000,-15000,317000,675014,
5140,3864,15172,310,236,-667,6000,-15000,317000,675026,
5256,3876,15044,362,299,-681,6000,-15000,317000,675028,
5220,3872,14936,293,321,-722,6000,-15000,317000,675031,
5212,3944,14848,364,559,-693,6000,-15000,317000,675043,
5208,3932,14812,309,565,-735,6000,-15000,317000,675045,
5148,3916,14748,341,598,-723,6000,-15000,317000,675048,
4752,3936,14972,263,609,-719,6000,-15000,317000,675060,
4748,4092,14800,271,503,-717,6000,-15000,316000,675062,
4760,4056,14812,264,495,-703,6000,-15000,316000,675065,
4804,4188,14712,190,110,-750,6000,-15000,316000,675077,
4832,4112,14592,132,43,-736,6000,-15000,316000,675080,
4864,4012,14744,184,-6,-729,6000,-15000,316000,675082,
4844,4096,14744,100,-267,-686,7000,-15000,316000,675094,
4884,4116,14676,135,-322,-674,7000,-15000,316000,675097,
4856,4176,14536,106,-303,-651,7000,-15000,316000,675099,
5096,4232,14448,52,-274,-638,7000,-15000,316000,675111,
5084,4092,14452,1,-194,-653,7000,-15000,316000,675114,
5156,4172,14472,37,-187,-627,7000,-15000,316000,675116,
5068,4048,14700,-144,139,-660,7000,-15000,316000,675128,
5048,4144,14628,-106,195,-658,7000,-15000,316000,675130,
5032,4064,14532,-180,245,-652,7000,-15000,316000,675133,
4936,4020,14532,-186,435,-633,7000,-15000,316000,675145,
4744,4048,14536,-238,401,-592,7000,-15000,316000,675148,
4860,4036,14536,-180,494,-620,7000,-15000,316000,675150,
4800,3968,14684,-251,546,-542,7000,-15000,316000,675162,
4720,3944,14476,-172,640,-535,7000,-15000,316000,675165,
4652,3916,14740,-213,610,-532,7000,-15000,316000,675167,
4508,3860,14744,-193,526,-457,7000,-15000,316000,675179,
4536,3976,14816,-245,456,-443,7000,-15000,316000,675182,
4468,3924,14916,-240,391,-475,7000,-15000,316000,675184,
4348,4044,14900,-294,77,-393,7000,-15000,316000,675196,
4456,3948,14788,-316,-26,-373,7000,-15000,316000,675198,
4360,3924,15020,-302,10,-372,7000,-15000,316000,675201,
4648,3928,14756,-360,-368,-358,7000,-15000,316000,675213,
4584,3968,14760,-311,-345,-342,7000,-15000,316000,675215,
4568,3912,14752,-397,-477,-360,7000,-15000,316000,675218,
4808,3952,14640,-333,-516,-326,7000,-15000,316000,675230,
4936,3984,14556,-374,-544,-347,7000,-15000,316000,675232,
4972,3956,14596,-342,-553,-366,7000,-15000,316000,675235,
5060,3852,14680,-343,-470,-381,7000,-15000,316000,675247,
5000,3968,14716,-379,-478,-360,7000,-15000,316000,675249,
5096,3912,14612,-306,-411,-375,7000,-15000,315000,675252,
5396,3924,14688,-276,-11,-399,7000,-15000,315000,675264,
5388,3956,14636,-343,-60,-346,7000,-15000,315000,675266,
5368,4040,14756,-273,75,-376,7000,-15000,315000,675269,
5408,4008,14732,-376,436,-421,7000,-15000,315000,675281,
5348,4036,14732,-314,589,-420,7000,-15000,315000,675283,
5376,4004,14756,-378,653,-439,7000,-15000,315000,675286,
5128,4052,14864,-416,924,-477,7000,-15000,315000,675298,
5080,3976,14856,-473,954,-467,7000,-15000,315000,675300,
5144,3980,14904,-501,959,-499,7000,-15000,315000,675303,
4788,3960,15016,-554,852,-477,7000,-15000,315000,675315,
4708,3940,14912,-596,693,-449,7000,-15000,315000,675317,
4520,4020,15068,-550,690,-476,7000,-15000,315000,675319,
4588,3816,14948,-607,259,-464,7000,-15000,315000,675332,
4644,3820,14848,-519,256,-433,7000,-15000,315000,675334,
4628,3820,14812,-590,109,-455,7000,-15000,315000,675336,
4860,3896,14892,-486,-145,-435,7000,-15000,315000,675349,
4836,3968,14840,-508,-286,-448,7000,-15000,315000,675351,
4912,3860,15036,-477,-225,-461,7000,-15000,315000,675353,
4892,3992,14916,-522,-425,-448,7000,-15000,315000,675366,
5008,3944,14920,-466,-315,-417,7000,-15000,315000,675368,
5036,3952,14848,-518,-344,-406,7000,-15000,315000,675370,
5328,4040,14968,-480,62,-523,7000,-15000,315000,675383,
5380,4036,14840,-515,193,-559,7000,-15000,315000,675385,
5292,4044,14804,-548,254,-559,7000,-15000,315000,675387,
5300,3892,14928,-520,812,-692,7000,-15000,315000,675400,
5188,3864,14628,-583,823,-720,7000,-15000,315000,675402,
5072,3992,14628,-529,956,-724,7000,-15000,315000,675404,
4760,3880,14672,-617,1276,-780,7000,-15000,315000,675417,
4764,3884,14808,-574,1374,-766,7000,-15000,315000,675419,
4768,3788,14696,-656,1298,-757,7000,-15000,315000,675421,
4344,3808,14468,-716,1292,-659,7000,-15000,315000,675434,
4244,3836,14552,-778,1188,-617,7000,-15000,315000,675436,
4136,3828,14708,-748,1185,-600,7000,-15000,315000,675438,
3952,3876,14572,-891,693,-448,7000,-15000,315000,675451,
3992,3804,14760,-874,559,-390,7000,-15000,315000,675453,
3996,3860,14788,-943,501,-359,7000,-15000,315000,675456,
4016,3860,14868,-945,149,-241,7000,-15000,315000,675468,
4148,3864,14840,-948,164,-206,7000,-14000,315000,675470,
4192,3848,15020,-931,66,-230,7000,-14000,315000,675472,
4436,3984,14808,-822,60,-132,7000,-14000,315000,675485,
4456,3900,14948,-855,-9,-95,7000,-14000,315000,675487,
4496,3920,14944,-793,75,-106,7000,-14000,315000,675489,
4700,4068,15060,-815,116,-146,7000,-14000,314000,675502,
4724,4076,14988,-761,178,-129,7000,-14000,314000,675504,
4776,4108,15164,-765,204,-165,7000,-14000,314000,675506,
4640,3960,14936,-761,218,-152,7000,-14000,314000,675519,
4716,3932,15136,-800,129,-170,7000,-14000,314000,675521,
4592,3948,15008,-749,211,-163,7000,-14000,314000,675523,
4744,3876,15144,-769,52,-210,7000,-14000,314000,675536,
4640,3860,15076,-693,65,-204,7000,-14000,314000,675538,
4648,3800,14988,-742,15,-219,7000,-14000,314000,675541,
4892,3816,15268,-616,-184,-265,7000,-15000,314000,675553,
4844,3868,15064,-607,-192,-264,7000,-15000,314000,675555,
4832,3880,15272,-538,-258,-281,7000,-15000,314000,675558,
4988,3840,15224,-402,-285,-224,7000,-15000,314000,675570,
5168,3868,15168,-408,-328,-230,7000,-15000,314000,675572,
5240,3980,15004,-364,-248,-289,7000,-15000,314000,675575,
5340,3964,15112,-341,-7,-458,7000,-15000,314000,675587,
5444,3996,15176,-294,85,-457,7000,-15000,314000,675589,
5276,4028,15108,-341,116,-492,7000,-15000,314000,675592,
5396,4084,15020,-244,383,-552,7000,-15000,314000,675604,
5320,4184,15140,-280,386,-574,7000,-15000,314000,675606,
5404,4052,15020,-204,453,-608,7000,-15000,314000,675609,
5204,4140,14964,-219,484,-746,7000,-15000,314000,675621,
5272,4140,14976,-189,471,-759,7000,-15000,314000,675623,
5300,4160,14968,-199,509,-761,7000,-15000,314000,675626,
5296,4292,15128,-182,353,-912,7000,-15000,314000,675638,
5100,4168,15216,-202,338,-949,7000,-15000,314000,675640,
5132,4112,15216,-195,231,-966,7000,-15000,314000,675642,
5104,4192,15244,-220,226,-1109,7000,-14000,314000,675655,
4972,4204,15124,-121,257,-1112,7000,-14000,314000,675657,
5036,4148,15068,-199,277,-1158,7000,-14000,314000,675660,
4848,4124,14956,-55,301,-1288,7000,-14000,314000,675672,
4756,4100,14944,-46,306,-1276,7000,-14000,314000,675674,
4916,4172,14920,-53,248,-1275,7000,-14000,314000,675677,
4860,4212,15176,10,357,-1228,7000,-14000,313000,675689,
4888,4372,15056,-11,336,-1240,7000,-14000,313000,675691,
4884,4424,15048,-7,437,-1218,7000,-14000,313000,675694,
4596,4460,15168,-58,572,-1275,7000,-14000,313000,675706,
4612,4448,15148,16,639,-1307,7000,-14000,313000,675708,
4536,4400,15244,-34,627,-1329,8000,-14000,313000,675711,
4152,4428,15548,82,519,-1187,8000,-14000,313000,675723,
4092,4528,15528,26,355,-1175,8000,-14000,313000,675725,
4060,4632,15444,137,359,-1127,8000,-14000,313000,675728,
4164,4796,15388,142,82,-852,8000,-14000,313000,675740,
4164,4848,15616,215,167,-845,8000,-14000,313000,675742,
4268,4832,15368,182,179,-841,8000,-14000,313000,675745,
4128,4936,15592,462,457,-915,8000,-14000,313000,675757,
3936,4820,15636,454,513,-895,8000,-14000,313000,675759,
3852,4968,15476,535,505,-911,8000,-14000,313000,675762,
3632,5144,15816,719,512,-757,8000,-14000,313000,675774,
3724,5236,15660,757,553,-686,8000,-14000,313000,675776,
3572,5204,15664,768,500,-627,8000,-14000,313000,675779,
3712,5300,15796,916,719,-435,8000,-14000,313000,675791,
3796,5296,15704,925,698,-400,8000,-14000,313000,675793,
3732,5408,15580,937,733,-379,8000,-14000,313000,675796,
3128,5132,15540,1126,857,-66,9000,-14000,313000,675808,
3016,5104,15592,1120,897,-41,9000,-14000,313000,675811,
2968,5172,15576,1189,908,30,9000,-14000,313000,675813,
2816,5248,15220,1403,907,209,9000,-14000,313000,675825,
2740,5188,15264,1463,997,279,9000,-14000,313000,675827,
2696,5176,15252,1443,1000,347,9000,-14000,313000,675830,
2624,5336,14784,1795,1205,587,9000,-13000,313000,675842,
2696,5372,14844,1792,1254,627,9000,-13000,313000,675845,
2748,5372,14744,1904,1255,717,9000,-13000,313000,675847,
2764,5244,14476,2254,1593,1089,9000,-13000,313000,675859,
2656,5372,14556,2352,1669,1180,9000,-13000,313000,675861,
2632,5212,14308,2396,1783,1259,9000,-13000,313000,675864,
2232,5284,14400,2598,2114,1666,10000,-13000,313000,675876,
2100,5256,14492,2617,2274,1712,10000,-13000,313000,675878,
2048,5272,14468,2612,2251,1814,10000,-13000,313000,675880,
1820,5316,14368,2602,2528,2386,10000,-13000,313000,675893,
1828,5300,14448,2510,2459,2480,10000,-13000,313000,675895,
1788,5352,14368,2519,2538,2538,10000,-13000,313000,675897,
1356,5216,14284,2322,2462,3069,10000,-12000,314000,675910,
1280,5268,14272,2328,2480,3127,10000,-12000,314000,675912,
1224,5268,14472,2232,2373,3268,10000,-12000,314000,675914,
1016,5260,14196,2188,1939,3908,11000,-12000,314000,675927,
1008,5120,14088,2112,1805,4081,11000,-12000,314000,675929,
1064,5236,14048,2184,1777,4269,11000,-12000,314000,675931,
1476,5400,13608,2040,1425,4906,11000,-12000,315000,675944,
1496,5368,13576,2108,1490,4942,11000,-12000,315000,675946,
1588,5412,13440,2013,1486,4979,11000,-12000,315000,675948,
1896,5248,13424,2001,1416,5459,11000,-12000,316000,675961,
1928,5252,13364,2084,1437,5568,11000,-12000,316000,675963,
1980,5284,13316,2028,1444,5681,11000,-12000,316000,675965,
2152,5124,13636,1883,1735,6275,11000,-12000,316000,675978,
2276,5136,13492,1819,1909,6346,11000,-12000,317000,675980,
2204,5104,13576,1768,1939,6395,11000,-12000,317000,675982,
2372,5172,13684,1433,2439,6706,11000,-12000,317000,675995,
2384,5132,13684,1323,2472,6780,11000,-12000,318000,675997,
2496,5232,13608,1258,2562,6803,11000,-12000,318000,675999,
2540,5016,13848,843,2551,7233,11000,-12000,318000,676012,
2500,4904,13936,837,2564,7264,11000,-12000,319000,676014,
2568,4912,13940,751,2524,7391,11000,-11000,319000,676016,
2428,4508,13948,592,2203,7735,11000,-11000,319000,676029,
2428,4520,14160,548,2051,7787,11000,-11000,320000,676031,
2356,4468,14016,598,1984,7809,11000,-11000,320000,676033,
2404,4136,13728,570,1410,8145,11000,-11000,320000,676046,
2612,4216,13720,652,1397,8174,11000,-11000,321000,676048,
2692,4052,13744,631,1295,8244,11000,-11000,321000,676050,
2976,3888,13784,880,1105,8480,11000,-11000,322000,676062,
3112,3752,13900,872,1014,8544,11000,-11000,322000,676065,
3064,3672,13704,949,1131,8546,11000,-12000,322000,676067,
3356,3544,13876,888,1364,8597,11000,-12000,323000,676079,
3460,3548,13816,954,1512,8604,11000,-12000,323000,676082,
3536,3472,13880,908,1547,8603,11000,-12000,323000,676084,
4028,3472,13820,761,1968,8754,11000,-12000,324000,676096,
3968,3412,13568,695,2059,8780,11000,-12000,324000,676099,
4000,3516,13792,640,2072,8894,11000,-12000,324000,676101,
4360,3412,13672,336,2515,8936,11000,-12000,325000,676113,
4256,3332,13632,297,2586,8980,11000,-12000,325000,676115,
4408,3360,13512,260,2683,8945,11000,-11000,325000,676118,
4548,3260,13300,16,3100,9005,10000,-11000,326000,676130,
4576,3288,13160,-28,3126,9042,10000,-11000,327000,676132,
4720,3172,13080,-21,3234,8995,10000,-11000,327000,676135,
4600,2940,12996,-98,3159,8868,10000,-11000,328000,676147,
4512,2872,13044,-53,3223,8802,10000,-11000,328000,676149,
4488,2892,13016,-143,3171,8802,10000,-11000,328000,676152,
4236,2564,13020,-278,3320,8532,10000,-11000,329000,676164,
4412,2504,13008,-389,3262,8466,10000,-11000,329000,676166,
4276,2392,13144,-402,3278,8453,10000,-11000,329000,676169,
4368,2516,13008,-888,3087,8382,9000,-11000,330000,676181,
4428,2384,13068,-906,3085,8360,9000,-11000,330000,676183,
4396,2360,13120,-1015,2998,8390,9000,-11000,330000,676186,
4692,2288,12908,-1489,2871,8384,9000,-11000,331000,676198,
4688,2256,12888,-1623,2828,8321,9000,-11000,331000,676200,
4704,2208,12768,-1725,2821,8316,9000,-11000,331000,676203,
4992,2132,12736,-2258,2709,8235,9000,-11000,332000,676215,
4908,2024,12840,-2282,2671,8222,9000,-11000,332000,676217,
5044,2080,12632,-2425,2641,8214,8000,-11000,333000,676219,
5396,1816,12684,-2879,2775,8049,8000,-11000,333000,676232,
5500,1884,12716,-3033,2726,8024,8000,-11000,334000,676234,
5608,1876,12716,-3035,2766,7926,8000,-11000,334000,676236,
5792,1748,13116,-3623,2653,7499,7000,-11000,334000,676249,
5836,1668,13104,-3602,2683,7401,7000,-11000,335000,676251,
5824,1564,13140,-3759,2648,7268,7000,-11000,335000,676253,
5492,1308,13688,-4193,2262,6682,7000,-10000,335000,676266,
5432,1168,13792,-4256,2153,6678,7000,-10000,335000,676268,
5476,1236,13808,-4349,2026,6648,6000,-10000,336000,676270,
5788,1000,13840,-4703,1390,6219,6000,-10000,336000,676282,
5744,884,13688,-4768,1316,6143,6000,-10000,336000,676285,
5928,916,13664,-4798,1300,6061,6000,-10000,336000,676287,
6620,776,13304,-5131,1517,5675,5000,-10000,337000,676299,
6672,696,13484,-5154,1675,5515,5000,-10000,337000,676302,
6844,776,13364,-5254,1709,5399,5000,-10000,337000,676304,
6920,892,13540,-5700,2538,4710,4000,-10000,338000,676316,
7008,820,13472,-5887,2549,4599,4000,-10000,338000,676319,
6952,980,13668,-5926,2804,4462,4000,-10000,338000,676321,
6868,852,13968,-6415,2931,3783,3000,-10000,338000,676333,
6728,788,14092,-6457,2981,3655,3000,-10000,338000,676336,
6648,588,14144,-6555,2922,3547,3000,-10000,338000,676338,
6148,588,14808,-6867,1852,2956,2000,-10000,339000,676350,
6000,544,14872,-6969,1598,2861,2000,-10000,339000,676353,
5944,488,15004,-6996,1286,2765,2000,-10000,339000,676355,
6156,424,15488,-7247,-353,2227,1000,-10000,339000,676367,
6056,460,15608,-7232,-554,2086,1000,-10000,339000,676370,
6264,396,15540,-7325,-877,1972,1000,-10000,339000,676372,
7196,276,15936,-7405,-1438,1338,0,-10000,339000,676384,
7436,232,15948,-7431,-1469,1166,0,-10000,339000,676387,
7492,224,16064,-7474,-1464,980,0,-10000,339000,676389,
8352,204,15984,-7478,-1413,-20,0,-11000,339000,676401,
8676,8,15968,-7416,-1324,-72,0,-11000,339000,676404,
8664,-32,16056,-7313,-1109,-247,0,-11000,339000,676406,
9272,-584,16052,-7073,-183,-997,-1000,-11000,339000,676418,
9348,-580,15972,-7019,68,-1158,-1000,-11000,339000,676421,
9288,-564,15900,-6973,214,-1256,-1000,-11000,339000,676423,
9212,-148,16428,-6774,1274,-2182,-1000,-11000,339000,676435,
9212,-228,16536,-6721,1392,-2332,-2000,-11000,339000,676438,
9168,-248,16620,-6641,1608,-2539,-2000,-11000,339000,676440,
8688,-292,16516,-6502,2236,-3668,-2000,-11000,338000,676453,
8688,-240,16488,-6516,2295,-3874,-2000,-11000,338000,676455,
8740,-120,16360,-6510,2386,-4021,-2000,-11000,338000,676457,
8644,-48,16396,-6297,2856,-4967,-3000,-11000,338000,676470,
8480,-68,16620,-6321,2899,-5132,-3000,-11000,338000,676472,
8480,100,16872,-6335,2984,-5312,-3000,-11000,338000,676474,
7940,-36,17364,-6298,3321,-6577,-4000,-10000,337000,676487,
7840,-152,17676,-6174,3411,-6780,-4000,-10000,337000,676489,
7780,-256,17640,-6230,3395,-6970,-4000,-10000,337000,676491,
7012,-604,17912,-5834,3275,-7838,-4000,-10000,336000,676504,
6944,-680,18176,-5823,3123,-7940,-4000,-10000,336000,676506,
6780,-720,18252,-5651,3110,-8055,-4000,-10000,336000,676509,
6360,-712,18376,-5037,2528,-8511,-5000,-10000,335000,676521,
6344,-720,18408,-4935,2414,-8584,-5000,-10000,335000,676523,
6308,-600,18404,-4798,2273,-8749,-5000,-10000,334000,676526,
6024,-472,19020,-4254,1762,-9139,-5000,-10000,333000,676538,
5876,-392,18872,-4123,1611,-9210,-5000,-10000,333000,676541,
5840,-432,18896,-4116,1460,-9273,-5000,-10000,333000,676543,
5776,-324,19048,-3619,720,-9501,-5000,-10000,332000,676555,
6052,-320,18924,-3456,746,-9526,-5000,-10000,332000,676558,
5832,-228,18752,-3360,584,-9619,-5000,-10000,332000,676560,
5904,-168,18820,-2702,48,-10057,-5000,-10000,331000,676573,
6020,-140,18568,-2650,-56,-10149,-5000,-10000,331000,676575,
5920,-104,18484,-2538,-34,-10182,-5000,-10000,331000,676577,
6108,84,18412,-2118,251,-10639,-5000,-10000,329000,676590,
6172,64,18212,-2020,480,-10676,-5000,-10000,329000,676592,
6288,228,18228,-2024,549,-10802,-5000,-10000,329000,676594,
6240,544,17924,-1766,1350,-11286,-5000,-10000,328000,676607,
6168,468,17804,-1746,1431,-11366,-5000,-10000,328000,676609,
6092,516,17976,-1651,1611,-11439,-5000,-10000,328000,676612,
5568,576,17800,-1551,2270,-11873,-5000,-10000,326000,676624,
5304,520,17692,-1437,2398,-11896,-5000,-10000,326000,676626,
4500,560,17556,-1292,2603,-12124,-5000,-10000,325000,676639,
4476,448,17520,-1160,2638,-12032,-5000,-10000,325000,676641,
4384,464,17364,-1181,2607,-12057,-5000,-10000,324000,676644,
4088,336,17040,-640,2133,-11911,-5000,-10000,323000,676656,
3916,444,17004,-580,1895,-11911,-4000,-10000,323000,676658,
3912,488,16872,-449,1797,-11869,-4000,-10000,323000,676661,
3940,776,16528,-161,938,-11783,-4000,-10000,322000,676673,
4120,928,16528,-78,941,-11751,-4000,-10000,321000,676676,
4220,908,16476,-99,847,-11810,-4000,-10000,321000,676678,
4632,1080,16036,-96,873,-12089,-4000,-10000,320000,676690,
4632,1072,15868,-85,743,-12255,-4000,-10000,320000,676693,
4560,1088,15724,-93,770,-12253,-4000,-10000,320000,676695,
4264,1100,15248,-90,-121,-12617,-3000,-10000,318000,676707,
4176,1204,15204,-84,-363,-12642,-3000,-10000,318000,676710,
3992,1164,15228,-91,-679,-12740,-3000,-10000,318000,676712,
3340,1340,15108,-233,-1875,-12843,-3000,-11000,317000,676724,
3388,1268,15120,-327,-2079,-12892,-3000,-11000,316000,676727,
3384,1340,15228,-374,-2117,-12878,-3000,-11000,316000,676729,
3656,1156,15188,-812,-2597,-13178,-3000,-11000,315000,676742,
3696,1168,14832,-869,-2614,-13186,-3000,-11000,315000,676744,
3768,1080,14924,-910,-2520,-13111,-3000,-11000,315000,676746,
4456,888,14452,-948,-2118,-12793,-3000,-11000,313000,676759,
4648,856,14388,-971,-2084,-12796,-2000,-11000,313000,676761,
4440,796,14452,-916,-1841,-12727,-2000,-12000,313000,676763,
4176,824,14440,-1049,-1059,-12759,-2000,-12000,312000,676776,
4144,888,14456,-1011,-933,-12739,-2000,-12000,311000,676778,
4036,932,14424,-1083,-821,-12724,-2000,-12000,311000,676781,
3652,984,14708,-1303,-465,-12780,-2000,-12000,310000,676793,
3828,920,14712,-1434,-580,-12864,-2000,-12000,310000,676795,
3772,1032,14744,-1404,-582,-12904,-2000,-12000,309000,676798,
3220,844,14492,-1749,-1279,-13081,-2000,-12000,308000,676810,
3276,916,14528,-1811,-1389,-13083,-2000,-12000,308000,676813,
3052,840,14340,-2133,-1697,-13126,-2000,-12000,307000,676825,
3128,704,14176,-2178,-1731,-13158,-2000,-12000,306000,676827,
3292,744,14216,-2231,-1604,-13154,-2000,-12000,306000,676830,
3652,628,14020,-2498,-816,-13229,-2000,-13000,305000,676842,
3708,532,13924,-2492,-499,-13182,-2000,-13000,305000,676845,
3756,500,13736,-2601,-302,-13243,-1000,-13000,304000,676847,
3652,384,13896,-2711,1235,-13125,-1000,-13000,303000,676859,
3456,428,13924,-2822,1427,-13181,-1000,-13000,303000,676862,
3408,324,13792,-2816,1700,-13154,-1000,-12000,302000,676864,
2356,204,13960,-3115,2108,-12921,-1000,-12000,301000,676876,
2184,192,14000,-3093,2133,-12810,-1000,-12000,301000,676879,
1812,92,14064,-3190,2077,-12792,-1000,-12000,301000,676881,
1116,148,14288,-3435,1245,-12543,-1000,-12000,300000,676894,
940,336,14424,-3595,970,-12509,-1000,-12000,299000,676896,
908,276,14284,-3582,770,-12407,-1000,-12000,299000,676898,
920,344,14184,-4031,-564,-11954,-2000,-12000,298000,676911,
1036,352,14088,-4085,-784,-11856,-2000,-12000,298000,676913,
1176,308,14032,-4165,-852,-11785,-2000,-12000,297000,676916,
1868,216,13764,-4549,-964,-11591,-2000,-12000,296000,676928,
1812,180,13736,-4605,-804,-11539,-2000,-12000,296000,676930,
1816,8,13820,-4702,-616,-11559,-2000,-12000,296000,676933,
2200,-88,13564,-5048,502,-11401,-2000,-12000,295000,676945,
2244,-112,13628,-5096,793,-11355,-2000,-12000,295000,676948,
2180,-244,13508,-5235,1042,-11366,-2000,-12000,294000,676950,
1364,-548,13880,-5616,2407,-11113,-2000,-12000,293000,676962,
1244,-576,13932,-5658,2609,-11062,-3000,-12000,293000,676965,
928,-640,14136,-5742,2691,-10981,-3000,-12000,293000,676967,
-12,-764,13968,-5874,2811,-10336,-3000,-12000,292000,676980,
80,-844,14116,-5938,2683,-10273,-3000,-12000,292000,676982,
-800,-860,13944,-5827,1616,-9604,-3000,-11000,291000,676995,
-816,-748,13832,-5853,1340,-9523,-3000,-11000,290000,676997,
-908,-760,13876,-5805,1131,-9315,-4000,-11000,290000,676999,
-628,-640,13748,-5835,-239,-8626,-4000,-11000,289000,677012,
-604,-620,13916,-5829,-321,-8482,-4000,-11000,289000,677014,
-404,-648,13780,-5937,-523,-8388,-4000,-11000,289000,677016,
132,-480,13788,-6214,-689,-7964,-4000,-11000,288000,677029,
392,-564,13604,-6274,-608,-7876,-5000,-11000,288000,677031,
412,-548,13744,-6344,-499,-7816,-5000,-11000,288000,677034,
984,-644,13628,-6741,705,-7497,-5000,-11000,287000,677046,
1144,-708,13644,-6803,1062,-7435,-5000,-11000,287000,677049,
1208,-820,13728,-6878,1377,-7395,-5000,-11000,287000,677051,
1532,-952,13892,-7260,3351,-7140,-6000,-11000,286000,677063,
1340,-1000,13948,-7350,3539,-7160,-6000,-11000,286000,677066,
1304,-1180,14044,-7358,3788,-7101,-6000,-11000,286000,677068,
-304,-1376,14140,-7504,3875,-6768,-7000,-11000,285000,677081,
-524,-1424,14172,-7427,3769,-6659,-7000,-10000,285000,677083,
-724,-1336,14180,-7480,3533,-6534,-7000,-10000,285000,677085,
-1612,-1492,14316,-7428,2227,-5775,-7000,-10000,285000,677098,
-1604,-1472,14464,-7525,1976,-5666,-8000,-10000,284000,677100,
-1568,-1524,14592,-7500,1743,-5539,-8000,-10000,284000,677102,
-1088,-1460,14392,-7688,715,-5217,-8000,-10000,284000,677115,
-840,-1552,14484,-7645,612,-5141,-8000,-10000,284000,677117,
-432,-1672,14488,-7945,375,-4863,-9000,-10000,283000,677130,
-376,-1604,14456,-7913,478,-4778,-9000,-10000,283000,677132,
-108,-1588,14592,-8049,450,-4696,-9000,-10000,283000,677135,
40,-1828,14884,-8369,644,-4309,-10000,-10000,283000,677147,
-52,-1940,14848,-8362,717,-4274,-10000,-10000,283000,677149,
-124,-1924,14928,-8432,593,-4181,-10000,-10000,282000,677152,
-1084,-2252,15376,-8476,-476,-3653,-11000,-10000,282000,677164,
-1328,-2252,15184,-8544,-821,-3567,-11000,-10000,282000,677167,
-1576,-2272,15272,-8469,-1011,-3361,-11000,-10000,282000,677169,
-2772,-2940,16312,-8097,-4309,-2616,-12000,-10000,282000,677181,
-3076,-2888,16004,-8027,-4985,-2480,-12000,-10000,282000,677184,
-3376,-3236,16376,-7751,-7847,-1395,-13000,-11000,282000,677196,
-3060,-3200,16044,-7710,-8102,-1189,-13000,-11000,282000,677198,
-2880,-3412,16120,-7768,-8412,-990,-13000,-11000,282000,677201,
-448,-3192,15692,-7898,-8695,-248,-14000,-12000,282000,677213,
72,-3304,15480,-7977,-8374,-127,-14000,-12000,282000,677215,
644,-3048,15664,-8031,-7958,23,-14000,-12000,282000,677218,
2644,-3212,15496,-8219,-4833,524,-15000,-13000,282000,677230,
2960,-3244,15684,-8321,-4187,551,-15000,-13000,282000,677233,
3044,-3260,15524,-8282,-3405,579,-15000,-13000,282000,677235,
2404,-3604,15580,-8509,137,859,-16000,-13000,282000,677248,
2052,-3700,15840,-8524,650,911,-16000,-13000,282000,677250,
856,-3908,16660,-8644,2157,1406,-17000,-12000,283000,677262,
556,-4068,16644,-8631,2224,1467,-17000,-12000,283000,677265,
324,-4124,16864,-8574,2176,1578,-17000,-12000,283000,677267,
-216,-4372,17052,-8428,1717,2162,-18000,-12000,283000,677280,
-248,-4484,17124,-8284,1585,2266,-18000,-12000,283000,677282,
-400,-4556,17200,-8226,1361,2325,-19000,-12000,283000,677284,
-516,-5364,17292,-7804,572,2711,-19000,-12000,283000,677297,
-504,-5420,17576,-7655,272,2801,-19000,-12000,283000,677299,
-304,-5532,17508,-7447,125,2914,-20000,-11000,283000,677301,
-84,-5500,17688,-7181,-396,3497,-20000,-11000,283000,677314,
-72,-5540,17644,-7077,-381,3598,-20000,-11000,283000,677316,
148,-5692,17448,-7052,-373,3690,-21000,-11000,284000,677319,
728,-5948,17604,-6643,91,4332,-21000,-11000,284000,677331,
708,-5884,17596,-6659,168,4461,-21000,-11000,284000,677333,
928,-5868,17408,-6519,447,4599,-22000,-11000,284000,677336,
1072,-6144,18040,-6189,1308,5355,-22000,-11000,284000,677348,
1164,-6100,17956,-6069,1510,5495,-22000,-11000,285000,677351,
1184,-5996,17928,-6050,1662,5637,-22000,-10000,285000,677353,
1040,-6160,18752,-5500,2045,6231,-23000,-10000,285000,677366,
1120,-6212,18784,-5463,1957,6347,-23000,-10000,285000,677368,
1180,-6300,19040,-5308,1998,6393,-23000,-10000,285000,677370,
1024,-6660,19128,-4594,1516,6709,-24000,-9000,286000,677383,
1036,-6700,19300,-4404,1480,6739,-24000,-9000,286000,677385,
1328,-6876,19320,-3618,769,7048,-24000,-9000,287000,677398,
1392,-6872,19452,-3431,771,7068,-24000,-9000,287000,677400,
1748,-6776,19420,-3343,635,7133,-24000,-9000,287000,677402,
2636,-6608,19532,-2731,424,7217,-25000,-8000,287000,677415,
2744,-6744,19400,-2588,510,7180,-25000,-8000,287000,677417,
2752,-6780,19456,-2456,573,7097,-25000,-8000,288000,677419,
2956,-6836,18976,-1806,1169,7014,-25000,-8000,288000,677432,
2908,-6900,18928,-1752,1319,7034,-25000,-8000,288000,677434,
2976,-6804,18896,-1596,1477,7115,-25000,-8000,288000,677437,
3344,-6712,18748,-1038,2298,7357,-25000,-7000,289000,677449,
3400,-6624,18732,-863,2556,7377,-25000,-7000,289000,677451,
3460,-6624,18764,-831,2714,7317,-25000,-7000,289000,677454,
2796,-6696,19024,-302,3345,7325,-25000,-6000,290000,677466,
2636,-6684,18932,-240,3295,7338,-25000,-6000,290000,677469,
2536,-6756,19016,-137,3271,7387,-25000,-6000,290000,677471,
2064,-6848,19044,347,2491,7646,-25000,-6000,290000,677484,
1972,-6900,19016,510,2376,7633,-25000,-6000,290000,677486,
2032,-6844,18940,537,2170,7715,-25000,-6000,291000,677488,
2412,-6928,18828,1129,1084,7881,-25000,-5000,291000,677500,
2412,-6864,18916,1191,894,7888,-25000,-5000,291000,677503,
2628,-6896,18852,1324,769,7886,-25000,-5000,291000,677505,
3172,-6800,18544,1690,394,7778,-25000,-5000,292000,677518,
3336,-6672,18312,1829,400,7724,-25000,-5000,292000,677520,
3280,-6744,18416,1831,440,7661,-25000,-5000,292000,677522,
3556,-6580,17768,2170,875,7422,-25000,-4000,293000,677534,
3656,-6516,17800,2187,966,7388,-25000,-4000,293000,677537,
3592,-6536,17688,2295,1098,7326,-25000,-4000,293000,677539,
3576,-6488,17124,2529,1771,7136,-25000,-4000,294000,677552,
3528,-6404,17172,2590,1884,7131,-25000,-4000,294000,677554,
3440,-6440,17116,2593,1959,7108,-24000,-3000,294000,677556,
3000,-6236,17276,2750,2232,7090,-24000,-3000,294000,677569,
2840,-6212,17220,2781,2067,7098,-24000,-3000,294000,677571,
2616,-6172,17356,2833,2000,7050,-24000,-3000,295000,677573,
2336,-6136,17232,3122,777,6958,-24000,-3000,295000,677586,
2432,-5980,17144,3217,576,6943,-24000,-3000,295000,677588,
2436,-6032,17152,3192,333,6973,-24000,-2000,295000,677590,
3420,-5652,16736,3487,-541,6795,-23000,-2000,296000,677603,
3480,-5648,16684,3464,-647,6679,-23000,-2000,296000,677605,
3772,-5568,16660,3538,-635,6580,-23000,-2000,296000,677607,
4144,-5220,15876,3546,-387,5960,-23000,-2000,297000,677620,
4240,-5172,15764,3587,-219,5843,-23000,-2000,297000,677622,
4360,-5196,15712,3518,-54,5701,-23000,-2000,297000,677624,
4388,-4832,15088,3472,967,5178,-22000,-2000,297000,677637,
4380,-4780,15088,3391,1128,5053,-22000,-2000,297000,677639,
4396,-4900,14924,3426,1388,4966,-22000,-2000,297000,677642,
3868,-4844,14628,3085,2544,4458,-22000,-1000,298000,677654,
3672,-4736,14496,3121,2646,4356,-22000,-1000,298000,677656,
3572,-4768,14592,3019,2729,4288,-22000,-1000,298000,677659,
2616,-4692,14300,2785,2707,3929,-22000,-1000,298000,677671,
2380,-4724,14200,2673,2635,3919,-22000,-1000,298000,677674,
2324,-4624,14236,2607,2485,3919,-21000,-1000,298000,677676,
2012,-4540,14064,2228,1518,3836,-21000,-1000,298000,677688,
2080,-4444,13892,2116,1261,3851,-21000,-1000,299000,677691,
1992,-4564,13916,2108,1131,3826,-21000,-1000,299000,677693,
2396,-4392,13796,1618,139,3626,-21000,-1000,299000,677706,
2516,-4424,13828,1537,17,3599,-21000,0,299000,677708,
2524,-4336,13636,1501,-62,3501,-21000,0,299000,677710,
2924,-3968,13544,992,-545,3099,-21000,0,299000,677722,
2948,-4072,13428,938,-645,3016,-21000,0,299000,677725,
3128,-4040,13484,841,-653,2911,-21000,0,299000,677727,
3480,-3856,13492,191,-499,2493,-21000,-1000,300000,677739,
3736,-3852,13480,81,-427,2412,-21000,-1000,300000,677742,
3876,-3784,13584,18,-275,2345,-21000,-1000,300000,677744,
3956,-3912,13528,-526,308,1839,-21000,-1000,300000,677756,
3776,-3764,13396,-539,368,1765,-21000,-1000,300000,677759,
3864,-3764,13472,-632,521,1688,-21000,-1000,300000,677761,
3540,-3908,13856,-875,1005,1218,-21000,0,300000,677773,
3444,-3932,13932,-940,1081,1134,-21000,0,300000,677776,
3284,-4004,13832,-954,1103,1067,-21000,0,300000,677778,
2744,-4124,14156,-1119,1242,598,-21000,0,300000,677790,
2556,-4016,14212,-1158,1159,511,-21000,0,300000,677793,
2464,-3876,14188,-1191,1164,441,-21000,0,300000,677795,
2392,-4056,14416,-1257,874,81,-21000,0,300000,677807,
2400,-4044,14412,-1319,797,-3,-21000,0,300000,677810,
2256,-4056,14456,-1307,634,-55,-21000,0,300000,677812,
2156,-4116,14612,-1308,641,-184,-21000,0,300000,677814,
1512,-4220,14608,-1390,194,-487,-21000,0,300000,677827,
1456,-4352,14780,-1373,216,-548,-21000,0,300000,677829,
