Ax,Ay,Az,Gx,Gy,Gz,Roll,Pitch,Yaw,Timestamp,Target
-9492,5732,11036,-561,-130,-63,20000,39000,334000,249478,
-9520,5728,11024,-575,-148,-3,20000,39000,334000,249490,
-9564,5860,11088,-558,-87,8,20000,39000,334000,249493,
-9336,5844,10988,-569,-114,6,20000,39000,334000,249495,
-9432,5792,11228,-543,-13,33,20000,39000,334000,249508,
-9472,5656,11068,-586,-68,9,20000,39000,334000,249510,
-9420,5668,11104,-528,7,51,20000,39000,334000,249512,
-9452,5660,11168,-570,-41,80,20000,39000,334000,249515,
-9168,5788,11108,-519,74,103,20000,39000,334000,249527,
-9276,5824,11140,-579,7,113,20000,39000,334000,249530,
-9236,5824,11052,-528,87,99,20000,39000,334000,249532,
-9220,5832,11156,-596,131,46,20000,39000,334000,249545,
-9208,5900,11128,-505,152,64,20000,39000,334000,249547,
-9220,5752,11064,-594,187,24,20000,39000,334000,249549,
-9152,5828,10980,-586,218,22,20000,39000,334000,249562,
-9152,5760,11020,-652,187,-7,20000,39000,334000,249564,
-9052,5752,11036,-618,204,-9,20000,39000,334000,249567,
-9124,5776,11272,-654,173,-78,20000,39000,334000,249580,
-9156,5836,11064,-656,218,-70,20000,39000,334000,249582,
-9084,5688,11112,-660,203,-57,20000,39000,334000,249584,
-9116,5736,11148,-682,190,-49,20000,39000,334000,249597,
-9044,5860,11052,-632,203,-53,20000,39000,334000,249599,
-9164,5740,11120,-680,199,-51,20000,39000,334000,249602,
-9160,5712,11052,-689,199,-71,20000,39000,334000,249614,
-8896,5744,11020,-642,249,-41,20000,39000,334000,249617,
-9024,5764,10984,-698,231,-47,20000,39000,334000,249619,
-8976,5728,10960,-637,351,-73,20000,39000,334000,249632,
-8944,5692,10920,-686,320,-47,20000,39000,334000,249634,
-8840,5648,10972,-628,382,-43,20000,39000,334000,249636,
-8796,5696,11000,-677,380,-123,20000,39000,334000,249649,
-8788,5700,10968,-617,468,-124,20000,39000,334000,249651,
-8704,5708,10932,-662,471,-136,20000,39000,334000,249654,
-8700,5904,10840,-626,586,-319,20000,39000,334000,249666,
-8636,5708,10640,-692,559,-329,20000,39000,334000,249669,
-8644,5892,10796,-684,610,-349,20000,39000,334000,249671,
-8632,5772,10772,-793,735,-613,19000,39000,334000,249684,
-8516,5852,10836,-779,842,-671,19000,39000,334000,249686,
-8528,5780,11016,-857,823,-705,19000,39000,334000,249689,
-8788,5740,10860,-839,972,-903,19000,39000,334000,249701,
-8680,5720,10720,-907,941,-911,19000,39000,334000,249704,
-8836,5608,10796,-861,1010,-925,19000,39000,334000,249706,
-8944,5752,10792,-920,1074,-1030,19000,40000,334000,249718,
-9068,5648,10788,-970,1000,-1015,19000,40000,334000,249721,
-9004,5712,10768,-915,1027,-1037,19000,40000,334000,249723,
-9272,5724,10864,-966,943,-1034,19000,40000,334000,249736,
-9320,5720,10952,-870,976,-1019,19000,40000,334000,249738,
-9396,5672,10848,-954,910,-1032,19000,40000,334000,249741,
-9460,5768,11048,-910,920,-1021,19000,40000,334000,249753,
-9472,5688,11132,-915,878,-1011,19000,40000,334000,249756,
-9504,5640,11100,-901,926,-998,19000,40000,334000,249758,
-9780,5548,11076,-796,760,-965,19000,40000,334000,249771,
-9844,5620,11096,-771,750,-875,19000,40000,334000,249773,
-9908,5560,10976,-722,725,-869,19000,40000,334000,249776,
-9992,5460,11188,-603,427,-652,19000,40000,334000,249788,
-10188,5524,11120,-535,440,-642,19000,40000,334000,249791,
-10216,5424,11044,-542,345,-593,19000,40000,334000,249793,
-10128,5584,11044,-313,128,-323,19000,40000,334000,249806,
-10120,5600,10860,-344,33,-275,19000,40000,334000,249808,
-10016,5640,11120,-308,38,-251,19000,40000,334000,249810,
-9832,5708,11140,-249,-47,-122,19000,40000,334000,249823,
-9736,5716,11096,-318,-148,-133,19000,40000,334000,249825,
-9804,5736,11004,-218,-102,-128,19000,40000,334000,249828,
-9580,5732,11196,-255,-112,-70,19000,40000,334000,249840,
-9564,5752,11112,-210,-19,-87,19000,40000,334000,249843,
-9656,5792,11100,-261,-27,-57,19000,40000,334000,249845,
-9636,5860,10848,-333,-51,-34,19000,40000,334000,249858,
-9532,5776,10976,-288,41,-55,19000,40000,334000,249860,
-9468,5836,10952,-353,-12,-24,19000,40000,334000,249863,
-9396,5696,10748,-354,135,-56,19000,40000,334000,249875,
-9408,5780,10908,-418,96,-57,19000,40000,334000,249878,
-9336,5652,10936,-375,107,-32,19000,40000,334000,249880,
-9384,5664,10956,-466,169,-54,19000,40000,334000,249893,
-9424,5660,11072,-398,201,-54,19000,40000,334000,249895,
-9392,5728,10912,-473,129,-48,19000,40000,334000,249897,
-9352,5548,10932,-486,185,-96,19000,40000,334000,249910,
-9420,5608,10960,-424,263,-59,19000,40000,334000,249912,
-9404,5560,10908,-481,254,-109,19000,40000,334000,249915,
-9380,5376,10876,-414,202,-128,19000,40000,334000,249927,
-9436,5560,10892,-389,137,-117,19000,40000,334000,249930,
-9340,5332,11000,-359,204,-130,19000,40000,334000,249932,
-9384,5292,10904,-355,-3,-107,19000,40000,334000,249945,
-9412,5480,10880,-300,49,-70,19000,40000,334000,249947,
-9352,5448,10920,-341,-68,-88,19000,40000,334000,249950,
-9276,5300,10924,-243,-56,-118,19000,40000,334000,249962,
-9360,5332,10888,-237,-114,-121,19000,40000,334000,249965,
-9240,5312,10904,-212,-56,-131,19000,40000,334000,249967,
-9300,5340,10812,-165,-176,-131,19000,40000,334000,249979,
-9280,5324,10976,-130,-127,-118,19000,40000,334000,249982,
-9216,5344,10812,-155,-222,-112,19000,40000,334000,249984,
-9252,5280,10688,-48,-254,-88,19000,40000,334000,249997,
-9296,5372,10436,-131,-309,-56,19000,40000,334000,249999,
-9312,5308,10716,-75,-330,-39,19000,40000,334000,250001,
-9260,5476,10744,-182,-405,-19,19000,40000,334000,250014,
-9296,5368,10516,-133,-414,-42,19000,40000,334000,250016,
-9272,5440,10588,-197,-470,-32,19000,40000,334000,250019,
-9040,5500,10628,-210,-458,15,19000,40000,334000,250031,
-9052,5488,10564,-263,-449,1,19000,40000,334000,250034,
-9056,5536,10604,-232,-393,-18,19000,40000,334000,250036,
-8816,5688,10568,-376,-245,-157,19000,40000,334000,250049,
-8808,5700,10684,-313,-174,-214,19000,40000,334000,250051,
-8892,5620,10624,-388,-188,-239,19000,40000,334000,250053,
-8812,5836,10432,-432,176,-431,19000,40000,334000,250066,
-8772,5824,10536,-491,124,-454,19000,40000,334000,250068,
-8856,5892,10432,-433,231,-502,19000,40000,334000,250071,
-9056,5944,10476,-584,252,-656,19000,40000,334000,250083,
-9248,5944,10464,-498,342,-661,19000,40000,334000,250086,
-9264,5916,10516,-566,256,-682,19000,40000,334000,250088,
-9276,5928,10440,-533,271,-726,19000,40000,334000,250101,
-9288,5992,10440,-578,217,-744,19000,40000,334000,250103,
-9472,5960,10528,-537,193,-746,19000,40000,334000,250106,
-9616,5940,10512,-628,3,-687,19000,40000,334000,250118,
-9636,5868,10616,-640,53,-666,19000,40000,334000,250121,
-9648,5832,10628,-632,-82,-664,19000,40000,334000,250123,
-9788,5796,10784,-581,-177,-478,19000,40000,334000,250136,
-9680,5844,10584,-629,-274,-459,19000,40000,334000,250138,
-9700,5848,10628,-574,-269,-413,19000,40000,334000,250140,
-9668,5868,10760,-583,-399,-266,19000,40000,334000,250153,
-9656,5808,10724,-611,-429,-274,19000,40000,334000,250155,
-9568,5824,10660,-572,-420,-236,19000,40000,334000,250158,
-9464,5808,10912,-597,-487,-161,19000,40000,334000,250170,
-9428,5796,10996,-580,-396,-185,19000,40000,334000,250173,
-9400,5888,10948,-609,-454,-176,19000,40000,334000,250175,
-9392,5780,10940,-582,-375,-206,19000,40000,334000,250188,
-9448,5784,11068,-607,-434,-207,19000,40000,334000,250190,
-9436,5668,11032,-586,-389,-248,19000,40000,334000,250193,
-9508,5684,11028,-546,-521,-190,19000,40000,334000,250205,
-9596,5540,11152,-554,-436,-193,19000,40000,334000,250208,
-9460,5640,11104,-564,-539,-191,19000,40000,334000,250210,
-9396,5544,11148,-592,-584,-158,19000,39000,334000,250223,
-9424,5564,11068,-544,-519,-161,19000,39000,334000,250225,
-9428,5508,11144,-610,-598,-146,19000,39000,334000,250228,
-9424,5380,11180,-544,-507,-109,19000,39000,334000,250240,
-9452,5416,11208,-617,-540,-127,19000,39000,334000,250243,
-9320,5416,11344,-565,-465,-120,19000,39000,334000,250245,
-9320,5412,11312,-618,-421,-95,19000,39000,334000,250257,
-9380,5284,11384,-575,-383,-118,19000,39000,334000,250260,
-9216,5324,11272,-638,-420,-129,19000,39000,334000,250262,
-9464,5320,11364,-546,-280,-81,18000,39000,334000,250275,
-9388,5236,11272,-610,-321,-118,18000,39000,334000,250277,
-9372,5264,11416,-538,-286,-93,18000,39000,334000,250280,
-9388,5108,11384,-555,-351,-58,18000,39000,334000,250292,
-9484,4992,11404,-505,-342,-34,18000,39000,334000,250295,
-9356,5064,11400,-503,-305,-11,18000,39000,334000,250297,
-9120,5116,11324,-446,-285,8,18000,39000,334000,250309,
-9204,5176,11276,-493,-285,12,18000,39000,334000,250312,
-9104,5188,11300,-468,-275,12,18000,39000,334000,250314,
-9148,5212,11232,-542,-226,-78,18000,39000,334000,250327,
-9148,5108,11220,-551,-199,-96,18000,39000,334000,250329,
-9056,5124,11220,-527,-147,-136,18000,39000,334000,250331,
-9148,5208,11212,-546,2,-184,18000,39000,334000,250344,
-9092,5240,11340,-590,-32,-213,18000,39000,334000,250346,
-9040,5360,11228,-526,46,-232,18000,39000,334000,250349,
-9112,5344,11264,-591,84,-295,18000,39000,334000,250361,
-9116,5284,11288,-579,154,-321,18000,39000,334000,250364,
-9088,5200,11140,-636,107,-302,18000,39000,334000,250366,
-9192,5176,11252,-561,199,-331,18000,39000,334000,250379,
-9392,5148,11100,-589,151,-328,18000,39000,334000,250381,
-9288,5200,11120,-549,170,-319,18000,39000,334000,250384,
-9284,5120,11032,-502,102,-268,18000,39000,334000,250396,
-9300,5104,10972,-516,152,-256,18000,39000,334000,250399,
-9300,5112,10948,-493,74,-258,18000,39000,334000,250401,
-9276,5104,10776,-419,42,-214,18000,39000,334000,250413,
-9152,5056,10880,-476,-15,-187,18000,39000,334000,250416,
-9284,5136,10788,-420,41,-205,18000,39000,334000,250418,
-9020,5316,10748,-456,-32,-227,18000,39000,334000,250431,
-9052,5356,10520,-466,19,-259,18000,39000,334000,250433,
-8968,5384,10604,-476,-10,-255,18000,39000,334000,250435,
-8960,5304,10608,-589,80,-384,18000,39000,334000,250448,
-9176,5328,10480,-575,40,-385,18000,39000,334000,250450,
-8968,5376,10284,-588,84,-420,18000,39000,334000,250453,
-9040,5556,10476,-708,78,-463,18000,39000,334000,250465,
-9132,5600,10412,-726,107,-484,18000,39000,334000,250468,
-9204,5608,10516,-768,95,-472,18000,39000,334000,250470,
-9164,5736,10548,-961,86,-533,18000,39000,334000,250483,
-9264,5708,10464,-923,150,-524,18000,39000,334000,250485,
-9276,5800,10536,-993,102,-515,18000,39000,334000,250487,
-9388,5880,10600,-1129,209,-496,18000,39000,334000,250500,
-9372,5848,10552,-1149,279,-509,18000,39000,334000,250503,
-9500,5880,10624,-1153,265,-519,18000,39000,334000,250505,
-9528,5856,10836,-1290,438,-552,18000,39000,334000,250518,
-9484,5836,10896,-1301,446,-554,18000,39000,334000,250520,
-9552,5892,11004,-1327,531,-557,18000,39000,334000,250522,
-9692,5932,10920,-1358,592,-547,18000,39000,334000,250535,
-9684,5768,11080,-1389,639,-534,18000,39000,334000,250537,
-9708,5848,11116,-1397,615,-564,18000,39000,334000,250539,
-10040,5632,11236,-1353,567,-441,18000,39000,334000,250552,
-10028,5612,11268,-1347,447,-408,18000,39000,334000,250554,
-10036,5776,11124,-1299,467,-381,18000,39000,334000,250557,
-10212,5884,11272,-1314,142,-124,17000,39000,334000,250569,
-10176,5768,11272,-1264,140,-58,17000,39000,334000,250571,
-10188,5744,11432,-1276,82,-40,17000,39000,334000,250574,
-9860,5772,11300,-1279,-12,188,17000,39000,334000,250586,
-9848,5700,11276,-1339,-39,225,17000,39000,334000,250589,
-9788,5656,11420,-1274,16,265,17000,39000,334000,250591,
-9688,5588,11484,-1271,0,412,17000,39000,334000,250603,
-9592,5500,11408,-1222,80,455,17000,39000,334000,250606,
-9740,5476,11436,-1230,60,482,17000,39000,334000,250608,
-9548,5376,11448,-1150,93,603,17000,39000,334000,250621,
-9460,5460,11504,-1185,71,600,17000,39000,334000,250623,
-9564,5444,11468,-1166,94,638,17000,39000,334000,250626,
-9380,5404,11424,-1124,-30,721,17000,39000,334000,250638,
-9272,5332,11460,-1086,-50,718,17000,39000,334000,250641,
-9196,5356,11512,-1093,-76,733,17000,39000,334000,250643,
-9144,5376,11560,-1069,-106,717,17000,39000,334000,250656,
-9212,5388,11548,-1038,-128,712,17000,39000,335000,250658,
-9124,5368,11564,-1060,-168,680,17000,39000,335000,250661,
-8976,5300,11532,-1009,-104,606,17000,39000,335000,250673,
-8844,5276,11536,-978,-95,582,17000,39000,335000,250676,
-8784,5296,11724,-979,-55,541,17000,39000,335000,250678,
-8796,5208,11580,-921,51,428,17000,39000,335000,250690,
-8940,5132,11672,-920,79,400,17000,39000,335000,250693,
-8788,5132,11704,-896,80,390,17000,39000,335000,250695,
-8812,5144,11600,-805,156,267,17000,39000,335000,250708,
-8880,5040,11620,-772,192,328,17000,39000,335000,250710,
-8804,5124,11604,-766,166,258,17000,39000,335000,250713,
-8936,5080,11636,-640,188,183,17000,39000,335000,250725,
-8840,5080,11548,-668,159,127,17000,39000,335000,250728,
-8856,5072,11696,-606,150,134,17000,39000,335000,250730,
-8844,5108,11620,-557,122,35,17000,39000,335000,250743,
-8972,5104,11564,-496,105,18,17000,39000,335000,250745,
-8760,5012,11620,-490,110,6,17000,39000,335000,250747,
-8792,5028,11532,-352,121,-64,17000,39000,335000,250760,
-8828,5124,11500,-380,105,-128,17000,39000,335000,250762,
-8808,5092,11432,-305,85,-89,17000,39000,335000,250765,
-8924,5008,11372,-295,25,-203,17000,39000,335000,250777,
-9020,5052,11388,-237,66,-169,17000,39000,335000,250780,
-8932,5104,11440,-263,-33,-164,17000,39000,335000,250782,
-9108,5112,11388,-100,-151,-175,17000,39000,335000,250795,
-9080,5192,11360,-158,-208,-188,17000,39000,335000,250797,
-9136,5288,11372,-94,-230,-173,17000,39000,335000,250800,
-9076,5368,11332,-90,-316,-161,17000,39000,335000,250812,
-9028,5444,11368,-29,-293,-148,17000,39000,335000,250815,
-9052,5504,11272,-75,-311,-155,17000,39000,335000,250817,
-8872,5620,11196,-154,-144,-281,17000,39000,335000,250830,
-8816,5524,11268,-76,-85,-306,17000,39000,335000,250832,
-8836,5556,11360,-141,-75,-327,17000,39000,335000,250834,
-8952,5368,11304,-145,214,-403,17000,39000,335000,250847,
-8996,5492,11416,-119,245,-419,17000,39000,335000,250849,
-9060,5504,11252,-126,349,-425,17000,39000,335000,250852,
-9240,5592,11308,-124,443,-512,17000,39000,335000,250865,
-9304,5692,11396,-162,468,-511,17000,39000,335000,250867,
-9408,5696,11276,-167,379,-481,17000,39000,335000,250869,
-9552,5656,11464,-231,362,-452,17000,39000,335000,250882,
-9620,5548,11280,-196,307,-446,17000,39000,335000,250884,
-9624,5660,11452,-196,313,-418,17000,39000,335000,250886,
-9688,5476,11380,-187,135,-314,17000,39000,335000,250899,
-9592,5504,11304,-141,163,-250,17000,39000,335000,250901,
-9800,5588,11416,-183,119,-227,17000,39000,335000,250904,
-9516,5660,11388,-134,161,-75,17000,39000,335000,250916,
-9396,5656,11348,-154,86,-47,17000,39000,335000,250919,
-9404,5628,11384,-146,187,-23,17000,39000,335000,250921,
-9352,5652,11356,-178,273,52,17000,39000,335000,250934,
-9392,5684,11432,-218,314,-13,17000,39000,335000,250936,
-9300,5696,11392,-198,361,45,17000,39000,335000,250938,
-9180,5684,11504,-202,571,62,18000,39000,335000,250951,
-9240,5664,11444,-249,618,23,18000,39000,335000,250953,
-9316,5628,11492,-231,656,17,18000,39000,335000,250956,
-9252,5676,11608,-311,815,-86,18000,39000,335000,250968,
-9360,5772,11668,-276,826,-63,18000,39000,335000,250971,
-9412,5772,11552,-321,827,-74,18000,39000,335000,250973,
-9552,5688,11552,-249,801,26,18000,39000,335000,250986,
-9648,5612,11692,-300,759,50,18000,39000,335000,250988,
-9692,5700,11552,-243,809,63,18000,39000,335000,250990,
-9520,5548,11556,-271,698,193,18000,39000,335000,251003,
-9476,5408,11500,-205,759,150,18000,39000,335000,251006,
-9436,5496,11672,-236,710,181,18000,39000,335000,251008,
-9492,5416,11640,-141,770,348,18000,39000,336000,251021,
-9468,5428,11564,-168,744,375,18000,39000,336000,251023,
-9368,5464,11636,-90,828,402,18000,39000,336000,251025,
-9252,5548,11460,-69,953,423,18000,39000,336000,251038,
-9092,5444,11424,-82,988,440,18000,39000,336000,251040,
-9132,5512,11532,-58,1018,424,18000,39000,336000,251043,
-9052,5380,11268,-33,1135,343,18000,39000,336000,251055,
-9120,5372,11124,12,1143,370,18000,39000,336000,251058,
-9120,5356,11164,6,1182,345,18000,39000,336000,251060,
-9296,5612,11172,48,1056,317,18000,39000,336000,251073,
-9420,5656,11144,105,1063,324,18000,39000,336000,251075,
-9444,5696,11100,64,976,274,18000,39000,336000,251078,
-9420,5780,11236,112,841,324,18000,40000,336000,251090,
-9408,5900,11148,125,781,334,18000,40000,336000,251093,
-9556,5996,11164,133,793,330,18000,40000,336000,251095,
-9612,6416,11084,113,808,395,19000,40000,336000,251108,
-9704,6408,11012,86,792,424,19000,40000,336000,251110,
-9724,6404,11152,114,784,401,19000,40000,336000,251112,
-9724,6496,10980,30,801,450,19000,40000,336000,251115,
-10056,7004,11236,58,873,553,19000,40000,337000,251128,
-10016,7040,11288,19,846,602,19000,40000,337000,251130,
-10128,7108,11148,49,887,628,19000,40000,337000,251132,
-10360,7624,11072,-284,706,799,19000,40000,337000,251145,
-10332,7724,11288,-314,744,863,19000,40000,337000,251147,
-10352,7872,11304,-308,787,883,19000,40000,337000,251150,
-10268,7908,11380,-622,851,1050,19000,40000,337000,251162,
-10156,8132,11520,-672,882,1123,19000,40000,337000,251165,
-10248,8032,11540,-731,990,1129,19000,40000,337000,251167,
-10148,8344,11964,-1024,1310,1229,19000,40000,338000,251180,
-10108,8376,11936,-1067,1410,1246,19000,40000,338000,251182,
-10252,8368,11960,-1088,1440,1273,19000,40000,338000,251185,
-10548,8656,12508,-1329,1804,1538,20000,40000,338000,251197,
-10404,8768,12476,-1352,1822,1612,20000,40000,338000,251199,
-10492,8800,12624,-1403,1877,1637,20000,40000,338000,251202,
-10608,9340,12900,-1717,2080,2004,20000,40000,338000,251214,
-10560,9336,13112,-1766,2170,2053,20000,40000,339000,251217,
-10636,9324,13108,-1852,2122,2114,20000,40000,339000,251219,
-10220,9004,13668,-2154,2539,2463,20000,40000,339000,251232,
-10196,8888,13872,-2184,2622,2474,20000,40000,339000,251234,
-10156,8840,13968,-2154,2766,2551,20000,40000,339000,251237,
-10200,7992,14388,-2011,2741,2791,20000,40000,340000,251249,
-10140,7916,14556,-1929,2741,2904,20000,40000,340000,251252,
-10100,7676,14736,-1897,2648,3041,20000,40000,340000,251254,
-9120,7048,15104,-1352,2871,3469,21000,40000,341000,251267,
-9152,7032,14968,-1247,2863,3481,21000,40000,341000,251269,
-8968,6948,15144,-1117,2834,3443,21000,40000,341000,251272,
-8980,6528,15108,-470,2546,3517,21000,40000,341000,251284,
-8808,6464,15340,-341,2396,3535,21000,40000,341000,251287,
-8828,6376,15240,-181,2278,3599,21000,40000,341000,251289,
-8368,5668,15164,659,1303,3652,21000,40000,342000,251302,
-8204,5504,15296,857,1095,3643,22000,40000,342000,251304,
-8196,5556,15272,1021,865,3608,22000,40000,342000,251306,
-7440,5232,15196,2021,-131,3408,22000,40000,343000,251319,
-7324,5172,15200,2221,-414,3346,22000,40000,343000,251321,
-7236,5204,15184,2380,-539,3269,22000,40000,343000,251324,
-6688,4872,14976,3281,-1553,2891,23000,40000,343000,251336,
-6460,4664,15028,3476,-1646,2826,23000,40000,343000,251339,
-6272,4820,14856,3669,-1840,2748,23000,39000,343000,251341,
-5568,4956,14400,4549,-2172,2238,23000,39000,343000,251354,
-5348,4888,14256,4719,-2294,2154,23000,39000,343000,251356,
-5228,4880,14064,4865,-2195,1988,24000,39000,343000,251359,
-4576,4868,13588,5429,-2204,1169,24000,39000,343000,251371,
-4468,4832,13464,5519,-2094,934,24000,38000,343000,251374,
-4460,4880,13452,5643,-2127,774,24000,38000,343000,251376,
-4428,4768,13284,6296,-1798,-190,25000,38000,343000,251389,
-4456,4724,13312,6413,-1824,-317,25000,38000,343000,251391,
-4520,4796,13012,6548,-1703,-496,25000,38000,343000,251394,
-4780,4712,12612,7081,-1699,-1273,25000,38000,343000,251406,
-4736,4828,12504,7230,-1605,-1435,26000,38000,343000,251409,
-4860,4560,12484,7278,-1707,-1550,26000,38000,343000,251411,
-4900,4964,11716,7883,-1556,-2277,26000,38000,342000,251424,
-4852,5020,11428,7980,-1592,-2441,26000,38000,342000,251426,
-4820,4940,11404,8000,-1506,-2606,26000,38000,342000,251429,
-4936,4676,10936,8399,-1612,-3504,27000,37000,342000,251441,
-5024,4536,10856,8474,-1669,-3658,27000,37000,341000,251444,
-5164,4564,10716,8654,-1655,-3747,27000,37000,341000,251446,
-5316,4784,10020,8908,-1644,-4324,28000,37000,341000,251459,
-5340,4932,10056,9017,-1659,-4445,28000,37000,341000,251461,
-5304,4864,9796,9011,-1670,-4583,28000,37000,341000,251463,
-5452,4912,9496,9296,-1696,-5474,28000,37000,340000,251476,
-5428,4908,9264,9259,-1791,-5609,28000,37000,340000,251478,
-5720,4712,9320,9381,-1735,-5745,28000,37000,340000,251481,
-6136,4488,9016,9581,-1939,-6384,29000,38000,339000,251493,
-6080,4516,8936,9705,-1994,-6504,29000,38000,339000,251496,
-6272,4416,8836,9719,-2122,-6601,29000,38000,339000,251498,
-6768,4520,8076,9995,-2612,-7072,29000,38000,338000,251511,
-6844,4568,7908,10054,-2764,-7107,29000,38000,337000,251513,
-6956,4720,7624,10050,-2825,-7161,29000,38000,337000,251515,
-7184,5008,7064,10008,-3588,-7573,30000,38000,336000,251528,
-7188,5120,6840,9973,-3815,-7692,30000,38000,336000,251530,
-7164,5104,6760,9910,-3893,-7697,30000,38000,336000,251533,
-7048,5120,6412,9697,-4370,-8188,30000,38000,335000,251545,
-6996,5020,6400,9589,-4355,-8286,30000,38000,335000,251548,
-6976,5032,6300,9609,-4430,-8400,30000,38000,334000,251550,
-6924,5132,6348,9236,-4427,-9048,31000,38000,333000,251563,
-7052,5008,6300,9200,-4263,-9143,31000,38000,333000,251565,
-7028,5016,6116,9119,-4324,-9297,31000,38000,333000,251568,
-7312,5220,5936,8859,-3793,-9822,31000,38000,331000,251580,
-7372,5144,5892,8731,-3754,-9959,31000,38000,331000,251582,
-7476,5184,5900,8722,-3653,-10055,31000,38000,331000,251585,
-7844,5096,5752,8314,-3326,-10564,31000,39000,330000,251597,
-7872,5012,5616,8164,-3196,-10630,31000,39000,329000,251600,
-8000,5084,5464,8102,-3219,-10733,31000,39000,329000,251602,
-8252,4564,5584,7626,-2951,-11104,31000,39000,328000,251615,
-8304,4660,5416,7641,-2908,-11158,31000,39000,328000,251617,
-8396,4448,5288,7489,-2881,-11189,31000,39000,327000,251620,
-8828,4160,4928,7243,-2930,-11389,30000,40000,326000,251632,
-9004,4264,4912,7122,-2940,-11399,30000,40000,326000,251635,
-9132,4160,4952,7146,-2968,-11456,30000,40000,325000,251637,
-9352,4324,4840,6673,-3076,-11718,30000,40000,324000,251650,
-9404,4220,4960,6637,-3029,-11736,30000,40000,324000,251652,
-9488,4196,4692,6494,-3082,-11826,30000,40000,323000,251655,
-9584,3860,4744,6036,-3327,-11992,30000,41000,322000,251667,
-9616,3712,4600,5875,-3407,-12000,29000,41000,322000,251670,
-9532,3584,4520,5829,-3434,-11997,29000,41000,321000,251672,
-9776,3328,4328,5189,-3784,-12136,29000,41000,320000,251685,
-9836,3264,4304,5169,-3886,-12126,29000,41000,319000,251687,
-9796,3220,4132,4980,-3965,-12146,29000,42000,319000,251689,
-10200,2728,4048,4598,-4401,-12043,28000,42000,317000,251702,
-10352,2776,4176,4467,-4483,-11970,28000,42000,317000,251705,
-10408,2636,4064,4402,-4704,-11964,28000,42000,317000,251707,
-10544,2320,4292,3835,-5365,-11843,27000,42000,315000,251719,
-10504,2480,4264,3789,-5482,-11799,27000,42000,315000,251722,
-10520,2392,4212,3672,-5628,-11761,27000,42000,314000,251724,
-10236,2872,3980,3088,-5965,-11585,26000,42000,313000,251737,
-10224,2848,4096,2921,-6081,-11611,26000,42000,312000,251739,
-10196,2772,3968,2769,-6062,-11585,25000,42000,312000,251742,
-10116,2264,3860,1863,-6665,-11469,25000,42000,310000,251754,
-9976,2168,3676,1733,-6784,-11377,24000,42000,310000,251757,
-10136,2040,3692,1646,-6911,-11292,24000,42000,310000,251759,
-10360,2356,3636,925,-7499,-10817,23000,42000,308000,251772,
-10556,2360,3552,770,-7862,-10796,23000,42000,308000,251774,
-10440,2616,3416,479,-7991,-10803,23000,42000,307000,251776,
-10772,2288,4080,-291,-8226,-10918,22000,42000,306000,251789,
-10828,2216,4304,-504,-8152,-10876,21000,42000,305000,251791,
-10964,2344,4372,-673,-8230,-10934,21000,42000,305000,251794,
-11248,2264,4356,-1729,-8412,-10645,20000,42000,303000,251806,
-11280,2256,4308,-1912,-8538,-10554,20000,42000,303000,251809,
-10880,1708,4308,-2937,-9010,-10072,18000,41000,301000,251821,
-10660,1824,4184,-3080,-9145,-9990,18000,41000,301000,251824,
-10648,1700,4200,-3246,-9185,-9895,18000,41000,301000,251826,
-10156,1636,4416,-4250,-9618,-9479,16000,41000,299000,251839,
-10044,1488,4780,-4444,-9582,-9435,16000,41000,299000,251841,
-10120,1536,5088,-4571,-9554,-9448,16000,41000,299000,251844,
-9904,1684,6652,-5537,-8674,-9567,14000,40000,297000,251856,
-9964,1712,6880,-5698,-8384,-9581,14000,40000,297000,251858,
-9920,1692,7296,-5892,-8121,-9600,14000,40000,297000,251861,
-10312,1356,8368,-6820,-6578,-9738,12000,40000,295000,251873,
-10480,1272,8236,-6973,-6287,-9700,12000,40000,295000,251876,
-10796,1164,8252,-7134,-6250,-9755,11000,40000,295000,251878,
-12616,844,7604,-7762,-6498,-9865,10000,39000,293000,251891,
-12940,684,7404,-7993,-6859,-9717,10000,39000,293000,251893,
-13416,616,7204,-8201,-7052,-9544,9000,39000,293000,251895,
-14812,240,7120,-9234,-9263,-8428,8000,38000,292000,251908,
-14980,212,7364,-9348,-9705,-8179,7000,38000,291000,251910,
-15064,116,7404,-9517,-10206,-7981,7000,38000,291000,251913,
-15008,140,9076,-10282,-11872,-7129,5000,37000,290000,251925,
-15012,156,9136,-10479,-12007,-6984,5000,37000,290000,251928,
-15048,256,9608,-10634,-12133,-6822,5000,37000,290000,251930,
-14548,192,10696,-11789,-12074,-5986,3000,36000,289000,251943,
-14324,112,11020,-11994,-11917,-5850,3000,36000,289000,251945,
-14192,124,11000,-12225,-11794,-5646,2000,35000,289000,251948,
-13548,-640,11696,-13253,-10212,-4653,1000,35000,288000,251960,
-13480,-832,11776,-13495,-9936,-4447,0,34000,288000,251963,
-13476,-1616,11836,-14480,-7459,-3514,0,34000,287000,251975,
-13808,-1744,11800,-14939,-6942,-3326,-1000,34000,287000,251978,
-14196,-2092,12436,-14983,-6610,-3132,-1000,34000,287000,251980,
-15424,-2712,12860,-15161,-5827,-1836,-3000,33000,287000,251993,
-15684,-2780,13016,-15353,-5792,-1528,-3000,33000,287000,251995,
-15908,-2868,13092,-15405,-5593,-1233,-3000,33000,287000,251998,
-16420,-3104,13836,-16064,-5238,470,-5000,33000,287000,252010,
-16444,-3124,13856,-16085,-5137,781,-5000,32000,287000,252013,
-16488,-3224,13948,-16260,-5175,1092,-5000,32000,287000,252015,
-15812,-3416,14464,-16854,-4949,2505,-7000,32000,287000,252028,
-15804,-3484,14620,-17008,-5004,2706,-7000,32000,288000,252030,
-15492,-3912,15468,-17492,-4613,3806,-9000,32000,288000,252043,
-15380,-3916,15732,-17626,-4503,4006,-9000,32000,288000,252045,
-15344,-4136,16016,-17672,-4397,4183,-9000,32000,288000,252048,
-15436,-4644,16624,-17882,-4252,5483,-11000,31000,289000,252060,
-15364,-4756,16708,-17829,-4180,5731,-11000,31000,289000,252063,
-15424,-4800,16840,-17891,-4208,6052,-11000,31000,289000,252065,
-14932,-5168,16840,-17732,-4239,7496,-12000,31000,290000,252078,
-14892,-5220,16968,-17649,-4255,7759,-13000,31000,290000,252080,
-14172,-5152,17572,-17501,-4168,9025,-14000,31000,291000,252093,
-14148,-5264,17668,-17368,-4000,9184,-14000,31000,292000,252095,
-13840,-5336,17888,-17419,-4021,9445,-14000,31000,292000,252097,
-13120,-5600,18328,-16915,-3507,10416,-15000,31000,293000,252110,
-13192,-5480,18340,-16855,-3503,10627,-15000,31000,293000,252112,
-13036,-5524,18420,-16627,-3277,10811,-15000,31000,294000,252115,
-12448,-5464,18812,-16269,-2676,12028,-16000,31000,295000,252128,
-12352,-5436,18808,-16026,-2462,12022,-16000,31000,295000,252130,
-11776,-5024,18920,-15407,-1546,13038,-17000,31000,297000,252143,
-11704,-5044,19004,-15287,-1294,13212,-17000,31000,297000,252145,
-11572,-4908,19052,-15233,-1110,13456,-17000,31000,297000,252147,
-11472,-4760,19460,-14709,-83,14102,-18000,32000,299000,252160,
-11588,-4732,19468,-14582,64,14226,-18000,32000,299000,252163,
-11568,-4672,19620,-14490,216,14357,-18000,32000,299000,252165,
-11664,-4608,19736,-13820,536,15159,-19000,32000,301000,252178,
-11616,-4592,19632,-13772,528,15302,-19000,32000,301000,252180,
-11528,-4572,19692,-12993,537,15874,-19000,33000,303000,252193,
-11500,-4556,19888,-12877,449,16017,-19000,33000,303000,252195,
-11440,-4484,19712,-12685,447,16057,-19000,33000,304000,252197,
-11164,-4168,19772,-11951,197,16584,-19000,34000,306000,252210,
-11220,-4136,19884,-11840,159,16671,-19000,34000,306000,252212,
-11088,-4172,19916,-11630,139,16703,-19000,34000,306000,252215,
-10520,-3976,20008,-10943,-17,17073,-19000,34000,308000,252228,
-10464,-4032,20096,-10705,85,17078,-19000,34000,309000,252230,
-10164,-4012,20160,-10627,38,17134,-19000,35000,309000,252232,
-9564,-3924,20188,-9797,456,17273,-19000,35000,311000,252245,
-9268,-3928,20384,-9557,604,17238,-19000,35000,311000,252247,
-8864,-3928,20432,-8696,975,17217,-19000,36000,313000,252260,
-8772,-4040,20444,-8467,1075,17123,-18000,36000,314000,252263,
-8592,-4056,20600,-8351,1076,17192,-18000,36000,314000,252265,
-8288,-3928,20696,-7348,1385,16980,-18000,37000,316000,252278,
-8152,-3872,20728,-7201,1345,16947,-18000,37000,316000,252280,
-8176,-3840,20600,-7026,1410,16817,-18000,37000,317000,252282,
-7560,-3968,20784,-6133,1473,16448,-17000,37000,319000,252295,
-7600,-4012,20708,-6010,1521,16287,-17000,37000,319000,252297,
-7436,-4088,20704,-5804,1492,16189,-17000,37000,319000,252300,
-7260,-4224,20632,-4644,1336,15518,-16000,38000,321000,252312,
-7216,-4244,20776,-4409,1189,15463,-16000,38000,321000,252315,
-7256,-4148,20620,-4169,1171,15297,-16000,38000,322000,252317,
-6588,-3960,20348,-3040,624,14806,-15000,38000,323000,252330,
-6560,-4072,20452,-2811,682,14578,-15000,38000,324000,252332,
-5892,-3872,20084,-1702,662,14018,-14000,39000,326000,252345,
-5772,-3908,20020,-1442,819,13814,-14000,39000,326000,252348,
-5628,-3724,20044,-1311,829,13741,-14000,39000,326000,252350,
-5196,-3612,20036,-214,1593,12999,-13000,39000,328000,252363,
-5236,-3672,19916,-56,1611,12639,-12000,39000,328000,252365,
-5152,-3608,19944,201,1792,12666,-12000,39000,328000,252367,
-5124,-3320,19568,1139,2217,12077,-11000,39000,330000,252380,
-5136,-3376,19532,1392,2361,11849,-11000,40000,330000,252383,
-5192,-3216,19400,1527,2385,11759,-11000,40000,330000,252385,
-5088,-3020,19096,2539,2568,10992,-10000,40000,332000,252397,
-5236,-3000,18972,2684,2523,10820,-10000,40000,332000,252400,
-5208,-3084,18820,2935,2515,10705,-9000,40000,332000,252402,
-5284,-2732,18448,3965,2430,9992,-8000,40000,333000,252415,
-5336,-2660,18332,4132,2367,9832,-8000,40000,333000,252417,
-5384,-2616,18432,4383,2349,9714,-8000,40000,334000,252419,
-5444,-2196,17724,5281,2124,8975,-6000,40000,335000,252432,
-5328,-2188,17740,5538,2028,8869,-6000,41000,335000,252434,
-5344,-2132,17596,5655,2004,8706,-6000,41000,335000,252437,
-5080,-1968,16980,6562,1818,7992,-5000,41000,336000,252450,
-5000,-1828,16888,6795,1833,7837,-4000,41000,336000,252452,
-4980,-1836,16840,6909,1776,7715,-4000,41000,337000,252454,
-4980,-1460,15980,7762,1948,6976,-3000,41000,337000,252467,
-4876,-1588,15848,7870,1896,6844,-3000,41000,338000,252469,
-4932,-1396,15856,8065,1980,6694,-2000,41000,338000,252472,
-5156,-992,15124,8752,2139,5989,-1000,41000,339000,252485,
-5192,-912,15120,8819,2126,5864,-1000,41000,339000,252487,
-5156,-740,14924,8937,2074,5710,0,41000,339000,252489,
-5440,-268,14260,9538,1746,4950,0,41000,339000,252502,
-5604,-180,14060,9693,1601,4844,0,41000,340000,252504,
-5712,-120,13860,9710,1533,4691,0,41000,340000,252507,
-5684,-96,13660,9816,1373,4593,1000,41000,340000,252509,
-5932,152,12868,10218,570,3924,2000,41000,340000,252522,
-6092,64,12684,10348,289,3839,2000,41000,340000,252524,
-5976,180,12508,10382,175,3726,2000,41000,340000,252527,
-5928,548,11744,10832,-814,3215,4000,41000,341000,252539,
-5932,640,11536,10842,-1040,3133,4000,41000,341000,252542,
-5780,748,11552,10848,-1163,3025,4000,41000,341000,252544,
-5232,1212,10908,11038,-1428,2524,5000,40000,341000,252557,
-5244,1248,10676,11099,-1372,2381,6000,40000,341000,252559,
-5140,1424,10848,11086,-1383,2242,6000,40000,341000,252561,
-4896,1852,10204,10929,-857,1526,7000,40000,342000,252574,
-4952,1980,10204,10869,-764,1386,7000,40000,342000,252576,
-4840,2020,10160,10815,-556,1260,8000,40000,342000,252579,
-4996,2276,9728,10616,267,683,9000,40000,342000,252592,
-5116,2280,9580,10516,376,603,9000,40000,342000,252594,
-5208,2308,9360,10529,555,499,9000,40000,342000,252596,
-5872,2936,8968,10212,1055,71,10000,40000,342000,252609,
-6048,3068,8808,10191,1187,-27,10000,40000,342000,252611,
-6132,3032,8868,10085,1153,-81,11000,40000,342000,252614,
-6916,3396,8324,9804,1210,-360,12000,40000,342000,252626,
-6944,3536,8344,9736,1140,-349,12000,40000,342000,252629,
-7064,3720,8300,9642,1140,-408,12000,40000,342000,252631,
-7532,3996,7724,9398,713,-480,13000,40000,342000,252644,
-7592,3996,7508,9265,649,-494,13000,40000,342000,252646,
-7564,4096,7500,9208,526,-488,13000,40000,342000,252649,
-7988,4340,7336,8732,178,-573,14000,40000,342000,252661,
-7896,4388,7152,8711,90,-546,14000,40000,342000,252664,
-7864,4412,7116,8599,55,-527,15000,40000,342000,252666,
-8112,4676,7012,8200,-295,-538,15000,40000,342000,252679,
-8032,4636,6992,8083,-253,-527,16000,40000,342000,252681,
-8108,4832,6892,8063,-309,-512,16000,40000,342000,252683,
-7932,5228,6868,7494,-61,-395,17000,40000,342000,252696,
-7876,5192,6972,7403,-80,-423,17000,40000,342000,252698,
-7816,5320,6756,7249,72,-483,17000,40000,342000,252701,
-7552,5496,6788,6633,435,-683,18000,40000,342000,252713,
-7568,5540,6788,6578,612,-754,18000,40000,342000,252716,
-7544,5488,6764,6392,680,-801,18000,40000,342000,252718,
-7716,5268,6904,5747,1258,-992,19000,41000,342000,252731,
-7724,5408,6824,5716,1352,-989,19000,41000,342000,252733,
-7760,5304,6848,5572,1476,-1030,19000,41000,342000,252735,
-8072,5376,6800,5153,1785,-1012,19000,41000,342000,252748,
-8264,5456,6808,5140,1768,-1007,19000,41000,342000,252750,
-8284,5512,6732,5032,1794,-986,20000,41000,342000,252753,
-9012,6212,6324,4558,1591,-924,20000,41000,342000,252766,
-9228,6436,6300,4378,1442,-896,20000,41000,342000,252768,
-9232,6484,6296,4303,1346,-896,20000,41000,342000,252770,
-9540,6660,6168,3472,751,-866,21000,41000,342000,252783,
-9396,6632,6480,3229,651,-854,21000,41000,342000,252785,
-9360,6636,6448,3131,633,-843,21000,41000,342000,252788,
-8980,6516,6808,2444,483,-878,21000,42000,342000,252800,
-9088,6460,6888,2369,524,-885,21000,42000,342000,252803,
-9008,6424,6812,2227,550,-901,21000,42000,342000,252805,
-9048,6408,7448,1688,1043,-1026,22000,42000,342000,252818,
-9028,6416,7664,1630,1204,-1016,22000,42000,342000,252820,
-9156,6444,7728,1498,1330,-1049,22000,42000,342000,252822,
-9396,6244,8344,1198,1962,-1023,22000,42000,342000,252835,
-9320,6232,8164,1140,2112,-1047,22000,42000,342000,252837,
-9484,6104,8376,1077,2175,-1035,22000,42000,342000,252840,
-9664,5952,8488,932,2666,-889,22000,42000,342000,252852,
-9812,6100,8552,919,2670,-887,22000,42000,342000,252855,
-9940,5920,8568,920,2746,-840,22000,42000,342000,252857,
-10412,6152,8360,729,2493,-692,22000,43000,343000,252870,
-10336,6136,8296,722,2638,-716,22000,43000,343000,252872,
-10800,6104,8400,708,2424,-624,22000,43000,343000,252875,
-10968,6104,8252,503,1718,-424,23000,43000,343000,252887,
-10972,6040,8404,433,1545,-414,23000,43000,343000,252890,
-10940,6116,8472,433,1456,-344,23000,43000,343000,252892,
-10884,5868,8436,304,472,-42,23000,43000,343000,252905,
-10684,5908,8444,311,370,-11,23000,43000,343000,252907,
-10740,5824,8472,278,152,40,23000,43000,343000,252909,
-10188,5824,8844,132,-445,179,23000,43000,343000,252922,
-10192,5860,8900,132,-592,156,23000,43000,343000,252925,
-10040,5792,8944,108,-619,150,23000,43000,343000,252927,
-9688,5812,9384,-25,-713,102,23000,43000,343000,252940,
-9448,5852,9400,-46,-682,56,23000,43000,343000,252942,
-9496,5816,9404,-46,-639,39,23000,43000,343000,252944,
-9392,5796,9612,-116,-607,-7,23000,43000,343000,252947,
-9152,5572,9748,-252,-326,-151,23000,43000,343000,252959,
-9176,5696,9576,-351,-324,-146,23000,43000,343000,252962,
-9156,5556,9696,-267,-164,-170,23000,43000,343000,252964,
-9040,5328,9668,-414,246,-243,23000,43000,343000,252977,
-9068,5468,9616,-359,355,-246,23000,43000,343000,252979,
-9040,5440,9748,-427,375,-256,23000,43000,343000,252982,
-9176,5596,9744,-441,816,-388,23000,43000,343000,252994,
-9124,5580,9788,-483,826,-423,23000,43000,343000,252996,
-9152,5612,9800,-475,963,-437,23000,43000,343000,252999,
-9152,5636,9856,-642,1259,-635,23000,43000,343000,253011,
-9232,5580,9784,-628,1374,-669,23000,43000,343000,253014,
-9256,5568,9852,-668,1362,-712,23000,43000,343000,253016,
-9328,5324,10036,-676,1528,-917,23000,43000,343000,253029,
-9420,5364,9892,-695,1434,-948,23000,43000,343000,253031,
-9436,5384,9880,-659,1474,-965,23000,43000,343000,253033,
-9796,5240,9744,-649,1065,-1014,23000,44000,343000,253046,
-9940,5188,9760,-605,1036,-1035,23000,44000,343000,253048,
-9820,5148,9860,-630,859,-1060,23000,44000,343000,253051,
-10144,5392,9848,-417,349,-964,23000,44000,343000,253063,
-10316,5436,9792,-460,199,-941,23000,44000,343000,253066,
-10236,5400,9756,-391,156,-933,23000,44000,343000,253068,
-10256,5928,9828,-450,-302,-971,22000,44000,343000,253081,
-10280,5928,9860,-544,-475,-969,22000,44000,343000,253083,
-10244,5900,9804,-501,-427,-986,22000,44000,343000,253085,
-10060,5720,10072,-577,-623,-996,22000,44000,342000,253098,
-10044,5664,10068,-519,-550,-1012,22000,44000,342000,253101,
-10076,5812,10060,-566,-618,-997,22000,44000,342000,253103,
-10068,5812,10100,-448,-339,-989,22000,44000,342000,253116,
-10180,5792,10048,-478,-397,-1007,22000,44000,342000,253118,
-10208,5832,10204,-454,-281,-974,22000,44000,342000,253120,
-10100,6052,10224,-392,23,-1003,22000,44000,342000,253133,
-10172,6096,10136,-397,168,-994,22000,44000,342000,253135,
-10136,6152,10144,-442,132,-1012,22000,44000,342000,253138,
-10044,6156,10036,-530,689,-1122,22000,44000,342000,253150,
-9952,6144,10180,-614,724,-1129,22000,44000,342000,253153,
-9892,6156,10116,-601,862,-1136,22000,44000,342000,253155,
-9992,5988,10044,-633,1248,-1258,22000,44000,342000,253168,
-10060,5924,10120,-662,1304,-1319,22000,44000,342000,253170,
-10052,5932,10180,-670,1304,-1252,22000,44000,342000,253172,
-10316,5924,10144,-640,1498,-1254,22000,44000,342000,253185,
-10400,5848,10148,-636,1421,-1308,22000,44000,342000,253187,
-10476,5804,10084,-647,1523,-1293,22000,44000,342000,253190,
-10564,5904,10276,-691,1394,-1274,22000,44000,342000,253202,
-10536,5740,10320,-655,1420,-1278,22000,44000,342000,253204,
-10548,5828,10228,-636,1339,-1223,22000,44000,342000,253207,
-10716,5636,10216,-595,1065,-1124,22000,44000,342000,253219,
-10528,5568,10084,-513,984,-1062,22000,44000,342000,253222,
-10612,5720,10020,-533,918,-1043,22000,44000,342000,253224,
-10656,5628,9892,-466,526,-865,21000,45000,342000,253237,
