Ax,Ay,Az,Gx,Gy,Gz,Roll,Pitch,Yaw,Timestamp,Target
-4168,-1316,16080,-254,379,790,-10000,16000,61000,189014,
-4320,-1368,16036,-259,447,844,-10000,16000,61000,189017,
-4380,-1300,16040,-345,363,820,-10000,16000,61000,189019,
-4572,-1932,16132,-271,60,166,-10000,16000,61000,189031,
-4856,-1936,16208,-259,-43,76,-10000,16000,61000,189034,
-4796,-1924,16172,-240,-178,-27,-10000,16000,61000,189036,
-5176,-1712,16460,-91,-830,-72,-10000,16000,61000,189048,
-5236,-1656,16612,-44,-857,-31,-10000,16000,61000,189050,
-5132,-1616,16712,14,-835,-12,-10000,16000,61000,189052,
-5324,-984,16732,-123,-662,174,-10000,16000,61000,189065,
-5420,-992,16556,-160,-687,193,-10000,15000,61000,189067,
-5440,-812,16556,-175,-673,206,-10000,15000,61000,189069,
-5200,-776,16152,-193,-718,155,-10000,15000,61000,189082,
-4928,-828,16160,-211,-691,135,-10000,15000,61000,189084,
-4832,-868,16320,-205,-684,81,-10000,15000,61000,189086,
-4512,-800,16132,-185,-752,14,-10000,15000,61000,189098,
1528,8148,15092,-578,-178,-272,23000,-4000,82000,192657,
1320,8240,15152,-586,-163,-247,23000,-4000,82000,192669,
-924,292,20584,2047,250,-1062,0,-1000,73000,190881,
336,444,20376,3273,-2179,-863,0,-1000,73000,190894,
628,424,20248,-394,636,131,-9000,15000,61000,189132,
-5100,-1032,16232,-395,620,93,-9000,15000,61000,189134,
-4932,-1176,16284,-373,587,79,-9000,15000,61000,189136,
-5140,-1444,16472,-210,88,2,-9000,16000,61000,189149,
-5052,-1456,16256,-173,-64,-38,-9000,16000,61000,189151,
-5008,-1552,16200,-201,-150,-62,-9000,16000,61000,189153,
-5064,-1620,16188,-201,-188,-122,-9000,16000,61000,189165,
-5068,-1652,16164,-229,-120,-102,-9000,16000,61000,189168,
-5004,-1564,16260,-212,-86,-97,-9000,16000,61000,189170,
-4940,-1452,16356,-261,-312,-68,-9000,15000,61000,189182,
-5000,-1348,16256,-262,-361,-49,-9000,15000,61000,189184,
-4892,-1304,16192,-235,-392,-71,-9000,15000,61000,189186,
-4700,-1336,16184,-236,-226,5,-9000,15000,61000,189199,
-4544,-1340,16208,-286,-198,9,-9000,15000,61000,189201,
-4652,-1260,16268,-303,-98,36,-9000,15000,61000,189203,
-4620,-1324,16272,-354,237,97,-9000,15000,61000,189216,
-4744,-1344,16248,-380,270,119,-9000,15000,61000,189218,
-4624,-1284,16396,-363,317,142,-9000,15000,61000,189220,
-4636,-1320,16448,-416,455,163,-9000,16000,61000,189233,
-4580,-1280,16312,-429,455,159,-9000,16000,61000,189235,
-4632,-1360,16268,-443,477,159,-9000,16000,61000,189237,
-4596,-1376,16820,-420,401,123,-9000,16000,61000,189250,
-4636,-1432,16760,-405,375,92,-9000,16000,61000,189252,
-4624,-1424,16692,-402,272,104,-9000,16000,61000,189254,
-4824,-1456,16208,-318,281,57,-9000,16000,61000,189266,
-4920,-1512,16000,-320,391,67,-9000,16000,61000,189269,
-4832,-1376,16076,-290,456,62,-9000,16000,61000,189271,
-5232,-1568,16256,-257,185,74,-9000,16000,61000,189283,
-5244,-1536,16308,-251,83,60,-9000,16000,61000,189285,
-5248,-1652,16260,-242,-74,30,-9000,16000,61000,189288,
-5248,-1536,16484,-141,-373,-29,-9000,16000,61000,189300,
-5188,-1372,16420,-119,-417,2,-9000,16000,61000,189302,
-5156,-1364,16580,-186,-452,34,-9000,16000,61000,189305,
-5032,-1204,16216,-213,-667,39,-9000,16000,61000,189317,
-4988,-1096,16144,-191,-691,32,-9000,16000,61000,189319,
-4988,-1092,16184,-206,-703,48,-9000,16000,61000,189321,
-5112,-1156,16580,-185,-655,-8,-9000,15000,61000,189334,
-5036,-1068,16332,-215,-638,-9,-9000,15000,61000,189336,
-4948,-1092,16468,-159,-690,-3,-9000,15000,61000,189338,
-4692,-1192,16268,-149,-704,41,-9000,15000,61000,189351,
-4612,-1424,16148,-124,-639,48,-9000,15000,61000,189353,
-4484,-1320,16204,-143,-601,35,-9000,15000,61000,189355,
-4440,-1476,16264,-110,30,181,-9000,15000,61000,189368,
-4480,-1536,16236,-112,191,234,-9000,15000,61000,189370,
-4604,-1464,16328,-129,254,252,-9000,15000,61000,189372,
-4860,-1528,16168,-111,381,337,-9000,15000,61000,189384,
-4760,-1564,16024,-109,388,331,-9000,15000,61000,189387,
-4896,-1588,16224,-116,314,324,-9000,15000,61000,189389,
-4992,-1456,16340,-183,38,230,-9000,15000,61000,189401,
-5132,-1460,16256,-205,-22,216,-9000,15000,61000,189404,
-5040,-1376,16392,-190,-72,163,-9000,15000,61000,189406,
-4804,-1196,16388,-174,-313,93,-9000,15000,61000,189418,
-4736,-1180,16344,-186,-335,89,-9000,15000,61000,189420,
-4816,-1124,16480,-209,-373,68,-9000,15000,61000,189422,
-4784,-1040,16356,-226,-298,32,-9000,15000,61000,189435,
-4596,-1012,16360,-223,-252,25,-9000,15000,61000,189437,
-4704,-916,16172,-220,-228,21,-9000,15000,61000,189439,
-4788,-1040,16284,-253,-99,16,-9000,15000,61000,189452,
-4840,-1016,16408,-243,-56,-3,-9000,15000,61000,189454,
-4912,-1032,16332,-243,-24,22,-9000,15000,61000,189456,
-4904,-1040,16216,-290,-90,42,-9000,15000,61000,189469,
-4996,-952,16336,-343,-68,65,-9000,15000,61000,189471,
-4892,-1192,16520,-336,-68,63,-9000,15000,61000,189473,
-4800,-1192,16400,-332,-106,70,-9000,15000,61000,189485,
-4708,-1244,16324,-311,-77,107,-9000,15000,61000,189488,
-4660,-1300,16164,-340,-46,76,-9000,15000,61000,189490,
-4664,-1456,16504,-321,299,113,-9000,15000,61000,189502,
-4668,-1292,16388,-289,368,147,-9000,15000,61000,189504,
-4652,-1424,16464,-296,423,144,-9000,15000,61000,189507,
-4908,-1376,16188,-314,389,98,-9000,15000,61000,189519,
-4924,-1420,16292,-314,384,72,-9000,15000,61000,189521,
-4924,-1312,16300,-338,372,89,-9000,15000,61000,189523,
-4972,-1208,16464,-341,139,36,-9000,16000,61000,189536,
-4836,-1116,16384,-335,106,84,-9000,16000,61000,189538,
-4872,-1224,16500,-322,76,25,-9000,16000,61000,189540,
-4708,-1144,16240,-376,-211,-57,-9000,15000,61000,189553,
-4544,-1132,16248,-417,-262,-121,-9000,15000,61000,189555,
-4600,-1156,16412,-385,-225,-170,-9000,15000,61000,189557,
-4648,-1136,16324,-537,70,-315,-9000,15000,61000,189569,
-4768,-1064,16476,-522,130,-310,-9000,15000,61000,189571,
-4772,-1200,16452,-564,188,-358,-9000,15000,61000,189574,
-4844,-1172,16720,-551,377,-483,-9000,16000,61000,189586,
-4868,-1160,16724,-570,335,-518,-9000,16000,61000,189588,
-4928,-1128,16892,-550,283,-561,-9000,16000,61000,189591,
-4476,-1028,16940,-604,312,-675,-9000,16000,61000,189603,
-4340,-1184,16872,-623,388,-704,-9000,16000,61000,189605,
-4328,-1072,16808,-652,482,-743,-9000,16000,61000,189607,
-3672,-1280,17016,-866,1753,-944,-9000,16000,61000,189620,
-3624,-1264,17004,-907,2129,-965,-9000,16000,61000,189622,
-3748,-1180,16832,-924,2437,-993,-9000,16000,61000,189624,
-4592,-1400,16868,-1077,3594,-1046,-10000,16000,61000,189637,
-4876,-1352,17152,-1119,3651,-1039,-10000,16000,61000,189639,
-5072,-1388,17448,-1140,3612,-1057,-10000,16000,61000,189641,
-6776,-1260,17784,-1041,2313,-606,-10000,16000,61000,189653,
-6964,-1268,18008,-1034,2077,-512,-10000,16000,61000,189656,
-7232,-1200,18172,-987,1787,-386,-10000,16000,61000,189658,
-7724,-544,18812,-853,141,146,-10000,17000,61000,189670,
-7780,-456,18972,-853,-173,204,-10000,17000,61000,189672,
-7696,-284,19112,-819,-487,297,-10000,17000,61000,189675,
-7216,192,19984,-530,-1919,663,-10000,16000,61000,189687,
-7292,120,20184,-420,-2052,730,-10000,16000,61000,189689,
-7192,48,20296,-364,-2055,775,-10000,16000,61000,189692,
-7080,-436,21428,85,-2045,1202,-10000,16000,61000,189704,
-7132,-536,21636,137,-2069,1255,-10000,16000,61000,189706,
-7124,-736,21660,245,-2172,1297,-10000,16000,61000,189708,
-7544,-1356,22560,948,-3129,1767,-9000,16000,62000,189721,
-7468,-1280,22416,1063,-3377,1875,-9000,16000,62000,189723,
-7196,-1364,22268,1139,-3624,1914,-9000,16000,62000,189725,
-5816,-192,21152,1696,-4668,2036,-9000,15000,62000,189737,
-5788,-108,20644,1822,-4562,2030,-9000,15000,62000,189740,
-5656,224,20364,1910,-4336,2052,-9000,15000,62000,189742,
-6160,488,19552,2441,-1962,1916,-8000,15000,62000,189754,
-6400,460,19500,2517,-1582,1938,-8000,15000,62000,189756,
-6696,508,19264,2577,-1338,1988,-8000,15000,62000,189758,
-7932,-296,19988,3163,-958,2712,-8000,15000,63000,189771,
-8000,-492,20004,3288,-1039,2858,-8000,15000,63000,189773,
-7924,-640,20236,3457,-1133,2997,-8000,15000,63000,189775,
-7084,-1076,20900,4344,-2174,3525,-7000,15000,63000,189788,
-6836,-1056,21216,4533,-2454,3538,-7000,15000,63000,189790,
-6684,-1096,21220,4721,-2691,3577,-7000,15000,63000,189792,
-5588,-768,21304,5649,-3412,3406,-6000,15000,64000,189805,
-5532,-576,21172,5824,-3405,3366,-6000,14000,64000,189807,
-5584,-480,20948,5927,-3351,3327,-6000,14000,64000,189809,
-5676,0,20720,6589,-3204,3279,-5000,14000,64000,189821,
-5620,60,20508,6698,-3202,3297,-5000,14000,64000,189823,
-5620,128,20308,6779,-3200,3342,-5000,14000,64000,189826,
-5792,272,19228,7188,-3231,3501,-4000,14000,65000,189838,
-5800,252,19176,7255,-3230,3503,-4000,14000,65000,189840,
-5808,308,19004,7287,-3203,3587,-4000,14000,65000,189843,
-5612,228,17944,7458,-3167,3777,-3000,13000,65000,189855,
-5684,232,17960,7467,-3126,3862,-3000,13000,65000,189857,
-5548,172,17744,7489,-3138,3903,-3000,13000,65000,189859,
-5332,364,16704,7366,-2704,4174,-2000,13000,66000,189872,
-5336,304,16512,7375,-2615,4219,-2000,13000,66000,189874,
-5364,312,16444,7319,-2484,4224,-2000,13000,66000,189876,
-5532,524,15616,7091,-2033,4298,-1000,13000,66000,189888,
-5588,568,15344,7036,-1964,4283,-1000,13000,66000,189891,
-5676,616,15332,7000,-1938,4322,-1000,13000,66000,189893,
-6112,1048,14624,6561,-1831,4484,0,13000,67000,189905,
-6100,1004,14436,6514,-1840,4530,0,13000,67000,189907,
-6148,1200,14456,6397,-1814,4596,0,13000,67000,189910,
-6064,1352,14440,5922,-2236,4932,0,13000,68000,189922,
-5924,1492,14452,5833,-2372,4951,0,13000,68000,189924,
-5732,1400,14588,5743,-2498,5033,0,13000,68000,189926,
-5076,1640,14000,5111,-2830,5070,1000,12000,68000,189939,
-4988,1760,13836,4992,-2834,5054,1000,12000,68000,189941,
-4716,1824,13804,4848,-2770,5031,1000,12000,68000,189943,
-4228,1764,12440,3806,-2407,5032,2000,12000,69000,189955,
-4028,1856,12024,3637,-2219,5028,2000,12000,69000,189957,
-4088,1844,12080,3456,-1938,5015,2000,12000,69000,189960,
-4080,1720,11644,2349,-431,5172,2000,12000,70000,189972,
-4104,1672,11744,2178,-286,5204,2000,12000,70000,189974,
-4180,1728,11828,2014,-229,5237,2000,12000,70000,189976,
-4812,1536,12384,1321,-722,5485,3000,12000,70000,189989,
-4920,1672,12576,1206,-964,5537,3000,12000,70000,189991,
-5020,1676,12820,1135,-1214,5598,3000,12000,70000,189993,
-5136,1976,14004,704,-3189,5935,3000,12000,71000,190006,
-5152,2044,14008,663,-3602,6000,3000,11000,71000,190008,
-5096,2084,14128,561,-4002,6044,3000,11000,71000,190010,
-4428,2512,13984,184,-5955,6198,3000,11000,72000,190023,
-4440,2484,13792,95,-6202,6238,3000,11000,72000,190025,
-4260,2516,13872,44,-6421,6261,3000,11000,72000,190027,
-3452,2444,13136,-496,-6816,6297,3000,10000,73000,190040,
-3336,2352,13296,-595,-6783,6251,3000,10000,73000,190042,
-3400,2388,13332,-672,-6769,6231,3000,10000,73000,190044,
-2952,2244,12864,-1289,-6903,6042,3000,9000,73000,190056,
-2948,2236,13008,-1406,-6944,6002,3000,9000,73000,190059,
-2856,2192,13140,-1507,-7009,5976,3000,9000,74000,190061,
-2468,2360,13780,-2097,-7625,5905,3000,8000,74000,190073,
-2264,2408,13996,-2189,-7821,5916,3000,8000,74000,190075,
-2104,2420,14268,-2318,-7972,5923,3000,8000,74000,190078,
-884,2648,14468,-3052,-8848,5690,3000,7000,75000,190090,
-756,2704,14484,-3211,-8870,5621,3000,7000,75000,190092,
-600,2676,14460,-3367,-8904,5537,3000,7000,75000,190095,
-44,2500,14460,-4266,-8473,5283,3000,6000,75000,190107,
48,2420,14544,-4423,-8256,5247,3000,6000,75000,190109,
236,2464,14380,-4622,-8016,5205,2000,5000,76000,190111,
1068,2224,14152,-5592,-6841,4842,2000,5000,76000,190124,
1148,2272,14016,-5745,-6712,4758,2000,5000,76000,190126,
1172,2176,13952,-5885,-6586,4689,2000,4000,76000,190128,
1576,1924,13780,-6438,-5760,4199,1000,4000,77000,190141,
1712,2324,13632,-6672,-5537,4164,1000,4000,77000,190143,
1684,2500,13868,-6906,-5230,4192,1000,4000,77000,190145,
1540,732,15100,-6708,-4015,3624,0,3000,77000,190158,
1472,528,15388,-6684,-3947,3374,0,3000,77000,190160,
1416,48,15636,-6603,-3847,3110,0,3000,77000,190162,
1300,-180,16012,-6569,-3825,2847,0,3000,77000,190164,
-88,-908,17484,-5956,-4572,1708,0,2000,77000,190177,
-288,-1028,17524,-5766,-4861,1603,0,2000,77000,190179,
-368,-1020,17672,-5593,-5123,1565,0,2000,77000,190181,
-404,-1240,17764,-4609,-6708,1491,0,2000,77000,190194,
-272,-1288,17800,-4426,-6927,1487,0,1000,78000,190196,
-204,-1320,17460,-4277,-7115,1449,0,1000,78000,190198,
980,-1336,17256,-3410,-8136,1074,-1000,1000,78000,190210,
1324,-1368,17172,-3261,-8278,1001,-1000,0,78000,190213,
1348,-1196,17056,-3150,-8348,886,-1000,0,78000,190215,
2524,-812,16932,-2521,-8422,386,-1000,0,78000,190227,
2948,-660,16620,-2467,-8289,307,-1000,0,78000,190229,
3084,-548,16520,-2374,-8044,161,-1000,0,78000,190231,
3580,-244,15976,-2185,-5707,-403,-1000,0,78000,190244,
3532,-252,16052,-2113,-5234,-509,-1000,-1000,78000,190246,
3360,-236,15912,-2091,-4718,-612,-1000,-1000,78000,190248,
2560,-496,16244,-1838,-2205,-1059,-1000,-1000,78000,190261,
2452,-700,16204,-1780,-1776,-1156,-1000,-1000,78000,190263,
2332,-768,16308,-1706,-1429,-1257,-2000,-1000,78000,190265,
1464,-1288,16936,-1110,-187,-1519,-2000,-1000,77000,190277,
1392,-1268,17124,-1018,-111,-1515,-2000,-1000,77000,190280,
1340,-1400,17060,-898,-27,-1535,-2000,-1000,77000,190282,
1332,-1236,17460,-328,175,-1493,-2000,-1000,77000,190294,
1340,-1200,17592,-255,194,-1434,-2000,-1000,77000,190296,
1364,-1172,17720,-166,260,-1407,-2000,-1000,77000,190298,
1268,-856,17472,128,736,-1254,-2000,-1000,77000,190311,
1224,-764,17476,143,867,-1243,-2000,-1000,77000,190313,
1240,-772,17432,182,1016,-1258,-2000,-1000,77000,190315,
520,-556,17688,332,1894,-1366,-2000,-1000,77000,190328,
336,-572,17740,377,1977,-1395,-2000,-1000,77000,190330,
300,-688,17596,433,2096,-1442,-2000,-1000,77000,190332,
-360,-524,17676,860,1791,-1480,-2000,-1000,77000,190344,
-376,-524,17348,926,1583,-1441,-2000,-1000,77000,190347,
-480,-500,17252,990,1422,-1432,-2000,-1000,77000,190349,
-36,-136,16480,1239,567,-1189,-1000,0,77000,190361,
80,-176,16396,1298,508,-1133,-1000,0,77000,190363,
232,-96,16256,1290,471,-1083,-1000,0,77000,190366,
324,-88,16204,1325,470,-1009,-1000,0,76000,190368,
972,272,16132,1289,728,-903,-1000,0,76000,190380,
984,176,16432,1273,829,-901,-1000,0,76000,190382,
1016,168,16424,1235,906,-934,-1000,0,76000,190385,
1116,288,16536,1236,1061,-919,-1000,0,76000,190387,
556,424,16940,1169,1811,-731,-1000,0,76000,190399,
316,336,16904,1155,1884,-663,-1000,0,76000,190401,
224,268,16988,1125,1981,-607,-1000,0,76000,190404,
-296,356,17040,947,2460,-297,-1000,0,76000,190416,
-452,544,17124,923,2527,-269,-1000,0,76000,190418,
-620,520,17080,899,2551,-211,-1000,0,76000,190420,
-788,656,17100,875,2551,-200,-1000,0,76000,190423,
-1344,1032,17408,735,2156,-11,-1000,0,76000,190435,
-1412,1160,17352,712,1978,-13,-1000,0,76000,190437,
-1384,1320,17372,713,1834,33,-1000,0,76000,190439,
-1420,1932,17600,696,617,183,-1000,0,76000,190452,
-1308,2160,17860,708,378,203,-1000,0,76000,190454,
-1284,2176,17744,732,120,246,0,0,76000,190456,
-1240,2300,17664,705,-86,213,0,0,76000,190458,
-732,2456,17768,747,-1109,229,0,0,76000,190470,
-668,2508,17820,783,-1240,250,0,0,76000,190473,
-560,2408,17752,750,-1358,261,0,0,76000,190475,
-504,2560,17800,747,-1494,244,0,0,76000,190477,
112,2732,17580,568,-1981,365,0,0,76000,190489,
316,2872,17716,535,-2002,397,0,0,76000,190492,
252,2804,17496,478,-1969,425,0,0,76000,190494,
428,2876,17412,462,-1905,445,0,0,76000,190496,
1072,2904,17216,169,-1342,345,0,0,76000,190508,
1096,2768,17272,121,-1250,298,0,0,76000,190510,
1164,2872,17320,88,-1116,239,0,0,76000,190513,
1268,2808,17296,96,-1055,211,0,0,76000,190515,
1020,2912,17204,-45,-319,-13,0,0,76000,190527,
900,2832,17312,-106,-121,-24,0,0,76000,190529,
660,2992,17360,-121,12,-72,0,0,76000,190532,
512,3040,17444,-174,113,-83,0,0,76000,190534,
-4,3000,17664,-234,151,-265,0,0,76000,190546,
1096,8340,15196,-605,-171,-251,23000,-4000,82000,192671,
1252,8360,14992,-615,-172,-264,23000,-4000,82000,192674,
1316,8316,15052,-617,-66,-201,23000,-4000,82000,192686,
1144,8316,14964,-595,-36,-201,23000,-4000,82000,192688,
1088,8356,15228,-621,-66,-192,23000,-4000,82000,192690,
1348,8244,15108,-600,-102,-143,23000,-4000,82000,192703,
1320,8196,15200,-602,-64,-130,23000,-4000,82000,192705,
1376,8200,15288,-551,-62,-106,23000,-4000,82000,192707,
1392,8164,15132,-525,107,-158,23000,-4000,82000,192719,
1432,8064,15408,-529,121,-150,23000,-4000,82000,192722,
1408,8196,15540,-510,144,-187,23000,-4000,82000,192724,
1372,8184,15284,-514,214,-230,23000,-4000,82000,192736,
1200,8156,15412,-481,252,-197,23000,-4000,82000,192738,
1280,8184,15276,-513,205,-200,23000,-4000,82000,192741,
1016,8280,15436,-531,106,-139,23000,-4000,82000,192753,
1060,8228,15364,-510,64,-133,23000,-4000,82000,192755,
1100,8228,15340,-544,74,-187,23000,-4000,82000,192757,
1024,8104,15120,-563,11,-92,23000,-4000,82000,192770,
1060,8184,15188,-544,-10,-75,23000,-4000,82000,192772,
1100,8080,15148,-533,13,-71,23000,-4000,82000,192774,
1144,7984,14960,-584,-193,68,23000,-4000,82000,192786,
1212,8012,15100,-599,-194,56,23000,-4000,82000,192789,
1248,7888,15112,-584,-197,87,23000,-4000,82000,192791,
1248,8112,14916,-626,-181,159,23000,-4000,82000,192803,
1288,8016,15020,-653,-165,141,23000,-4000,82000,192805,
1292,7988,15024,-646,-151,180,23000,-4000,82000,192807,
1164,8120,15092,-691,-90,180,23000,-4000,82000,192820,
992,8296,15112,-657,-75,191,23000,-4000,82000,192822,
1060,8268,15092,-664,-99,206,23000,-4000,82000,192824,
1232,8156,15348,-650,-152,215,23000,-4000,82000,192837,
1184,8268,15264,-637,-228,221,23000,-4000,82000,192839,
1124,8080,15500,-603,-281,210,23000,-4000,82000,192841,
1352,7968,15252,-568,-366,233,23000,-4000,82000,192853,
1292,7924,15128,-580,-328,231,23000,-4000,82000,192855,
1412,7968,15184,-608,-336,257,23000,-4000,82000,192858,
1320,7916,15156,-674,-236,298,23000,-4000,82000,192870,
1408,7888,14944,-680,-193,278,23000,-4000,82000,192872,
1316,7940,14992,-685,-128,289,23000,-4000,82000,192875,
1204,8148,14824,-814,-5,320,23000,-4000,82000,192887,
1208,8192,14828,-824,19,326,23000,-4000,82000,192889,
1168,8184,14800,-850,32,309,23000,-4000,82000,192891,
1012,8216,14864,-905,31,421,23000,-4000,82000,192904,
920,8252,14680,-884,35,460,23000,-4000,82000,192906,
872,8196,14824,-907,12,481,23000,-4000,82000,192908,
992,8176,14788,-904,-16,515,23000,-4000,82000,192910,
1136,8036,15000,-880,-298,551,23000,-4000,82000,192923,
1256,8088,15128,-847,-337,577,23000,-4000,82000,192925,
1232,8032,14936,-847,-343,561,23000,-4000,82000,192927,
1412,8064,15124,-860,-329,460,22000,-4000,82000,192939,
1456,8140,15076,-852,-271,460,22000,-4000,82000,192941,
1344,8124,15100,-886,-251,443,22000,-4000,82000,192944,
1092,8244,15120,-872,-242,376,22000,-4000,82000,192956,
1144,8224,15160,-823,-272,378,22000,-4000,82000,192958,
1016,8232,15180,-844,-317,409,22000,-4000,82000,192960,
1132,8208,14960,-891,-322,440,22000,-4000,82000,192973,
1160,8120,15036,-891,-356,412,22000,-4000,82000,192975,
1180,7980,15096,-925,-316,431,22000,-4000,82000,192977,
1324,7884,14648,-1053,-314,468,22000,-4000,82000,192990,
1296,7832,14668,-1085,-327,486,22000,-4000,82000,192992,
1376,7900,14668,-1118,-319,499,22000,-4000,82000,192994,
1296,7792,14660,-1239,-215,544,22000,-4000,82000,193007,
1204,7832,14624,-1278,-221,575,22000,-4000,82000,193009,
1160,7872,14652,-1292,-210,599,22000,-4000,82000,193011,
1036,8088,15088,-1316,-330,719,22000,-4000,82000,193023,
1100,8088,15036,-1311,-373,751,22000,-4000,82000,193025,
1092,8012,15120,-1287,-399,755,22000,-4000,82000,193028,
1308,7804,15464,-1266,-669,853,22000,-4000,82000,193040,
1292,7780,15380,-1279,-682,877,22000,-4000,82000,193042,
1432,7604,15276,-1273,-751,854,22000,-4000,82000,193044,
1636,7496,15328,-1318,-886,831,22000,-5000,82000,193057,
1748,7536,15364,-1292,-909,788,22000,-5000,82000,193059,
1756,7460,15288,-1328,-941,756,22000,-5000,82000,193061,
1760,7516,14912,-1480,-887,683,22000,-5000,82000,193074,
1808,7524,14864,-1480,-798,668,22000,-5000,82000,193076,
1716,7528,14872,-1519,-790,676,22000,-5000,82000,193078,
1376,7728,14772,-1689,-789,802,21000,-5000,83000,193090,
1404,7768,14856,-1701,-834,862,21000,-5000,83000,193093,
1352,7776,14832,-1698,-857,897,21000,-5000,83000,193095,
1588,7472,15064,-1771,-1028,1128,21000,-5000,83000,193107,
1600,7500,14936,-1778,-1048,1134,21000,-5000,83000,193109,
1748,7396,15080,-1817,-1078,1137,21000,-5000,83000,193112,
2144,7052,15416,-1794,-1295,1097,21000,-5000,83000,193124,
2276,7164,15336,-1790,-1304,1059,21000,-5000,83000,193126,
2308,7048,15192,-1798,-1321,1035,21000,-5000,83000,193128,
2628,7392,15204,-1890,-1273,864,21000,-5000,83000,193141,
2620,7336,15312,-1937,-1207,855,21000,-5000,83000,193143,
2616,7356,15296,-1993,-1197,851,21000,-5000,83000,193145,
2536,7620,15528,-2075,-1241,846,21000,-6000,83000,193157,
2564,7712,15308,-2107,-1273,871,21000,-6000,83000,193160,
2464,7724,15400,-2097,-1315,841,20000,-6000,83000,193162,
2616,7416,15788,-2014,-1590,781,20000,-6000,83000,193174,
2644,7356,15848,-2039,-1623,749,20000,-6000,83000,193176,
2672,7320,15768,-2027,-1715,743,20000,-6000,83000,193179,
2732,6752,15580,-1960,-1843,628,20000,-6000,83000,193191,
2716,6660,15696,-1923,-1833,621,20000,-6000,83000,193193,
2656,6736,15632,-1929,-1791,587,20000,-6000,83000,193196,
2716,6680,15600,-1859,-2014,496,20000,-6000,83000,193208,
2644,6728,15892,-1830,-2082,474,20000,-6000,83000,193210,
2748,6848,15896,-1815,-2145,480,20000,-6000,83000,193212,
3364,7288,16276,-1697,-2196,171,20000,-7000,83000,193225,
3600,7368,16104,-1664,-2172,88,20000,-7000,83000,193227,
3612,7300,16172,-1643,-2047,8,20000,-7000,83000,193229,
3924,7428,16296,-1583,-1229,-503,20000,-7000,83000,193242,
3876,7280,16308,-1603,-1073,-575,20000,-7000,83000,193244,
3848,7196,16372,-1582,-937,-635,20000,-7000,83000,193246,
3336,6872,16096,-1663,-146,-843,19000,-7000,82000,193258,
3120,6892,16120,-1666,-49,-851,19000,-7000,82000,193260,
3092,6840,15872,-1689,74,-856,19000,-7000,82000,193263,
2644,6808,15924,-1774,273,-764,19000,-7000,82000,193275,
2620,6964,15924,-1785,248,-761,19000,-7000,82000,193277,
2464,6908,16032,-1793,223,-740,19000,-7000,82000,193279,
2092,7104,16148,-1648,-43,-672,19000,-7000,82000,193292,
2116,7004,16320,-1636,-97,-650,19000,-7000,82000,193294,
2028,6964,16128,-1575,-131,-629,19000,-7000,82000,193296,
2144,6780,16440,-1417,-709,-598,19000,-7000,82000,193308,
2216,6752,16496,-1348,-797,-605,19000,-7000,82000,193311,
2276,6640,16620,-1339,-923,-603,19000,-7000,82000,193313,
2644,6576,16472,-1214,-1448,-693,19000,-7000,82000,193325,
2852,6676,16472,-1202,-1505,-755,19000,-7000,82000,193327,
2952,6520,16492,-1190,-1520,-824,19000,-7000,82000,193330,
3540,6624,16372,-1142,-1375,-1030,19000,-7000,82000,193342,
3572,6696,16468,-1138,-1393,-1060,19000,-7000,82000,193344,
3788,6588,16628,-1125,-1355,-1097,19000,-7000,82000,193346,
4144,6572,16480,-1037,-1237,-1332,19000,-7000,82000,193359,
4160,6664,16432,-1026,-1166,-1401,19000,-7000,82000,193361,
4212,6588,16428,-1023,-1095,-1429,19000,-7000,82000,193363,
4460,6404,16428,-973,-1031,-1726,18000,-7000,81000,193375,
4516,6396,16520,-951,-1080,-1756,18000,-7000,81000,193378,
4500,6364,16780,-919,-1154,-1792,18000,-7000,81000,193380,
4740,6396,16840,-844,-1652,-2012,18000,-8000,81000,193392,
4816,6444,16976,-858,-1780,-2060,18000,-8000,81000,193394,
4800,6404,17012,-821,-1835,-2133,18000,-8000,81000,193397,
5332,6228,17608,-671,-2286,-2562,18000,-8000,81000,193409,
5448,6184,17760,-647,-2363,-2690,18000,-8000,81000,193411,
5620,6148,17692,-589,-2431,-2825,18000,-8000,81000,193413,
6108,5640,18228,-250,-2684,-3396,18000,-8000,80000,193426,
6352,5588,18240,-177,-2723,-3506,18000,-8000,80000,193428,
6576,5432,18152,-124,-2787,-3633,18000,-8000,80000,193430,
7620,4868,17800,131,-2627,-4323,19000,-8000,80000,193443,
7832,4872,17812,148,-2479,-4474,19000,-8000,79000,193445,
8044,4764,17808,215,-2364,-4609,19000,-8000,79000,193447,
8452,4592,17820,354,-1661,-5428,19000,-8000,79000,193460,
8464,4568,17776,405,-1584,-5515,19000,-9000,79000,193462,
8460,4572,17860,440,-1442,-5696,19000,-9000,79000,193464,
8424,4704,18256,652,-930,-6506,19000,-8000,78000,193476,
8260,4736,18248,709,-864,-6663,19000,-8000,78000,193478,
8300,4668,18288,780,-798,-6811,19000,-8000,78000,193481,
7940,4576,18880,1231,-900,-7774,19000,-8000,77000,193493,
7748,4480,18900,1344,-999,-7958,19000,-8000,77000,193495,
7676,4452,18968,1437,-1097,-8090,19000,-8000,77000,193497,
7652,4268,18744,1975,-1849,-8935,19000,-8000,76000,193510,
7716,4196,18688,2038,-1945,-9102,19000,-8000,76000,193512,
7568,4220,18652,2106,-2050,-9217,19000,-8000,76000,193514,
7872,4428,18216,2433,-2356,-10133,20000,-8000,75000,193527,
7888,4508,18040,2473,-2349,-10277,20000,-8000,74000,193529,
7968,4652,18076,2524,-2350,-10459,20000,-8000,74000,193531,
7664,5004,17868,2708,-2088,-11389,20000,-8000,73000,193543,
7640,4936,17736,2745,-1989,-11652,20000,-8000,73000,193545,
7488,4988,17684,2789,-1876,-11634,20000,-8000,73000,193548,
7032,4760,17980,3070,-1591,-12360,21000,-8000,72000,193560,
6920,4604,18028,3104,-1587,-12468,21000,-8000,71000,193562,
6992,4484,17860,3155,-1585,-12618,21000,-8000,71000,193565,
6544,3992,17928,3425,-1385,-13274,22000,-8000,70000,193577,
6536,4032,17948,3479,-1318,-13397,22000,-7000,70000,193579,
5924,3864,17928,3704,-1153,-14138,22000,-7000,69000,193592,
5824,3848,17948,3708,-1156,-14268,22000,-7000,68000,193594,
5524,3924,17996,3765,-1201,-14376,22000,-7000,68000,193596,
4880,4180,17808,3987,-1548,-14909,23000,-7000,67000,193608,
4620,4176,17676,4015,-1578,-14949,23000,-7000,66000,193611,
4576,4220,17768,4079,-1554,-15019,23000,-6000,66000,193613,
4112,3940,17876,4391,-1596,-15258,23000,-6000,65000,193625,
4024,3892,17724,4450,-1603,-15325,24000,-6000,65000,193627,
3728,3700,17516,4497,-1580,-15368,24000,-6000,64000,193630,
3040,3176,17236,4821,-1490,-15667,24000,-5000,63000,193642,
2984,3116,17376,4894,-1516,-15695,24000,-5000,63000,193644,
2876,3088,17432,4996,-1525,-15753,24000,-5000,62000,193646,
2404,3060,17376,5437,-1913,-16031,25000,-5000,61000,193659,
2184,3112,17444,5546,-2022,-16106,25000,-5000,61000,193661,
1976,3288,17536,5652,-2114,-16133,25000,-5000,60000,193663,
1084,3604,17876,6283,-2816,-16227,26000,-4000,59000,193676,
976,3616,17888,6432,-2932,-16193,26000,-4000,59000,193678,
828,3720,17824,6537,-3127,-16227,26000,-4000,58000,193680,
516,3832,17496,7112,-3739,-16262,27000,-4000,57000,193692,
492,3880,17596,7232,-3828,-16309,27000,-4000,57000,193695,
532,3772,17568,7300,-3942,-16326,27000,-4000,56000,193697,
1068,3996,17472,7758,-4384,-16725,28000,-3000,55000,193709,
1268,4144,17160,7828,-4393,-16855,28000,-3000,54000,193712,
1216,4188,17016,7826,-4374,-16949,28000,-3000,54000,193714,
612,4812,16688,8090,-4092,-17558,29000,-3000,52000,193726,
372,4944,16716,8100,-4050,-17644,29000,-2000,52000,193729,
72,4944,16544,8159,-4042,-17705,29000,-2000,52000,193731,
-1136,5156,16288,8469,-4086,-17811,30000,-2000,50000,193743,
-1484,5204,16272,8536,-4110,-17812,30000,-2000,50000,193746,
-1828,5200,16068,8879,-4754,-17643,31000,-1000,48000,193758,
-1876,5156,16060,8974,-4827,-17627,31000,-1000,48000,193760,
-1952,5112,16232,9074,-4928,-17623,31000,-1000,48000,193763,
-2156,5012,16296,9482,-5020,-17604,32000,0,46000,193775,
-2364,4888,16240,9522,-4933,-17620,32000,0,46000,193777,
-2584,4896,16320,9578,-4842,-17642,32000,0,45000,193779,
-3512,4568,16956,9979,-4404,-17490,33000,0,44000,193792,
-3648,4632,16760,10031,-4443,-17361,33000,0,43000,193794,
-3508,4648,16688,10014,-4496,-17346,33000,0,43000,193796,
-2920,4380,16252,10663,-5170,-17415,34000,0,42000,193808,
-2624,4380,15972,10712,-5331,-17493,34000,0,41000,193811,
-2568,4280,15688,10722,-5371,-17581,35000,0,41000,193813,
-2528,4496,15172,11191,-5049,-18135,35000,1000,39000,193825,
-2520,4576,15456,11240,-4878,-18194,36000,1000,39000,193827,
-2828,4640,15204,11315,-4764,-18280,36000,1000,39000,193829,
-4056,5508,14484,11618,-4150,-18512,37000,2000,37000,193842,
-4452,5704,14512,11736,-4035,-18509,37000,2000,37000,193844,
-4788,5732,14756,11830,-3971,-18475,37000,2000,37000,193846,
-6420,6440,14988,12447,-4613,-18121,38000,3000,35000,193859,
-6432,6408,15016,12566,-4690,-18069,38000,3000,35000,193861,
-6540,6536,15276,12738,-4824,-17975,38000,4000,34000,193863,
-5516,6352,15356,13687,-5718,-17919,40000,4000,33000,193876,
-5124,6284,15132,13814,-5894,-18028,40000,4000,32000,193878,
-4832,6196,14888,13944,-5905,-18128,40000,5000,32000,193880,
-4216,5788,13308,14285,-4384,-19010,41000,6000,30000,193893,
-4260,5880,13216,14297,-3920,-19134,41000,6000,30000,193895,
-6368,5664,12300,14189,-1336,-19082,42000,7000,29000,193907,
-7192,5712,12120,14157,-934,-18962,43000,7000,28000,193909,
-7532,5824,12120,14088,-594,-18802,43000,7000,28000,193912,
-9716,5936,11572,13897,141,-17687,44000,9000,27000,193924,
-9876,5916,11540,13945,45,-17455,44000,9000,27000,193926,
-9980,5964,11600,13961,-78,-17272,44000,9000,26000,193929,
-9404,5804,11320,14180,-1821,-16440,45000,10000,25000,193941,
-9140,6064,11384,14284,-2137,-16403,45000,11000,25000,193943,
-8792,6216,11500,14401,-2389,-16425,46000,11000,25000,193945,
-8080,7592,10828,14747,-3490,-16716,47000,12000,23000,193958,
-8104,7764,10780,14777,-3488,-16723,47000,12000,23000,193960,
-7980,7980,10576,14785,-3425,-16649,47000,12000,23000,193962,
-8760,8916,9784,14742,-2866,-16125,48000,13000,22000,193975,
-8924,8992,9832,14725,-2732,-15999,48000,13000,21000,193977,
-9448,9184,8912,14638,-2479,-15417,49000,15000,20000,193989,
-9556,9192,8756,14613,-2439,-15276,50000,15000,20000,193991,
-9536,9064,8624,14586,-2349,-15200,50000,15000,20000,193994,
-9760,9100,7744,14314,-2413,-14861,51000,16000,19000,194006,
-9928,9052,7884,14251,-2499,-14807,51000,16000,19000,194008,
-10088,8988,7516,14161,-2586,-14764,51000,16000,18000,194010,
-10736,9136,6800,13734,-2617,-14320,52000,18000,17000,194023,
-10904,9120,6700,13634,-2592,-14216,52000,18000,17000,194025,
-11200,9012,6592,13543,-2614,-14090,52000,18000,17000,194027,
-11716,9376,5336,12695,-2982,-13396,53000,19000,16000,194040,
-11992,9532,5384,12481,-3010,-13241,53000,19000,16000,194042,
-12380,10916,4824,11597,-2951,-12243,54000,20000,15000,194054,
-12364,11288,4612,11381,-2770,-11955,54000,20000,15000,194056,
-12316,11436,4352,11114,-2567,-11775,55000,20000,14000,194059,
-11996,11660,3860,9955,-1393,-10517,55000,21000,14000,194071,
-11916,11680,3800,9804,-1279,-10350,56000,21000,14000,194073,
-11828,11840,3848,9635,-1273,-10197,56000,22000,13000,194076,
-11428,12108,2944,8561,-985,-9633,56000,22000,13000,194088,
-11484,12200,2660,8303,-768,-9479,56000,23000,13000,194090,
-11388,12168,2788,8079,-522,-9324,57000,23000,13000,194092,
-11700,12272,2504,6993,194,-8404,57000,24000,12000,194105,
-11848,12244,2632,6768,210,-8258,57000,24000,12000,194107,
-12976,12244,3080,5790,148,-7151,58000,24000,12000,194119,
-13068,12076,3108,5671,4,-6958,58000,25000,12000,194122,
-13248,12076,3156,5539,-235,-6746,58000,25000,12000,194124,
-13756,11868,3792,4894,-2437,-5732,58000,25000,11000,194136,
-13708,11860,3904,4829,-2866,-5574,58000,25000,11000,194139,
-13700,11964,4084,4729,-3305,-5428,58000,25000,11000,194141,
-13000,11928,3824,4209,-5449,-4873,58000,26000,10000,194153,
-12660,11956,3784,4089,-5771,-4826,58000,26000,10000,194155,
-12492,11992,3572,4018,-6015,-4807,58000,26000,10000,194157,
-11652,12300,3160,3397,-6788,-4627,58000,26000,9000,194170,
-11544,12292,3068,3242,-6810,-4608,58000,26000,9000,194172,
-11376,12316,3268,3149,-6769,-4529,58000,26000,9000,194174,
-10972,12196,2652,2320,-5970,-4195,58000,26000,8000,194187,
-10896,12136,2792,2174,-5721,-4093,58000,26000,8000,194189,
-10772,12056,2960,2022,-5462,-4006,58000,26000,8000,194191,
-10876,11828,3620,1349,-4231,-3460,58000,26000,7000,194204,
-10816,11700,3684,1238,-4082,-3364,58000,26000,7000,194206,
-10848,11728,3768,1155,-3943,-3297,58000,26000,7000,194208,
-10844,11352,3996,677,-3266,-2959,58000,26000,7000,194220,
-10912,11500,3900,561,-3183,-2957,58000,26000,7000,194223,
-11104,11680,4252,196,-2829,-2813,58000,27000,6000,194235,
-11072,11788,4320,137,-2816,-2818,58000,27000,6000,194237,
-11064,11848,4576,118,-2834,-2797,58000,27000,6000,194239,
-10608,12272,4860,45,-2808,-2744,58000,27000,6000,194252,
-10428,12168,4972,48,-2740,-2728,58000,27000,6000,194254,
-10536,12184,5132,62,-2732,-2747,58000,27000,6000,194256,
-10300,12268,4360,-69,-2127,-2814,58000,27000,5000,194269,
-10240,12104,4264,-115,-1965,-2854,58000,27000,5000,194271,
-10372,12176,4332,-147,-1752,-2804,58000,27000,5000,194273,
-11276,12232,3968,-422,-971,-2598,58000,27000,5000,194286,
-11476,12024,4076,-478,-898,-2502,58000,27000,5000,194288,
-11608,12100,4044,-622,-767,-2355,58000,27000,5000,194290,
-11272,11976,4580,-813,-679,-1769,58000,28000,5000,194302,
-11148,11996,4928,-779,-858,-1821,58000,28000,5000,194305,
-11004,12132,5192,-769,-982,-1854,58000,28000,5000,194307,
-10804,12372,5156,-673,-1541,-2159,57000,28000,4000,194319,
-10812,12432,5332,-677,-1476,-2185,57000,28000,4000,194322,
-10820,12460,5320,-647,-1349,-2124,57000,28000,4000,194324,
-10672,12684,4992,-749,-295,-1904,57000,28000,4000,194336,
-10708,12664,4956,-794,-130,-1861,57000,28000,4000,194338,
-10732,12692,4860,-882,66,-1799,57000,28000,4000,194340,
-11028,12432,4172,-1313,1210,-1277,57000,28000,4000,194353,
-11032,12352,4328,-1349,1351,-1213,57000,29000,4000,194355,
-11000,12352,4308,-1424,1521,-1147,57000,29000,4000,194357,
-11200,12132,4484,-1749,1769,-933,57000,29000,5000,194370,
-11304,12144,4324,-1766,1719,-924,57000,29000,5000,194372,
-11372,12120,4696,-1828,1680,-874,57000,29000,5000,194374,
-11412,12304,4404,-1959,1243,-555,57000,29000,5000,194387,
-11484,12432,4320,-1958,1200,-494,57000,29000,5000,194389,
-11536,12396,4352,-1974,1193,-451,57000,29000,5000,194391,
-11464,12248,5148,-2000,1190,-13,57000,29000,5000,194403,
-11400,12284,5296,-1976,1138,51,57000,29000,5000,194405,
-11288,12208,5160,-1975,1092,123,57000,29000,5000,194408,
-11036,11892,5584,-2005,1298,335,57000,29000,5000,194420,
-10976,11820,5564,-2038,1365,368,57000,29000,5000,194422,
-10888,11764,5652,-2054,1407,374,57000,29000,5000,194424,
-10864,11848,5344,-2339,1931,307,57000,30000,5000,194437,
-10764,11812,5460,-2393,2096,292,57000,30000,5000,194439,
-10872,11832,5304,-2430,2231,280,57000,30000,5000,194441,
-11160,11936,5052,-2764,3005,375,57000,30000,6000,194454,
-11140,12028,4808,-2818,3078,412,57000,30000,6000,194456,
-11224,11936,4696,-2860,3234,455,57000,30000,6000,194458,
-11572,11852,4228,-3195,3823,872,57000,30000,6000,194471,
-11580,11764,4216,-3260,3922,923,57000,30000,6000,194473,
-11564,11828,4272,-3363,4065,1003,57000,30000,6000,194476,
-11616,11536,4648,-3684,4622,1349,57000,30000,7000,194488,
-11496,11520,4544,-3709,4673,1417,57000,30000,7000,194490,
-11660,11464,4696,-3753,4755,1506,57000,30000,7000,194492,
-11516,11524,4888,-3894,5007,1787,57000,31000,8000,194505,
-11732,11620,4824,-3935,5093,1827,57000,31000,8000,194507,
-11672,11676,4984,-3936,5174,1865,57000,31000,8000,194509,
-11916,11260,4996,-4052,5719,2123,57000,31000,9000,194522,
-11860,11284,5292,-4129,5769,2164,57000,31000,9000,194524,
-11832,11144,5308,-4143,5849,2161,57000,31000,9000,194526,
-11752,10912,5140,-4226,6220,2358,57000,31000,10000,194539,
-11724,10892,5028,-4233,6212,2351,57000,31000,10000,194541,
-11820,10864,5132,-4203,6266,2357,57000,31000,10000,194543,
-11704,11016,4448,-4360,6677,2389,57000,32000,11000,194556,
-11824,10896,4316,-4379,6781,2385,57000,32000,11000,194558,
-11816,11016,4304,-4403,6994,2412,57000,32000,11000,194560,
-12060,11068,5128,-4491,7910,2614,57000,32000,12000,194573,
-12112,11080,5048,-4491,8048,2646,57000,32000,12000,194575,
-11928,11120,5360,-4498,8193,2695,57000,32000,12000,194577,
-11776,11096,5596,-4513,9396,2774,57000,32000,13000,194589,
-11812,10972,5716,-4561,9669,2770,57000,32000,14000,194592,
-11800,10908,5536,-4603,10028,2776,57000,32000,14000,194594,
-11872,10800,5184,-5012,11797,2767,57000,33000,15000,194607,
-11940,10872,5016,-5099,12041,2741,57000,33000,15000,194609,
-12056,10884,5008,-5181,12223,2766,57000,33000,16000,194611,
-12816,10784,4484,-5579,12664,2940,58000,34000,17000,194624,
-12876,10784,4188,-5721,12667,3019,58000,34000,17000,194626,
-13076,10796,4016,-5801,12651,3125,58000,34000,18000,194628,
-13672,10700,2888,-6526,12446,3496,58000,34000,19000,194640,
-13796,10732,2832,-6720,12393,3613,58000,34000,19000,194643,
-14368,10540,2272,-7551,12201,4552,58000,35000,21000,194655,
-14492,10632,2340,-7715,12110,4763,58000,35000,21000,194658,
-14536,10492,2204,-7892,11946,4937,58000,35000,22000,194660,
-14988,10252,2836,-8738,11003,5851,58000,35000,23000,194672,
-15008,10212,3176,-8885,10818,6000,58000,35000,23000,194675,
-14956,10112,3328,-9041,10640,6134,58000,35000,24000,194677,
-14860,9904,3240,-9847,9997,6845,58000,35000,25000,194689,
-14824,9864,3016,-9986,10015,6948,58000,35000,25000,194691,
-14924,9660,3128,-10186,10047,7066,58000,35000,26000,194694,
-14928,9076,3356,-11174,10076,7728,58000,35000,27000,194706,
-14884,9056,3552,-11340,9968,7881,58000,35000,27000,194708,
-14928,8936,3724,-11494,9868,7989,58000,35000,28000,194711,
-14416,8592,5244,-12056,8730,8601,58000,35000,29000,194723,
-14284,8820,5440,-12087,8430,8726,58000,35000,29000,194725,
-14040,8816,5704,-12119,8154,8772,58000,35000,29000,194728,
-13196,9276,6104,-12142,7372,9162,57000,35000,31000,194740,
-13064,9324,6108,-12136,7435,9249,57000,34000,31000,194743,
-13060,9448,6120,-12145,7547,9363,57000,34000,31000,194745,
-13144,8940,5092,-12501,9161,9923,57000,34000,33000,194757,
-13212,8832,5064,-12626,9564,10031,57000,34000,33000,194759,
-13328,8556,4604,-12741,10012,10113,57000,34000,33000,194762,
-14048,7548,4264,-13681,12057,10459,56000,34000,35000,194774,
-14132,7428,4696,-13852,12227,10551,56000,34000,36000,194776,
-13368,7032,6788,-14213,11130,10707,56000,34000,37000,194789,
-13164,7132,6972,-14175,10652,10648,56000,34000,38000,194791,
-12908,7224,7136,-14158,10174,10637,56000,34000,38000,194793,
-12232,7992,6828,-14062,9269,10596,55000,34000,39000,194806,
-12040,8220,6644,-14130,9391,10637,55000,34000,40000,194808,
-12260,8220,6420,-14229,9539,10704,55000,34000,40000,194810,
-12340,8292,6088,-14685,10994,11369,55000,33000,42000,194823,
-12456,8100,5960,-14768,11288,11521,55000,33000,42000,194825,
-12728,7944,5904,-14892,11540,11656,55000,33000,42000,194827,
-13440,7376,5612,-15845,13094,12511,54000,33000,44000,194840,
-13484,7028,5848,-15996,13251,12631,54000,33000,45000,194842,
-13260,6428,8392,-16164,11023,12706,54000,33000,47000,194854,
-13028,6456,8716,-16162,10356,12730,53000,33000,47000,194856,
-12496,6456,9248,-16087,9682,12718,53000,33000,47000,194859,
-10628,7416,10308,-15659,7770,12677,53000,32000,49000,194871,
-10176,7504,10436,-15544,7767,12652,52000,32000,49000,194874,
-10120,7580,10308,-15478,7855,12604,52000,32000,49000,194876,
-9760,7724,9616,-15421,9237,12379,52000,32000,51000,194888,
-9900,7624,9336,-15499,9635,12417,52000,32000,51000,194891,
-10000,7420,9264,-15567,10025,12425,51000,32000,52000,194893,
-10972,6744,7380,-16437,11915,12864,51000,31000,53000,194905,
-11104,6620,7416,-16603,12198,12939,51000,31000,54000,194907,
-11896,5796,10620,-17032,12031,13563,50000,31000,56000,194920,
-11532,5832,11296,-16991,11366,13655,50000,31000,56000,194922,
-11240,5800,11916,-16893,10611,13638,50000,31000,56000,194924,
-8860,6624,13216,-15998,6523,13113,49000,31000,58000,194937,
-8536,6752,13388,-15897,6144,13011,49000,30000,58000,194939,
-8344,6988,13092,-15779,5986,12916,49000,30000,58000,194941,
-8400,7652,12228,-15619,7113,12912,48000,30000,60000,194954,
-8352,7792,12216,-15670,7510,12955,48000,30000,60000,194956,
-8420,7720,12012,-15708,7873,13065,48000,30000,60000,194958,
-8916,7320,12852,-16109,9463,13567,47000,29000,62000,194971,
-8908,7124,13088,-16076,9544,13665,47000,29000,62000,194973,
-6932,6520,14984,-15466,7436,13634,46000,29000,64000,194985,
-6228,6560,15312,-15281,6955,13437,46000,29000,64000,194988,
-5908,6464,15284,-15140,6524,13320,46000,29000,64000,194990,
-4936,6784,14844,-14587,5451,12295,45000,28000,66000,195002,
-4896,6972,14524,-14603,5516,12182,44000,28000,66000,195004,
-4936,7212,14388,-14585,5588,12152,44000,28000,66000,195006,
-5804,7816,13856,-14750,6613,12252,44000,28000,68000,195019,
-6020,7748,13816,-14800,6788,12328,43000,28000,68000,195021,
-6264,7796,13724,-14885,6963,12427,43000,27000,68000,195023,
-7108,7372,16688,-14548,6020,13093,42000,27000,70000,195036,
-6932,7332,17140,-14332,5373,13170,42000,27000,70000,195038,
-4360,6604,19268,-12466,683,12834,41000,26000,71000,195050,
-3992,6432,19384,-12079,-74,12686,41000,26000,71000,195052,
-3236,6332,19576,-11730,-836,12487,41000,26000,71000,195055,
-752,6420,19656,-9946,-3332,11445,40000,25000,72000,195067,
-336,6604,19364,-9683,-3369,11301,40000,24000,72000,195069,
124,6588,19168,-9477,-3309,11093,40000,24000,72000,195071,
992,7012,18468,-8582,-1525,10147,39000,23000,73000,195084,
1100,7056,18712,-8492,-1176,9951,39000,23000,73000,195086,
1088,7168,18644,-8389,-783,9776,39000,23000,73000,195088,
1000,7376,18680,-7755,734,8821,39000,22000,73000,195101,
980,7360,18756,-7569,931,8673,38000,22000,74000,195103,
972,7412,18636,-7464,1061,8492,38000,22000,74000,195105,
876,7264,19424,-6536,1244,7535,38000,22000,74000,195117,
792,7260,19672,-6302,1176,7367,38000,22000,74000,195119,
884,7116,19916,-6102,1058,7174,38000,22000,75000,195122,
1716,7296,19944,-4956,277,6270,37000,21000,75000,195134,
1752,7272,19876,-4793,269,6104,37000,21000,75000,195136,
1904,7220,19884,-4610,281,5948,37000,21000,75000,195138,
2464,7456,19180,-3860,1215,4950,37000,21000,76000,195151,
2360,7496,19004,-3788,1490,4783,37000,20000,76000,195153,
2244,7692,18844,-3680,1781,4619,37000,20000,76000,195155,
1504,8048,18380,-3350,3127,3898,37000,20000,76000,195168,
1344,7984,18312,-3232,3247,3753,37000,20000,76000,195170,
1204,8048,18344,-3096,3272,3601,37000,20000,76000,195172,
724,7908,18052,-2381,2727,2715,36000,20000,77000,195184,
704,7788,17516,-2223,2562,2545,36000,20000,77000,195187,
656,7844,17276,-2165,2395,2390,36000,20000,77000,195189,
356,7652,16332,-1693,1972,1590,36000,20000,77000,195201,
264,7708,16316,-1626,1938,1482,36000,20000,77000,195203,
364,7788,16140,-1552,1920,1393,36000,20000,77000,195206,
8,8452,15488,-1246,1618,706,36000,20000,77000,195218,
-196,8496,15556,-1221,1535,554,36000,20000,77000,195220,
-12,8696,15224,-1200,1541,417,36000,20000,77000,195222,
-840,8956,14760,-982,2028,-303,36000,20000,77000,195235,
-956,9012,14772,-958,2063,-430,36000,20000,77000,195237,
-1128,9004,14564,-897,2092,-560,36000,20000,77000,195239,
-1528,8612,14424,-678,2043,-1237,36000,20000,78000,195252,
-1528,8576,14416,-676,2061,-1373,36000,20000,78000,195254,
-1556,8468,14244,-698,2113,-1460,36000,20000,78000,195256,
-2124,8460,14232,-714,2712,-1894,36000,21000,77000,195268,
-2168,8540,14212,-736,2825,-1921,36000,21000,77000,195271,
-2308,8568,14268,-784,2971,-1999,36000,21000,77000,195273,
-3364,9244,13836,-952,3700,-2130,35000,21000,78000,195285,
-3712,9344,13876,-977,3780,-2124,35000,21000,78000,195287,
-3992,9412,13832,-1006,3878,-2121,35000,21000,78000,195290,
-5000,9524,13472,-894,3538,-1975,35000,21000,78000,195302,
-5040,9512,13476,-897,3371,-1966,35000,21000,78000,195304,
-5344,9452,13484,-891,3208,-1947,35000,22000,78000,195306,
-5740,9212,13016,-807,2156,-1589,35000,22000,78000,195319,
-5736,9308,13060,-798,1985,-1513,35000,22000,78000,195321,
-5536,9268,12916,-749,1776,-1467,35000,22000,78000,195323,
-5156,8940,12732,-665,1010,-1312,35000,22000,78000,195336,
-5008,8852,12748,-653,924,-1321,35000,22000,78000,195338,
-5112,8924,12832,-686,839,-1349,35000,22000,78000,195340,
-5460,9108,12376,-825,597,-1444,35000,22000,77000,195352,
-5604,9112,12388,-845,535,-1397,35000,22000,77000,195354,
-5604,9212,12428,-892,505,-1390,35000,22000,77000,195357,
-6296,9564,12716,-949,206,-1186,35000,22000,77000,195369,
-6336,9608,12856,-961,95,-1154,35000,22000,77000,195371,
-6468,9652,12844,-964,-26,-1118,35000,22000,77000,195373,
-5932,9680,12752,-880,-1016,-1085,35000,22000,77000,195386,
-6048,9636,12764,-889,-1109,-1102,35000,22000,77000,195388,
-5900,9648,12792,-902,-1249,-1130,35000,22000,77000,195390,
-5272,9444,12528,-964,-1610,-1323,34000,22000,77000,195402,
-5204,9592,12420,-988,-1649,-1325,34000,22000,77000,195405,
-5124,9532,12368,-1014,-1638,-1350,34000,22000,77000,195407,
-5140,9700,12488,-1193,-1273,-1238,34000,22000,77000,195419,
-5192,9704,12552,-1238,-1165,-1247,34000,22000,77000,195421,
-5156,9688,12376,-1295,-1074,-1173,34000,22000,77000,195424,
-5200,10096,12528,-1489,-962,-888,34000,22000,76000,195436,
-5408,10168,12400,-1505,-967,-841,34000,22000,76000,195438,
-5356,10324,12608,-1527,-922,-646,34000,22000,76000,195451,
-5328,10428,12532,-1548,-910,-625,34000,22000,76000,195453,
-5356,10476,12740,-1518,-903,-622,34000,22000,76000,195455,
-5508,10488,12796,-1447,-1051,-641,34000,22000,76000,195468,
-5520,10420,12876,-1392,-1059,-664,34000,22000,76000,195470,
-5552,10244,12760,-1378,-1088,-663,34000,22000,76000,195472,
-5424,9912,12956,-1325,-1059,-717,33000,22000,76000,195485,
-5516,10036,12928,-1289,-1026,-726,33000,22000,76000,195487,
-5388,9976,13076,-1262,-1053,-735,33000,22000,76000,195489,
-5336,9764,13272,-1118,-1288,-751,33000,22000,76000,195501,
-5212,9744,13304,-1090,-1329,-761,33000,22000,76000,195503,
-5200,9884,13312,-1044,-1339,-710,33000,22000,76000,195506,
-5072,10116,12952,-923,-1440,-716,33000,21000,76000,195518,
-4956,10116,13016,-879,-1346,-691,33000,21000,76000,195520,
-5004,10316,13188,-898,-1302,-676,33000,21000,76000,195523,
-5308,10348,13036,-835,-838,-551,33000,21000,76000,195535,
-5300,10316,12992,-808,-797,-490,33000,21000,76000,195537,
-5220,10296,12960,-793,-793,-462,33000,21000,76000,195539,
-5364,10124,13100,-653,-708,-440,33000,21000,76000,195552,
-5376,10020,13152,-616,-728,-442,33000,21000,75000,195554,
-5444,9912,13440,-410,-901,-417,33000,21000,75000,195566,
-5320,9764,13376,-389,-919,-416,33000,21000,75000,195568,
-5300,9828,13484,-338,-990,-429,33000,21000,75000,195571,
-5040,9744,13468,-162,-1114,-481,33000,21000,75000,195583,
-5184,9800,13676,-117,-1094,-502,33000,21000,75000,195585,
-5068,9808,13484,-98,-1040,-492,33000,21000,75000,195588,
-5136,10140,13340,-26,-838,-486,33000,21000,75000,195600,
-5200,10144,13248,22,-793,-504,33000,21000,75000,195602,
-5100,10204,13256,31,-786,-474,33000,21000,75000,195605,
-5112,10316,13224,174,-664,-473,33000,21000,75000,195617,
-5092,10240,12976,215,-680,-479,33000,21000,75000,195619,
-5068,10296,13212,222,-674,-497,33000,21000,75000,195621,
-4744,10056,12764,333,-463,-517,33000,21000,75000,195634,
-4744,10060,12696,348,-401,-520,33000,21000,75000,195636,
-4640,10104,12728,323,-404,-538,33000,21000,75000,195638,
-4944,9868,12460,345,-106,-586,33000,21000,75000,195651,
-4864,9868,12544,346,-42,-603,33000,21000,75000,195653,
-5044,9900,12492,333,-5,-578,33000,21000,75000,195655,
-5252,10060,12200,313,207,-559,33000,21000,75000,195667,
-5216,10088,12388,332,224,-561,33000,21000,75000,195670,
-5344,9988,12316,323,254,-547,33000,21000,75000,195672,
-5300,10068,12268,340,206,-571,33000,21000,75000,195684,
-5460,10128,12204,331,201,-571,33000,21000,75000,195687,
-5348,10056,12228,342,213,-595,33000,21000,75000,195689,
-5404,9908,11992,246,406,-566,33000,21000,75000,195701,
-5300,9916,11828,224,452,-567,33000,21000,75000,195703,
-5460,9764,12004,232,484,-535,33000,21000,75000,195706,
-5344,9796,12272,259,401,-499,33000,21000,75000,195718,
-5264,9792,12364,264,364,-490,33000,21000,75000,195720,
-5232,9764,12436,292,363,-475,33000,21000,75000,195723,
-5200,9624,12512,305,438,-497,33000,21000,75000,195735,
-5224,9668,12416,289,441,-506,33000,21000,75000,195737,
-5232,9788,12428,283,427,-515,33000,21000,75000,195740,
-5236,9716,12312,340,131,-482,33000,21000,75000,195752,
-5272,9772,12276,323,82,-467,33000,21000,75000,195754,
-5348,9864,12260,319,30,-486,33000,21000,75000,195757,
-5336,10000,11936,261,-39,-406,33000,21000,75000,195769,
-5444,9996,11488,200,-48,-379,33000,21000,75000,195771,
-5452,10036,11464,153,-63,-387,33000,21000,75000,195773,
-5744,10108,11512,43,-50,-215,33000,21000,75000,195786,
-5796,10152,11616,7,-74,-179,33000,21000,75000,195788,
-5904,10008,11636,-14,-110,-130,33000,21000,75000,195790,
-5584,9956,11844,-30,-472,18,33000,21000,75000,195803,
-5404,10068,11980,-12,-543,8,33000,21000,75000,195805,
-5344,9936,11924,-31,-580,41,33000,21000,75000,195807,
-4796,9836,12016,-45,-561,-115,33000,21000,75000,195820,
-4972,9924,12136,-51,-534,-159,33000,21000,75000,195822,
-4784,9848,11996,-54,-503,-211,33000,21000,75000,195824,
-4676,10044,11960,-137,-81,-440,33000,21000,75000,195836,
-4736,10108,11888,-183,0,-491,33000,21000,75000,195839,
-4848,10112,11960,-182,93,-485,33000,21000,75000,195841,
-5224,10196,12048,-272,373,-504,33000,21000,75000,195853,
-5420,10192,12088,-299,376,-474,33000,21000,75000,195855,
-5380,10228,12064,-283,350,-453,33000,21000,75000,195857,
-5600,10152,11816,-366,24,-350,33000,21000,75000,195870,
-5748,10128,11808,-330,-5,-335,33000,21000,75000,195872,
-5732,10068,11932,-334,22,-319,33000,21000,75000,195874,
-5484,9984,12172,-292,-28,-269,33000,21000,75000,195887,
-5296,10052,12124,-288,-60,-260,33000,21000,75000,195889,
-5224,9828,11988,-272,-70,-252,33000,21000,75000,195891,
-5160,9808,12212,-279,158,-306,33000,21000,75000,195903,
-5140,9780,12172,-320,227,-279,33000,21000,75000,195906,
-5116,9676,12172,-313,313,-307,33000,21000,75000,195908,
-4992,9764,12380,-329,503,-437,33000,21000,75000,195920,
-4916,9812,12196,-330,506,-463,33000,21000,75000,195922,
-4968,9776,12176,-351,562,-479,33000,21000,75000,195925,
-5156,10104,12412,-439,588,-562,33000,21000,75000,195937,
-5248,10084,12224,-448,549,-544,33000,21000,75000,195939,
-5284,10188,12252,-443,536,-557,33000,21000,75000,195941,
-5432,10216,12252,-359,454,-373,33000,21000,75000,195954,
-5620,10308,12400,-358,458,-356,33000,21000,75000,195956,
-5504,10160,12204,-361,430,-286,33000,21000,75000,195958,
-5500,10012,12236,-347,324,-111,33000,21000,75000,195971,
-5380,9860,12368,-346,308,-105,33000,21000,75000,195973,
-5396,9856,12480,-353,224,-104,33000,21000,75000,195975,
-5080,9688,12496,-327,129,-177,33000,21000,75000,195987,
-5012,9764,12656,-368,104,-272,33000,21000,75000,195989,
-5072,9824,12716,-360,176,-272,33000,21000,75000,195992,
-5204,10148,12696,-447,322,-500,33000,21000,75000,196004,
-5088,10112,12540,-444,338,-513,33000,21000,75000,196006,
-5292,10040,12624,-451,353,-538,33000,21000,75000,196009,
-5616,10188,12736,-515,227,-452,33000,21000,75000,196021,
-5532,10124,12812,-503,185,-440,33000,21000,75000,196023,
-5616,10264,12668,-533,141,-431,33000,21000,75000,196026,
-5460,10024,12312,-574,-149,-187,33000,21000,75000,196038,
-5372,9880,12332,-561,-195,-188,33000,21000,75000,196040,
-5372,9940,12436,-578,-306,-162,33000,21000,75000,196042,
-5008,9868,12136,-599,-208,-120,33000,21000,75000,196055,
-5028,9956,12392,-631,-172,-80,33000,21000,75000,196057,
-5064,9876,12392,-600,-124,-107,33000,21000,75000,196059,
-5152,9744,12652,-606,-108,-128,33000,21000,75000,196072,
-5248,9940,12644,-588,-144,-120,33000,21000,75000,196074,
-5164,9868,12700,-585,-124,-131,33000,21000,75000,196076,
-5244,9588,12928,-489,-163,-245,33000,21000,75000,196089,
-5180,9636,12816,-476,-169,-268,33000,21000,75000,196091,
-5120,9652,12856,-442,-210,-330,33000,21000,75000,196093,
-4952,9724,12560,-466,-148,-473,33000,21000,74000,196105,
-4884,9780,12640,-456,-155,-483,33000,21000,74000,196108,
-4992,9712,12688,-440,-112,-498,33000,21000,74000,196110,
-5136,9964,12448,-505,-76,-433,33000,21000,74000,196122,
-5196,10008,12580,-498,-59,-433,33000,21000,74000,196125,
-5292,10020,12464,-531,-72,-407,33000,21000,74000,196127,
-5592,10044,12576,-501,-150,-245,33000,21000,74000,196139,
-5532,10056,12516,-483,-185,-209,33000,21000,74000,196142,
-5536,9992,12548,-481,-173,-173,33000,21000,74000,196144,
-5392,9788,12452,-401,-270,-50,33000,21000,74000,196156,
-5328,9804,12432,-393,-291,-41,33000,21000,74000,196158,
-5320,9556,12564,-383,-257,-42,33000,21000,74000,196161,
-4960,9516,12720,-305,-188,-197,33000,21000,74000,196173,
-5080,9592,12672,-299,-148,-246,33000,21000,74000,196175,
