Ax,Ay,Az,Gx,Gy,Gz,Roll,Pitch,Yaw,Timestamp,Target
-3100,520,16612,-107,-86,-62,-4000,13000,214000,1949200,
-3128,716,16768,-12,-95,-19,-4000,13000,951045,0,
-3104,700,16688,19,-88,-11,-4000,13000,214000,1949215,
-3060,656,16644,56,-43,-39,-4000,13000,214000,1949217,
-2964,844,16948,43,-61,9,-4000,13000,214000,1949230,
-2932,804,16920,80,-45,8,-4000,13000,214000,1949232,
-3020,808,17076,98,-74,22,-4000,13000,214000,1949234,
-2836,736,17040,101,-37,25,-4000,13000,214000,1949237,
-2816,736,17496,248,40,95,-4000,13000,214000,1949249,
-2812,708,17732,269,74,128,-4000,13000,214000,1949252,
-2548,976,186321612,1404,16656,-1157,314,437,3000,9000,
-2264,1160,20176,1339,-4616744,-975,589,415,2000,9000,
-2208,1376,20708,1431,-758,273008,3528,15776,690,47,
-2772,2808,1,15504,631,306,-1470,6000,14000,217000,
-1620,2112,15260,1994,109,1041,100765,-1392,6000,14000,
-1000,844,24620,6274,1205,-404,-2000,12000,214000,1949338,
-976,968,24768,6584,1589,-482,-1000,12000,214000,1949341,
-2292,1116,25760,8802,3721,-15,-1000,12000,214000,1949356,
-2580,1140,25780,9186,3963,96,0,13000,214000,1949358,
-3944,1096,25948,10956,4812,640,0,13000,214000,1949371,
-4196,1024,25988,11326,4848,806,0,13000,214000,1949373,
-4596,1064,26180,11756,4900,899,0,13000,214000,1949376,
-5940,1020,25544,13674,4525,1928,2000,14000,215000,1949388,
-6044,1168,25452,14168,4384,2098,2000,14000,215000,1949390,
-6132,1032,25484,14404,4119,2266,2000,14000,215000,1949393,
-6040,1164,25152,16614,4048,2648,4000,14000,215000,1949405,
-6120,1388,25116,16985,4089,2695,4000,14000,215000,1949408,
-6528,1544,24348,17545,3098,2632,4000,14000,215000,1949410,
-7264,1456,24024,19145,1458,3192,6000,14000,215000,1949423,
-7220,1704,23832,19571,1300,3441,7000,14000,216000,1949425,
-7188,1812,23708,19795,1070,3674,0,0,0,1949425,
-6792,2576,22516,21591,-480,4930,1,6000,15000,216000,
-6476,2672,21168,23229,-1678,5775,12000,14000,217000,1949457,
-6252,2668,20792,23476,-1644,5902,13000,14000,217000,1949460,
-5512,3572,19164,25116,-1790,6866,0,0,0,1949460,
-5884,3252,18524,26028,-2935,6896,19000,13000,218000,1949492,
-5796,3372,18244,26083,-2954,7028,0,0,0,1949492,
-6068,3332,17780,26338,-3222,7200,20000,13000,219000,1949497,
-5880,3856,16708,27080,-4533,8136,0,0,0,1949497,
-5840,3844,16552,27284,-4692,8326,24000,12000,219000,1949512,
-4556,4568,15424,28268,-5385,9383,28000,11000,220000,1949532,
-4120,4972,14232,28865,-5973,9102,31000,10000,221000,1949544,
-3972,4944,14140,28991,-5934,9160,31000,10000,221000,1949547,
-3704,5048,13916,29231,-5662,9153,32000,9000,221000,1949549,
-3788,5256,12756,29803,-67,35000,8000,221000,1949562,0,
-3404,5400,11136,30762,-8047,9452,39000,7000,222000,1949581,
-2600,5956,10056,31217,-8789,9531,42000,6000,222000,1949594,
-2232,6064,10004,31259,-8900,9486,43000,5000,222000,1949596,
-2076,6036,9736,31467,-9029,9464,43000,5000,222000,1949599,
-980,6448,8768,31588,-8288,9506,46000,4000,222000,1949611,
-936,6284,8920,31611,-8406,9299,470000,-2219,-407,1102,
216,6732,7492,31376,-7361,8500,50000,2000,222000,1949629,
56,6832,7508,31458,-7336,8446,51000,2000,222000,1949631,
448,6884,6936,31590,-7173,8319,52000,2000,222000,1949633,
648,7008,6240,31542,-6138,8311,55000,1000,222000,1949646,
824,7320,5796,31474,-5556,8317,56000,0,222000,1949651,
384,7416,4960,31649,-5269,7983,59000,0,222000,1949663,
284,7576,5176,31472,-5096,7947,59000,0,222000,1949666,
-12,7544,5168,31598,-5157,7954,60000,0,222000,1949668,
-296,7488,4984,31606,-5328,7910,60000,0,222000,1949670,
-72,8088,4476,31404,-5799,7801,63000,-1000,222000,1949683,
-88,8308,4216,31208,-5672,7750,64000,-1000,221000,1949685,
-36,7992,4280,31173,-5836,7758,65000,-1000,221000,1949688,
68,7948,2980,30929,-6266,7622,68000,-2000,221000,1949700,
152,8020,2892,30919,-6248,7638,68000,-2000,221000,1949703,
1572,8096,740,30224,-5314,7036,76000,-5000,220000,1949735,
980,8152,-1028,29550,-5410,6779,81000,-6000,220000,1949755,
896,8288,-1112,29466,-5427,6731,81000,-6000,220000,1949757,
940,8320,-1936,29003,-5866,6505,84000,-7000,219000,1949770,
728,8252,-2256,28828,-6055,6442,85000,-7000,219000,1949772,
856,8384,-2416,28644,-6165,6391,85000,-7000,219000,1949775,
1180,8716,-3780,27960,-64,-4046,2805,8000,10000,220000,
1432,8588,-4176,277113006,-4645,3256,10000,9000,221000,1956126,
2832,9288,-7132,25695,-5684,5591,96000,-9000,216000,1949822,
3036,9108,-7728,25219,-5655,5502,97000,-9000,216000,1949827,
3452,9680,-9152,23796,-5493,5101,100000,-10000,215000,1949842,
3324,9708,-9456,23605,-5538,4986,101000,-10000,215000,1949844,
3728,10096,-10672,22042,-5352,4430,103000,-10000,215000,1949857,
3888,10272,-11168,21787,-5357,4356,104000,-10000,215000,1949859,
4613736,19968,-6246,5803,17000,6000,0,0,0,1949859,
4924,10956,-12784,19166,-4156,3824,107000,-11000,214000,1949876,
5812,11676,-14100,16992,-1851,3354,109000,-11000,213000,1949889,
5952,11824,-14380,16488,-1331,3221,109000,-11000,213000,1949891,
6152,11800,-14416,16092,-729,3076,109000,-11000,213000,1949894,
7052,12564,-15560,13417,2392,2279,111000,-11000,214000,1949907,
7148,12616,-15448,12953,3070,2141,111000,-11000,214000,1949909,
7088,12696,-15740,12401,3506,1950,111000,-11000,214000,1949911,
7196,13144,-16444,9684,5960,1315,112000,-12000,214000,1949924,
6996,13164,-16572,9051,6225,1266,13376,16776,30337,-6936,
6236,13532,-16696,1752,6484,-49,113000,-13000,215000,1949956,
6228,13652,-16788,1142,6385,-208,113000,-13000,216000,1949959,
6120,13500,-16656,618,6089,-305,113000,-13000,216000,1949961,
5896,13524,-16560,-2455,4702,-898,113000,-13000,216000,1949974,
6024,13580,-16440,-2990,4339,-967,113000,-13000,216000,1949976,
6176,13496,-16332,-3568,4056,-1071,113000,-13000,216000,1949978,
6432,13536,-15844,-6308,2984,-1461,113000,-13000,217000,1949991,
6676,13476,-15752,-6821,2899,-1551,112000,-13000,217000,1949993,
6884,1337,-7427,7967,44000,-2000,0,0,0,1949993,
7164,13036,-15508,-9579,3252,-2233,112000,-13000,217000,1950008,
7956,19,55000,-5000,225000,1956350,0,0,0,1950008,
7996,12704,-15056,-12836,5151,-3065,110000,-13000,218000,1950028,
8236,12616,-14396,-15384,7893,-4300,108000,-13000,219000,1950043,
7380,12124,-13696,-17624,9906,-5643,106000,-13000,220000,1950056,
6772,12032,-13396,-18757,9962,-6087,106000,-13000,220000,1950061,
6888,11740,-12624,-21082,11647,-7061,103000,-12000,221000,1950073,
6840,11800,-12548,-21539,11810,-7326,103000,-12000,222000,1950076,
5052,10844,-11168,-24362,11947,-8644,100000,-12000,223000,1950091,
5044,10988,-10920,-24876,11506,-8730,100000,-12000,223000,1950093,
4576,9576,-9408,-29363,11750,-10233,94000,-10000,226000,1950121,
4532,9608,-9272,-29787,11664,-10437,93000,-10000,226000,1950123,
4468,9384,-9016,-30217,11770,-10714,92000,-10000,227000,1950126,
4384,8664,-8036,-32173,11936,-11733,89000,-9000,228000,1950138,
4504,8536,-7872,-32611,11967,-11919,89000,-8000,228000,1950141,
4388,8320,-7320,-32768,11877,-12131,88000,-8000,228000,1950143,
3972,7600,-6072,-32768,11703,-12751,85000,-7000,229000,1950156,
3776,7416,-5776,-32768,11622,-12731,85000,-7000,229000,1950158,
3536,6656,-4424,-32768,11595,-2,-12332,4729,88000,-12000,
3368,6648,-4184,-3276840,30973,-12744,3528,93000,-13000,219000,
2680,6016,-2656,-32768,11650,-14487,77000,-3000,232000,1950191,
920,4680,1380,-32768,11693,-15465,69000,0,233000,1950221,
648,4396,1880,-32768,11586,-15552,69000,0,233000,1950223,
580,4256,2396,-32768,11467,-15610,68000,0,233000,1950225,
0,0,0,0,0,0,68000,0,233000,1950225,
0,0,0,0,0,0,68000,0,233000,1950225,
-2576,3312,4832,-32768,9381,-14824,60000,5000,234000,1950255,
-2892,3272,5280,-32768,9267,-14834,60000,5000,234000,1950258,
-3084,3312,5644,-32768,9141,-14871,59000,5000,234000,1950260,
-4196,3652,7768,-32768,8133,-14874,56000,7000,234000,1950273,
-4268,3592,8140,-32768,7902,-14897,55000,7000,234000,1950275,
-4472,3636,8508,-32768,7417,-14815,54000,8000,234000,1950278,
-5448,3572,10620,-32768,4402,-14435,51000,9000,233000,1950290,
-5584,3448,10852,-32768,3673,-14221,50000,10000,233000,1950292,
-7696,2484,14304,-32768,-5864,-10962,41000,12000,231000,1950325,
-7772,2516,14432,-32768,-6462,-10766,41000,12000,230000,1950327,
-7560,2308,15968,-32768,-9839,-9915,37000,12000,229000,1950340,
-7536,2288,16492,-32768,-10371,-9633,36000,12000,229000,1950342,
-7236,2188,16804,-32768,-10999,-9407,36000,11000,228000,1950345,
-6160,2208,17820,-32768,-15064,-7270,32000,11000,227000,1950357,
-5752,1952,17652,-31908,-19273,-4766,28000,9000,225000,1950372,
-5772,2068,17712,-31762,-19300,-4415,27000,9000,225000,1950375,
-5312,2176,17444,-31384,-19208,-56676,0,0,0,1950375,
-2048,1388,18112,-29110,-17048,-3107,22000,7000,223000,1950394,
-432,648,20732,-27835,-14541,-2709,19000,5000,223000,1950407,
104,680,21384,-27574,-13731,-2559,18000,5000,222000,1950412,
-64,512,22612,-26595,-12784,-2011,16000,4000,222000,1950424,
-36,584,22428,-26341,-12245,-1739,15000,4000,222000,1950427,
-152,-380,22736,-23810,-11779,-1048,13000,3000,221000,1950439,
-84,-384,22708,-23390,-11471,-1007,12000,2000,221000,1950441,
296,-456,22292,-23041,-10935,-913,12000,2000,221000,1950444,
2688,-528,21824,-19716,-5520,-1123,9000,1000,221000,1950461,
4184,-656,22296,-17313,-267,-1495,7000,1000,221000,1950474,
4572,-284,22260,-16550,1977,-1536,7000,1000,221000,1950479,
3484,-196,23956,-14493,8197,-1806,5000,2000,221000,1950494,
28,-708,23836,-12864,9981,-2629,3000,3000,220000,1950508,
-616,-924,23800,-12645,9917,-2796,3000,3000,220000,1950511,
-1068,-932,23540,-12383,9948,-2876,3000,3000,220000,1950513,
-2736,-1596,23836,-10438,8338,-2930,2000,4000,220000,0,
-2772,-1644,23720,-10111,8002,-2881,1000,4000,220000,1950528,
-2996,-1596,23812,-9777,7500,-2781,1000,5000,2000,1956840,
-2692,-1016,23920,-8285,6129,-2566,0,5000,220000,1950543,
-2596,-940,24056,-8040,5948,-2491,0,5000,220000,1950546,
-2716,-792,23812,-7822,5919,-2418,0,5000,220000,1950548,
-2608,-460,23924,-6718,5435,-1862,0,6000,219000,1950561,
-2512,-480,24048,-6552,5369,-1777,0,6000,219000,1950563,
-2684,-372,24168,-6344,5215,-1669,0,6000,219000,1950566,
-2884,-476,24272,-5500,4235,-1444,0,6000,219000,1950578,
-2916,-636,24148,-5308,3950,-1400,0,7000,219000,1950580,
-3020,-672,24148,-5110,3729,-1371,-1000,7000,219000,1950583,
-2696,-1028,23864,-3788,2381,-1171,-1000,7000,219000,1950595,
-2732,-1048,23740,-3522,2118,-1113,-1000,7000,219000,1950598,
-2380,-1092,23616,-3221,1851,-1114,-1000,7000,219000,1950600,
-1712,-844,23372,-1955,1046,-876,-1000,7000,219000,1950613,
-1632,-840,23364,-1704,991,-818,-1000,7000,219000,1950615,
-1520,-632,23312,-1524,995,-794,-1000,7000,219000,1950618,
-948,-232,22308,-311,1074,-582,-1000,7000,219000,1950635,
-508,-228,21692,382,1423,-515,-1000,701248,6280,5276,
284,-100,21100,1388,2209,-440,0,0,0,5276,
264,52,20988,1576,2246,-437,-1000,7000,219000,1950667,
276,-100,20988,1670,2354,-459,-1000,7000,219000,1950670,
348,72,20368,2382,2697,-603,-1000,8000,219000,1950682,
184,20,20248,2450,2752,-603,-1000,8000,219000,1950685,
140,80,20260,2577,2792,-676,-1000,8000,219000,1950687,
-324,128,19596,3205,2579,-864,0,8000,218000,1950702,
-312,112,19280,3239,2491,-909,0,8000,218000,19,
-324,220,18348,3538,2321,-1103,0,8000,218000,1950720,
-412,392,18420,33000,10000,231000,0,0,0,1950720,
-408,500,18304,3589,2359,-1182,0,8000,218000,1950724,
-392,396,18264,3625,2302,-1190,0,8000,218000,1950727,
-816,508,17716,3729,2134,-1168,0,9000,218000,1950739,
-944,424,17660,3643,2054,-1118,0,9000,21809,-5905,
-1820,676,17204,3670,1165,-875,0,9000,218000,1950756,
-2120,580,16620,3425,105,-759,1000,9000,218000,1950776,
-2028,488,16440,3375,11,-766,1000,9000,218000,1950778,
-1728,688,15972,3216,-472,-737,1000,9000,218000,1950798,
-1596,736,15760,3035,-220,-813,1000,9000,218000,1950811,
-560,780,21564,-24237,-6790,-3615,9000,8000,226000,1957143,
-1856,632,15404,2888,-317,-704,2000,9000,218000,1950828,
-1944,684,15260,2801,-309,-678,2000,9000,218000,1950830,
-1924,648,1,2832,-214,-694,2000,9000,218000,1950833,
-1784,876,15120,2500,-220,-753,2000,8000,217000,1950845,
-1880,948,15244,2486,-192,-798,2000,8000,217000,1950848,
-1844,944,15140,2392,-237,-775,2000,8000,217000,1950850,
-1956,764,15124,2205,-158,-735,2000,8000,217000,1950863,
-2028,896,15124,2112,-151,-704,2000,8000,217000,1950865,
0,0,0,0,0,0,2000,8000,217000,1950865,
-2012,936,15096,1896,-197,-670,3000,8000,217000,1950880,
-2112,908,14972,1835,-174,-668,0,0,0,1950880,
-2132,924,15072,1858,-179,-664,3000,8000,217000,1950885,
-1900,1116,14832,1607,-60,-567,3000,8000,217000,1950897,
-1732,1104,14912,1209,488,-604,3000,8000,217000,1950917,
-1744,1248,15000,1118,575,-641,3000,8000,217000,1950919,
-1864,1408,15060,782,719,-608,3000,8000,217000,1950932,
-1988,1368,15212,710,710,-626,3000,8000,217000,1950934,
-2112,1452,15080,671,671,-562,3000,9000,217000,1950937,
-2192,1460,15188,285,618,-504,3000,9000,217000,1950949,
-2292,1416,15320,240,576,-492,3000,9000,217000,1950952,
-2280,1468,15296,192,555,-479,3000,9000,217000,1950954,
-2212,1280,15260,76,453,-441,3000,9000,217000,1950967,
-2152,1312,15460,45,428,-409,3000,9000,217000,1950969,
-1992,1472,15496,-33,632,-63,3000,9000,217000,1950989,
-1896,1500,15660,-53,727,-42,3000,9000,217000,1950991,
-1920,1612,15716,-174,933,-2,0,0,0,1950991,
-1760,1624,15788,-239,998,8,3000,9000,217000,1951009,
-1976,1664,15828,-306,986,64,0,0,0,1951009,
-1932,1652,15808,-490,1190,98,3000,9000,217000,1951024,
-1936,1684,15840,-506,1169,148,3000,9000,2179,0,
-1952,1692,15968,-774,1157,263,3000,9000,217000,1951041,
-1996,1700,15920,-826,1165,246,3000,9000,217000,1951043,
-2000,1548,16244,-1031,955,381,3000,9000,217000,1951058,
-2048,1512,16332,-1029,912,370,3000,9000,217000,1951060,
-2048,1580,16292,-1076,816,408,3000,9000,217000,1951063,
-1976,1508,16420,-1179,577,458,3000,9000,217000,1951076,
-1980,1524,16436,-1247,549,500,3000,9000,217000,1951078,
-1892,1548,16480,-1241,521,462,3000,9000,217000,1951080,
0,0,0,0,0,0,3000,9000,217000,1951080,
-1712,1616,16592,-1280,360,402,3000,9000,217000,1951095,
0,0,0,0,0,0,3000,9000,217000,1951095,
-1556,1360,16644,-1089,306,482,3000,9000,217000,1951112,
-1704,1364,16680,-1101,324,524,3000,9000,217000,1951115,
-1508,1400,16820,-947,690,354,2000,9000,217000,1951132,
-2820,3584,15680,763,59,-1412,6000,14000,217000,1955574,
-2768,3512,15604,524,18512,44,16052,2023,-190,-387,
-3236,3472,15560,608,343,-1411,6000,14000,217000,1955606,
-3196,3732,15620,566,778,-1381,6000,14000,217000,1955626,
-3448,3800,15524,397,918,-1518,6000,14000,216000,1955639,
-3532,3756,15400,392,889,-1446,6000,14000,216000,1955641,
-3632,3744,15564,293,872,-1399,6000,1421,745,-279,
-4148,3600,15324,139,819,-1056,6000,14063,-315,-2000,
-4188,3684,15384,-105,618,-796,6000,15000,216000,1955673,
-4268,3688,15352,-117,600,-820,6000,15000,216000,1955676,
-4268,3772,15324,-161,526,-714,6000,15000,216000,1955678,
-4292,3708,15424,-276,397,-520,6000,15000,216000,1955690,
-4144,3604,15380,-294,370,-419,6000,15000,216000,1955693,
-4208,3632,15460,-321,341,-395,6000,15000,216000,1955695,
-4084,3672,15364,-348,173,-134,6000,15000,216000,1955708,
-4048,3756,15228,-394,191,-149,6000,15000,216000,1955710,
-4156,3684,15456,-347,152,-126,6000,15000,216000,1955712,
-3992,3708,15260,-508,158,71,6000,15000,216000,1955725,
-4028,3772,15304,-542,96,175,6000,15000,216000,1955730,
-4008,3800,15328,-677,-18,369,6000,15000,216000,1955742,
-4040,3644,15296,-826,-5,419,6000,15000,216000,1955747,
-3832,3912,15376,-1158,-239,514,6000,15000,216000,1955760,
-3920,3868,15512,-1212,-305,506,6000,15000,216000,1955762,
-3736,3932,15568,-1214,-372,524,6000,15000,216000,1955765,
-3836,3752,15436,-1517,-688,681,6000,14000,216000,1955779,
-3596,3708,15420,-1570,-716,758,6000,14000,216000,1955782,
-3328,3476,15500,-1755,-698,881,6000,14000,217000,1955799,
-3104,3568,15432,-1920,-469,1023,6000,14000,217000,1955812,
-2976,3528,15536,-1919,-375,1049,5000,14000,217000,1955817,
-3024,3468,15544,-2026,-37,1157,5000,14000,217000,1955829,
-3100,3444,15644,-2106,-18,1174,5000,14000,217000,1955832,
-3168,3452,15604,-2107,44,1155,5000,14000,217000,1955834,
