Ax,Ay,Az,Gx,Gy,Gz,Roll,Pitch,Yaw,Timestamp,Target
2268,912,16656,-721,124,20,-3000,-4000,255000,299307,
2216,928,16828,-675,143,-19,-3000,-4000,255000,299309,
2328,896,16916,-675,141,-7,-3000,-4000,255000,299312,
2368,852,16872,-632,298,-87,-3000,-4000,255000,299325,
2424,984,16768,-646,342,-43,-3000,-4000,255000,299327,
2328,908,16840,-659,387,-74,-3000,-4000,255000,299329,
2136,904,16752,-679,582,-34,-4000,-4000,255000,299342,
2168,936,16564,-677,586,-33,-4000,-4000,255000,299344,
2064,900,16844,-654,631,-20,-4000,-4000,255000,299347,
2092,960,16776,-682,616,-23,-4000,-4000,255000,299349,
2040,1024,16632,-691,760,-76,-4000,-4000,255000,299362,
1912,940,16708,-730,774,-72,-4000,-4000,255000,299364,
1960,960,16744,-740,789,-106,-4000,-4000,255000,299366,
1736,1036,16612,-810,660,-17,-4000,-4000,255000,299379,
1692,1088,16624,-775,664,-73,-4000,-4000,255000,299382,
1696,1032,16632,-792,585,-29,-4000,-4000,255000,299384,
1696,920,16692,-830,425,-37,-4000,-4000,255000,299396,
1688,1008,16756,-861,362,-21,-4000,-4000,255000,299399,
1672,880,16664,-878,301,-40,-4000,-4000,255000,299401,
1468,828,16544,-872,313,-68,-4000,-4000,255000,299404,
1584,804,16684,-932,142,53,-4000,-4000,255000,299416,
1492,844,16568,-888,91,60,-4000,-4000,255000,299419,
1520,908,16696,-926,51,125,-4000,-4000,255000,299421,
1816,1052,16584,-904,-91,150,-4000,-4000,255000,299434,
1840,956,16580,-958,-124,169,-4000,-4000,255000,299436,
1784,900,16624,-965,-142,114,-4000,-4000,255000,299439,
1832,860,16752,-910,-191,147,-4000,-4000,255000,299451,
1844,804,16672,-934,-166,178,-4000,-4000,255000,299454,
1756,740,16644,-880,-213,174,-4000,-4000,255000,299456,
1752,832,16776,-922,-251,201,-4000,-4000,255000,299459,
1688,636,16792,-886,-474,313,-4000,-4000,255000,299475,
1628,616,16956,-878,-470,280,-4000,-4000,255000,299477,
1696,652,16800,-881,-541,285,-4000,-4000,255000,299480,
1832,744,16772,-869,-655,363,-4000,-4000,255000,299492,
1956,768,16812,-840,-702,362,-4000,-4000,255000,299495,
1992,804,16788,-852,-696,410,-4000,-4000,255000,299497,
2416,760,16660,-818,-484,375,-4000,-4000,255000,299510,
2428,624,16760,-810,-405,353,-4000,-4000,255000,299512,
2404,764,16896,-845,-306,367,-4000,-4000,255000,299514,
2400,780,16944,-723,73,367,-4000,-4000,255000,299527,
2580,760,16856,-673,205,328,-4000,-4000,255000,299529,
2560,840,16812,-643,232,346,-4000,-4000,255000,299532,
2644,860,16928,-671,292,336,-4000,-4000,256000,299534,
2540,720,16916,-574,435,187,-4000,-4000,256000,299547,
2336,820,17032,-585,443,174,-4000,-4000,256000,299549,
2456,732,16964,-559,478,182,-4000,-4000,256000,299552,
2136,656,16964,-496,447,203,-4000,-4000,256000,299564,
2056,680,17012,-465,487,186,-4000,-4000,256000,299567,
2120,732,17052,-464,420,198,-4000,-4000,256000,299569,
2268,644,17244,-451,426,219,-4000,-4000,256000,299572,
2280,760,16784,-398,370,75,-4000,-4000,256000,299584,
2320,804,17028,-420,395,76,-4000,-4000,256000,299587,
2228,832,16908,-378,450,36,-4000,-4000,256000,299589,
2388,976,16900,-402,536,65,-4000,-4000,256000,299602,
2436,952,16992,-414,638,88,-4000,-4000,256000,299604,
2432,1020,16972,-370,615,66,-4000,-4000,256000,299606,
2412,892,16816,-457,673,81,-4000,-4000,256000,299609,
2196,892,16832,-463,864,58,-4000,-4000,256000,299622,
2184,820,16904,-487,915,50,-4000,-4000,256000,299624,
2068,796,16868,-479,940,57,-4000,-4000,256000,299626,
1940,736,16760,-577,865,94,-4000,-4000,256000,299639,
1792,764,16880,-531,857,87,-4000,-4000,256000,299641,
1840,692,16924,-550,788,96,-4000,-4000,256000,299644,
1744,704,16836,-573,772,88,-4000,-4000,256000,299646,
1764,680,16952,-497,376,66,-4000,-4000,256000,299659,
1764,572,16848,-494,296,24,-4000,-4000,256000,299661,
1716,588,16864,-447,230,9,-4000,-4000,256000,299664,
1688,488,16984,-451,-96,-39,-4000,-4000,256000,299676,
1836,624,16904,-408,-136,-14,-4000,-4000,256000,299679,
1828,636,16820,-420,-218,14,-4000,-4000,256000,299681,
1788,736,16900,-443,-213,5,-4000,-4000,256000,299683,
2016,784,16860,-434,-195,33,-4000,-4000,256000,299696,
2156,824,16976,-433,-153,7,-4000,-4000,256000,299698,
2132,816,16880,-386,-82,-9,-4000,-4000,256000,299701,
2236,764,16840,-399,254,-11,-4000,-4000,256000,299713,
2188,692,16868,-367,356,-42,-4000,-4000,256000,299716,
2196,728,16812,-392,420,-3,-4000,-4000,256000,299718,
2212,716,16660,-401,511,4,-4000,-4000,256000,299721,
2060,632,16712,-428,649,103,-4000,-4000,256000,299733,
1836,564,16744,-431,673,93,-4000,-4000,256000,299736,
1856,692,16780,-412,671,105,-4000,-4000,256000,299738,
1716,736,16620,-407,500,172,-4000,-4000,256000,299751,
1680,644,16616,-360,440,148,-4000,-4000,256000,299753,
1660,724,16756,-394,381,186,-4000,-3000,256000,299756,
1572,656,16672,-408,334,158,-4000,-3000,256000,299758,
1600,580,16600,-433,-2,217,-4000,-4000,256000,299771,
1576,688,16712,-438,-57,181,-4000,-4000,256000,299773,
1744,676,16568,-396,-77,162,-4000,-4000,256000,299775,
1996,580,16708,-408,-107,169,-4000,-4000,256000,299788,
1992,516,16636,-334,-70,129,-4000,-4000,256000,299791,
2152,588,16620,-356,-78,168,-4000,-4000,256000,299793,
2184,568,16624,-356,-31,179,-4000,-4000,256000,299795,
2552,828,16580,-328,282,164,-4000,-4000,256000,299808,
2348,864,16636,-352,375,156,-4000,-4000,256000,299810,
2380,816,16732,-311,456,150,-4000,-4000,256000,299813,
2308,784,16676,-321,701,126,-4000,-4000,256000,299826,
2232,804,16760,-251,732,93,-4000,-3000,256000,299828,
2032,792,16696,-313,707,104,-4000,-3000,256000,299830,
2016,856,16652,-314,710,113,-4000,-3000,256000,299833,
1812,716,16540,-415,539,99,-4000,-3000,256000,299845,
1944,624,16552,-418,526,114,-4000,-3000,256000,299848,
1856,752,16616,-390,519,98,-4000,-3000,256000,299850,
1928,892,16452,-530,310,204,-4000,-3000,256000,299863,
1868,840,16588,-502,290,178,-4000,-3000,256000,299865,
2016,876,16520,-542,236,184,-4000,-3000,256000,299868,
1988,944,16356,-563,244,185,-4000,-3000,256000,299870,
1804,748,16560,-549,75,44,-4000,-3000,256000,299887,
1880,660,16408,-549,34,81,-4000,-3000,256000,299889,
1888,788,16436,-550,1,83,-4000,-3000,256000,299891,
1912,672,16624,-611,-170,106,-4000,-3000,256000,299904,
2004,632,16772,-645,-186,115,-4000,-3000,256000,299906,
2092,688,16664,-610,-165,59,-4000,-3000,256000,299909,
2144,752,16656,-592,-202,92,-4000,-3000,256000,299911,
2360,760,16636,-587,33,26,-4000,-3000,256000,299924,
2348,720,16780,-584,87,35,-4000,-3000,256000,299926,
2344,680,16708,-586,132,38,-4000,-3000,256000,299929,
2364,832,16700,-511,487,62,-4000,-3000,256000,299941,
2308,740,16744,-564,566,75,-4000,-3000,256000,299944,
2340,800,16640,-526,676,39,-4000,-3000,256000,299946,
2244,812,16700,-536,680,37,-4000,-3000,256000,299948,
2140,788,16712,-558,736,-4,-4000,-3000,256000,299961,
2076,880,16776,-515,677,30,-4000,-3000,256000,299963,
2076,812,16828,-541,711,39,-4000,-3000,256000,299966,
1812,788,16668,-546,628,6,-4000,-3000,256000,299978,
1732,720,16612,-561,596,3,-4000,-3000,256000,299981,
1592,832,16588,-556,609,-10,-4000,-3000,256000,299983,
1668,868,16580,-525,525,-4,-4000,-3000,256000,299986,
1632,712,16656,-546,231,-73,-4000,-3000,256000,299998,
1604,600,16644,-539,156,-67,-4000,-3000,256000,300001,
1708,620,16756,-536,108,-68,-4000,-3000,256000,300003,
1916,512,16780,-566,-71,-51,-4000,-3000,256000,300016,
2072,596,16852,-563,-35,-36,-4000,-3000,256000,300018,
2028,688,16944,-566,-25,-47,-4000,-3000,256000,300021,
2004,524,16884,-553,-29,-35,-4000,-3000,256000,300023,
2196,892,16948,-525,198,0,-4000,-3000,256000,300036,
2240,876,16848,-565,236,38,-4000,-3000,256000,300038,
2168,932,16796,-548,334,-1,-4000,-3000,256000,300040,
1916,788,16796,-559,381,18,-4000,-3000,256000,300053,
1884,592,17060,-535,427,-26,-4000,-3000,256000,300056,
1776,544,16920,-506,368,-13,-4000,-3000,256000,300058,
1660,552,16760,-515,350,-1,-4000,-3000,256000,300060,
1764,336,16688,-439,215,27,-4000,-3000,256000,300073,
1668,528,16768,-513,192,66,-4000,-3000,256000,300075,
1828,588,16900,-448,211,42,-4000,-3000,256000,300078,
2048,732,16772,-414,257,75,-4000,-3000,256000,300090,
2060,720,16588,-407,285,77,-4000,-3000,256000,300093,
2052,792,16864,-396,271,65,-4000,-3000,256000,300095,
2192,816,16688,-434,288,82,-4000,-3000,256000,300097,
2184,856,16760,-453,391,24,-4000,-3000,256000,300110,
2072,852,16916,-429,427,52,-4000,-3000,256000,300113,
2008,836,16884,-404,480,22,-4000,-3000,256000,300115,
1828,664,16848,-418,478,29,-4000,-3000,256000,300128,
1700,616,16752,-417,480,6,-4000,-3000,256000,300130,
1676,616,16800,-421,409,-10,-4000,-3000,256000,300132,
1724,660,16672,-422,412,10,-4000,-3000,256000,300135,
1704,772,16548,-449,197,25,-4000,-3000,256000,300147,
1752,728,16576,-473,178,32,-4000,-3000,256000,300150,
1824,692,16596,-445,188,12,-4000,-3000,256000,300152,
2036,884,16604,-522,200,53,-4000,-3000,256000,300165,
2044,900,16704,-537,201,32,-4000,-3000,256000,300167,
2048,820,16624,-536,186,58,-4000,-3000,256000,300170,
2112,960,16368,-563,210,55,-4000,-3000,256000,300172,
1984,672,16664,-511,252,-17,-4000,-3000,256000,300185,
1928,784,16676,-525,289,-17,-4000,-3000,256000,300187,
1880,692,16612,-484,326,-34,-4000,-3000,256000,300190,
1764,640,16628,-505,260,-35,-4000,-3000,256000,300202,
1756,580,16712,-472,197,-32,-4000,-3000,256000,300205,
1796,668,16632,-483,171,-26,-4000,-3000,256000,300207,
1788,620,16668,-508,126,-9,-4000,-3000,256000,300209,
1980,716,16640,-502,139,35,-4000,-3000,256000,300222,
1972,772,16840,-475,183,6,-4000,-3000,256000,300225,
2024,736,16824,-442,204,-35,-4000,-3000,256000,300227,
2116,884,16812,-468,371,-47,-4000,-3000,256000,300240,
2108,728,16632,-459,423,-90,-4000,-3000,256000,300242,
2096,660,16772,-451,452,-74,-4000,-3000,256000,300244,
2088,728,16800,-479,466,-75,-4000,-3000,256000,300247,
1844,708,16520,-430,623,-74,-4000,-3000,255000,300259,
1704,692,16596,-443,661,-83,-4000,-3000,255000,300262,
1736,708,16632,-431,657,-50,-4000,-3000,255000,300264,
1628,764,16628,-482,534,-32,-4000,-3000,255000,300277,
1588,740,16564,-452,481,-6,-4000,-3000,255000,300279,
1632,792,16552,-518,428,-1,-4000,-3000,255000,300282,
1660,720,16612,-547,456,10,-4000,-3000,255000,300284,
1616,808,16568,-617,248,84,-4000,-3000,255000,300297,
1596,804,16800,-634,260,80,-4000,-3000,255000,300299,
1648,784,16680,-602,250,79,-4000,-3000,255000,300302,
1604,604,16644,-667,225,89,-4000,-3000,255000,300314,
1628,588,16620,-637,181,73,-4000,-3000,255000,300317,
1664,592,16572,-665,162,85,-4000,-3000,255000,300319,
1540,560,16740,-639,130,53,-4000,-3000,255000,300321,
1880,672,16756,-594,-36,23,-4000,-3000,255000,300334,
1808,680,16604,-604,-29,50,-4000,-3000,255000,300336,
1968,888,16904,-559,28,107,-4000,-3000,255000,300349,
1948,876,16784,-586,76,79,-4000,-3000,255000,300351,
1896,844,16760,-551,72,103,-4000,-3000,255000,300354,
1924,804,16732,-575,114,130,-4000,-3000,255000,300356,
1888,896,16764,-575,330,107,-4000,-3000,255000,300369,
1860,688,16668,-628,337,135,-4000,-3000,255000,300371,
1944,752,16720,-614,367,148,-4000,-3000,256000,300374,
1804,644,16788,-643,291,199,-4000,-3000,256000,300386,
1872,628,16604,-681,263,167,-4000,-3000,256000,300389,
1832,532,16784,-645,222,127,-4000,-3000,256000,300391,
1808,592,16768,-617,195,172,-4000,-3000,256000,300393,
1688,632,16708,-555,18,142,-4000,-3000,256000,300406,
1584,632,16736,-584,-53,164,-4000,-3000,256000,300408,
1640,680,16816,-586,-34,159,-4000,-3000,256000,300411,
1840,764,16760,-617,-230,147,-4000,-3000,256000,300424,
1808,780,16732,-624,-206,124,-4000,-3000,256000,300426,
2020,844,16832,-582,-215,146,-4000,-3000,256000,300428,
2164,836,16712,-639,-42,54,-4000,-3000,256000,300441,
2088,736,16640,-589,-32,42,-4000,-3000,256000,300443,
2104,628,16704,-646,-14,59,-4000,-3000,256000,300446,
2156,748,16668,-656,57,39,-4000,-3000,256000,300448,
2096,540,16680,-685,179,127,-4000,-3000,256000,300461,
2084,628,16736,-665,232,119,-4000,-3000,256000,300463,
2000,744,16828,-654,250,72,-4000,-3000,256000,300465,
1868,716,16780,-696,247,149,-4000,-3000,256000,300478,
1860,724,16684,-674,238,118,-4000,-3000,256000,300481,
1828,628,16788,-709,183,115,-4000,-3000,256000,300483,
1788,728,16740,-734,191,130,-4000,-3000,256000,300485,
1844,780,16800,-732,-159,95,-4000,-3000,256000,300498,
1876,712,16848,-776,-193,72,-4000,-3000,256000,300500,
1888,632,16920,-735,-247,27,-4000,-3000,256000,300503,
2252,780,16832,-789,-456,-77,-4000,-3000,256000,300515,
2368,600,16892,-790,-490,-127,-4000,-3000,256000,300518,
2540,836,16784,-794,-539,-139,-4000,-3000,256000,300520,
2576,868,17012,-763,-505,-253,-5000,-3000,256000,300533,
2552,772,17068,-772,-449,-224,-5000,-3000,256000,300535,
2568,916,17056,-751,-416,-246,-5000,-3000,256000,300538,
2880,904,17364,-724,-360,-295,-5000,-3000,256000,300550,
2808,924,17196,-761,-351,-344,-5000,-3000,256000,300553,
2860,948,17320,-691,-381,-396,-5000,-4000,256000,300555,
2848,1056,17656,-756,-442,-580,-5000,-4000,255000,300568,
2952,1124,17676,-733,-419,-629,-5000,-4000,255000,300570,
2952,1052,17604,-769,-446,-624,-5000,-4000,255000,300572,
3092,952,17956,-697,-561,-863,-5000,-4000,255000,300585,
3056,948,18144,-718,-585,-846,-5000,-4000,255000,300587,
3148,1024,18100,-726,-594,-892,-5000,-4000,255000,300590,
3016,1000,18352,-554,-660,-1016,-5000,-4000,255000,300602,
3092,996,18400,-541,-664,-1087,-5000,-4000,255000,300605,
3052,916,18416,-493,-671,-1135,-5000,-4000,255000,300607,
3008,1288,18472,-416,-793,-1312,-5000,-4000,255000,300620,
2988,1208,18336,-368,-816,-1368,-5000,-4000,255000,300622,
2896,1252,18428,-369,-803,-1355,-5000,-4000,255000,300625,
2928,1160,18656,-256,-830,-1606,-4000,-4000,255000,300637,
3016,1060,18608,-233,-884,-1621,-4000,-4000,255000,300639,
2992,1052,18616,-213,-885,-1672,-4000,-4000,255000,300642,
2792,1104,18732,-8,-1052,-1838,-4000,-4000,255000,300654,
2752,944,18836,22,-1015,-1889,-4000,-4000,255000,300657,
2780,992,18796,85,-1052,-1958,-4000,-4000,255000,300659,
2708,1104,19004,235,-933,-2114,-4000,-5000,254000,300672,
2704,1176,19044,283,-976,-2148,-4000,-5000,254000,300674,
2700,1252,19008,260,-946,-2169,-4000,-5000,254000,300677,
2528,1908,19120,346,-866,-2356,-4000,-5000,254000,300689,
2416,1884,19224,322,-864,-2367,-4000,-5000,254000,300692,
2352,1908,19280,324,-841,-2416,-4000,-5000,254000,300694,
1924,2024,19388,335,-981,-2404,-4000,-5000,254000,300707,
1852,1956,19468,371,-995,-2496,-4000,-5000,254000,300709,
1816,1816,19524,401,-1172,-2520,-4000,-5000,254000,300712,
1344,1188,19484,638,-1538,-2822,-4000,-5000,253000,300724,
1344,1048,19440,688,-1667,-2836,-4000,-5000,253000,300727,
1300,976,19560,727,-1771,-2848,-4000,-5000,253000,300729,
1344,876,19448,1007,-2239,-2830,-4000,-5000,253000,300742,
1456,724,19492,1042,-2288,-2836,-4000,-5000,253000,300744,
1504,792,19396,1127,-2338,-2840,-4000,-5000,253000,300747,
1800,792,19100,1455,-2234,-2698,-3000,-6000,253000,300759,
1832,724,19052,1542,-2137,-2739,-3000,-6000,253000,300762,
1844,920,19108,1622,-2093,-2691,-3000,-6000,253000,300764,
1756,836,18992,2001,-1694,-2550,-3000,-6000,252000,300777,
1672,984,18784,2003,-1616,-2499,-3000,-6000,252000,300779,
1696,1064,18808,2059,-1545,-2441,-3000,-6000,252000,300781,
1484,1016,18728,2222,-1400,-2115,-3000,-6000,252000,300794,
1456,1120,18620,2255,-1410,-2047,-3000,-6000,252000,300796,
1416,1032,18668,2432,-1681,-1836,-2000,-6000,252000,300809,
1360,980,18664,2510,-1709,-1818,-2000,-6000,252000,300812,
1192,980,18568,2571,-1806,-1790,-2000,-6000,252000,300814,
1088,1048,18388,2690,-2046,-1489,-2000,-7000,252000,300827,
1076,932,18368,2738,-2159,-1449,-2000,-7000,252000,300829,
1148,940,18240,2723,-2254,-1373,-2000,-7000,252000,300831,
1428,788,18084,2936,-2551,-1241,-1000,-7000,251000,300844,
1404,712,17808,2934,-2557,-1225,-1000,-7000,251000,300846,
1504,924,18000,2968,-2568,-1254,-1000,-7000,251000,300849,
1832,1176,17676,3135,-2610,-1004,-1000,-7000,251000,300861,
1944,1128,17676,3204,-2559,-970,-1000,-7000,251000,300864,
2120,1180,17676,3266,-2533,-913,-1000,-7000,251000,300866,
2432,1368,17348,3414,-2153,-804,0,-8000,251000,300879,
2432,1576,17264,3408,-2094,-792,0,-8000,251000,300881,
2340,1480,17192,3428,-1963,-778,0,-8000,251000,300884,
2428,1596,17140,3475,-1909,-766,0,-8000,251000,300886,
2096,1680,17256,3477,-1570,-617,0,-8000,251000,300899,
1972,1768,17168,3518,-1592,-527,0,-8000,251000,300901,
1880,1752,17112,3504,-1575,-485,0,-8000,251000,300903,
1768,1716,17176,3605,-1723,-305,0,-8000,251000,300916,
1652,1716,16956,3572,-1739,-298,0,-8000,251000,300918,
1676,1784,16884,3612,-1793,-241,0,-8000,251000,300921,
1540,1888,17004,3651,-1829,-242,0,-8000,251000,300923,
1544,1960,16712,3608,-2223,-82,0,-8000,251000,300936,
1580,1836,16800,3638,-2303,-52,0,-8000,251000,300938,
1628,1900,16864,3596,-2341,-23,1000,-8000,251000,300941,
1896,1796,16552,3667,-2500,105,1000,-9000,251000,300953,
1804,1900,16608,3617,-2514,123,1000,-9000,251000,300956,
1916,1940,16652,3627,-2497,160,1000,-9000,251000,300958,
2236,2116,16480,3687,-2432,299,1000,-9000,251000,300971,
2304,2256,16460,3689,-2387,313,2000,-9000,251000,300973,
2344,2316,16508,3729,-2338,296,2000,-9000,251000,300975,
2480,2612,16512,3705,-2027,492,2000,-9000,251000,300988,
2524,2608,16296,3749,-1975,542,2000,-9000,251000,300991,
2576,2624,16356,3678,-1933,599,2000,-9000,251000,300993,
2404,2668,16292,3711,-1678,803,3000,-9000,251000,301006,
2256,2556,16484,3675,-1609,831,3000,-9000,251000,301008,
2296,2528,16204,3708,-1538,843,3000,-9000,251000,301010,
2060,2424,15908,3674,-1488,1071,3000,-10000,251000,301023,
2072,2548,16172,3689,-1450,1101,3000,-10000,251000,301026,
2096,2548,15932,3701,-1525,1154,3000,-10000,251000,301028,
2120,2772,16092,3664,-1579,1316,4000,-10000,251000,301041,
2216,2812,16032,3714,-1612,1340,4000,-10000,251000,301043,
2260,2764,15996,3716,-1615,1367,4000,-10000,251000,301045,
2416,2760,16096,3744,-1667,1418,4000,-10000,252000,301058,
2460,2840,16012,3747,-1615,1435,4000,-10000,252000,301061,
2480,2716,15940,3769,-1557,1391,4000,-10000,252000,301063,
2608,3004,15616,3852,-1268,1588,5000,-10000,252000,301076,
2636,3116,15660,3879,-1205,1626,5000,-10000,252000,301078,
2676,2996,15680,3875,-1199,1668,5000,-10000,252000,301080,
2612,3444,15548,3839,-1070,1904,5000,-10000,252000,301093,
2700,3416,15640,3798,-1071,1979,5000,-10000,252000,301096,
2672,3608,15540,3771,-1061,2007,5000,-10000,252000,301098,
2408,3524,15312,3667,-820,2353,6000,-10000,252000,301111,
2464,3372,15364,3676,-785,2368,6000,-10000,252000,301113,
2324,3432,15304,3702,-774,2432,6000,-10000,252000,301115,
2076,3108,15536,3654,-846,2601,6000,-11000,253000,301128,
2176,3124,15340,3723,-896,2634,6000,-11000,253000,301130,
2184,3136,15232,3699,-940,2674,6000,-11000,253000,301133,
2176,3268,15024,3797,-1090,2954,7000,-11000,253000,301146,
2288,3348,14932,3748,-1137,3017,7000,-11000,253000,301148,
2360,3416,14876,3776,-1131,3050,7000,-11000,253000,301150,
2692,3680,14940,3751,-1201,3323,7000,-11000,253000,301163,
2840,3828,14856,3759,-1156,3377,7000,-11000,253000,301165,
2920,3600,14872,3821,-1137,3383,7000,-11000,253000,301168,
3088,3556,14860,3790,-886,3446,8000,-11000,254000,301181,
3068,3384,14720,3827,-843,3456,8000,-11000,254000,301183,
2908,3388,14784,3836,-769,3487,8000,-11000,254000,301185,
3100,3668,14708,3810,-407,3665,8000,-11000,254000,301198,
3168,3812,14676,3755,-335,3747,8000,-11000,254000,301200,
3104,3772,14496,3731,-241,3801,8000,-11000,254000,301203,
3068,4064,14396,3615,141,4248,8000,-11000,255000,301216,
3048,4096,14436,3606,195,4290,8000,-11000,255000,301218,
2980,4156,14488,3618,187,4310,9000,-11000,255000,301220,
2936,3820,14160,3565,489,4470,9000,-11000,255000,301233,
2984,3524,14424,3602,434,4477,9000,-11000,255000,301235,
3048,3552,14368,3601,424,4506,9000,-11000,256000,301238,
3256,4068,14108,3558,367,4818,9000,-11000,256000,301254,
3264,4056,14152,3583,387,4858,9000,-11000,256000,301257,
3236,4140,14180,3559,407,4923,9000,-11000,256000,301259,
3592,4424,13808,3481,612,5078,10000,-11000,257000,301272,
3648,4480,13884,3413,642,5132,10000,-12000,257000,301274,
3536,4372,13752,3349,702,5144,10000,-12000,257000,301276,
3568,4472,13640,3168,808,5357,10000,-12000,258000,301289,
3376,4480,13780,3099,820,5460,10000,-12000,258000,301291,
3400,4468,13508,3138,836,5442,10000,-12000,258000,301294,
3376,4200,13492,2759,743,5639,10000,-12000,258000,301306,
3308,4136,13716,2761,672,5679,10000,-12000,258000,301309,
3320,4112,13708,2698,563,5732,10000,-12000,258000,301311,
3296,4032,13848,2533,181,5949,11000,-12000,259000,301324,
3296,3988,13732,2465,142,5991,11000,-12000,259000,301326,
3496,4060,13728,2482,93,6078,11000,-12000,259000,301328,
4056,4268,13356,2408,-14,6297,11000,-12000,260000,301341,
4144,4284,13444,2358,19,6292,11000,-12000,260000,301343,
4248,4416,13088,2309,4,6274,11000,-12000,260000,301346,
4720,4292,12908,2146,343,6206,11000,-12000,261000,301359,
4796,4260,12780,2096,320,6193,11000,-12000,261000,301361,
4752,4268,12736,2043,379,6212,11000,-12000,261000,301363,
4876,4264,12744,1840,694,6319,11000,-12000,262000,301376,
4888,4384,12824,1763,794,6353,11000,-12000,262000,301378,
4872,4308,12936,1759,906,6381,11000,-12000,262000,301381,
4952,4396,13108,1506,1178,6524,11000,-12000,262000,301393,
5028,4472,13236,1475,1257,6602,11000,-12000,263000,301396,
4988,4412,13332,1467,1261,6577,11000,-12000,263000,301398,
5080,4080,13356,1326,1569,6601,11000,-12000,263000,301411,
5044,4108,13168,1280,1620,6598,11000,-12000,263000,301413,
5092,4052,13332,1213,1665,6574,11000,-12000,264000,301415,
4900,4008,13352,1068,1942,6736,11000,-12000,264000,301428,
4820,3964,13192,1018,1965,6799,11000,-12000,264000,301431,
4704,4024,13364,1034,1941,6843,11000,-12000,265000,301433,
4532,4136,13432,828,1878,7080,11000,-12000,265000,301446,
4628,4144,13268,821,1870,7111,11000,-12000,265000,301448,
4676,4112,13236,711,1823,7097,11000,-12000,266000,301450,
4836,4424,13512,610,1502,7175,11000,-12000,266000,301463,
4864,4436,13536,528,1452,7196,11000,-12000,266000,301465,
4880,4472,13472,482,1420,7204,11000,-12000,267000,301468,
5152,4460,13664,327,1262,7150,11000,-12000,267000,301480,
5180,4396,13804,334,1238,7121,11000,-12000,267000,301483,
5216,4388,13640,332,1183,7096,11000,-12000,268000,301485,
5684,4088,13824,272,1026,6956,11000,-13000,268000,301498,
5680,4032,14068,303,1010,6948,11000,-13000,268000,301500,
5884,3904,13976,275,1060,6934,11000,-13000,268000,301503,
6108,4020,14120,377,1431,7010,11000,-13000,269000,301515,
6256,4032,13936,357,1530,7022,11000,-13000,269000,301518,
6172,4000,13936,358,1658,7021,11000,-13000,269000,301520,
5800,4140,13756,311,2362,7093,10000,-13000,270000,301533,
5840,4048,13652,289,2555,7106,10000,-13000,270000,301535,
5676,4104,13588,294,2645,7132,10000,-13000,270000,301538,
5248,3732,13508,152,3203,7299,10000,-12000,271000,301550,
4960,3760,13540,122,3163,7333,10000,-12000,271000,301553,
5076,3580,13328,58,3248,7384,10000,-12000,272000,301555,
4768,3656,13400,-150,3217,7735,10000,-12000,272000,301568,
4760,3688,13392,-186,3201,7809,10000,-12000,272000,301570,
4656,3628,13476,-250,3211,7891,10000,-12000,273000,301573,
4924,3628,13340,-349,2954,7886,10000,-12000,273000,301585,
5048,3584,13416,-355,2939,7836,10000,-12000,274000,301588,
5092,3668,13460,-340,2875,7787,10000,-12000,274000,301590,
5296,4016,12944,-386,3148,7586,10000,-12000,275000,301603,
5420,4088,12844,-412,3190,7558,10000,-12000,275000,301605,
5440,3984,12892,-450,3288,7543,10000,-12000,275000,301607,
5416,4340,12752,-752,3752,7570,9000,-12000,276000,301620,
5356,4424,12564,-844,3865,7573,9000,-12000,276000,301622,
5448,4520,12704,-886,3955,7567,9000,-12000,276000,301625,
5116,4644,12812,-1531,3909,7600,9000,-12000,277000,301638,
5232,4700,13008,-1601,3834,7632,9000,-11000,277000,301640,
5092,4752,13016,-1747,3722,7701,9000,-11000,277000,301642,
4732,4356,13620,-2251,3484,7864,9000,-11000,278000,301655,
4648,4268,13788,-2346,3407,7892,8000,-11000,278000,301657,
4560,4004,13756,-2450,3367,7939,8000,-11000,278000,301660,
4588,3332,14112,-2594,2949,7898,8000,-11000,279000,301672,
4872,3288,14068,-2661,2909,7852,8000,-11000,279000,301675,
4924,3340,14132,-2616,2794,7813,8000,-11000,279000,301677,
5684,3344,14152,-2676,2377,7386,8000,-11000,280000,301690,
5768,3444,14164,-2566,2381,7275,7000,-11000,280000,301692,
5948,3308,14168,-2572,2407,7137,7000,-11000,280000,301695,
6800,3828,13704,-2453,3067,6322,7000,-11000,281000,301707,
6944,3828,13656,-2524,3223,6178,7000,-11000,281000,301710,
6988,3900,13408,-2555,3426,6050,7000,-11000,281000,301712,
7104,4568,13684,-2752,4207,5567,7000,-11000,282000,301725,
6928,4660,13688,-2836,4386,5532,7000,-10000,282000,301727,
6820,4648,14044,-2874,4465,5478,6000,-10000,282000,301730,
6520,4532,14936,-3399,4637,5294,6000,-10000,283000,301742,
6456,4292,15192,-3446,4572,5283,6000,-10000,283000,301745,
6312,4172,15520,-3550,4494,5264,6000,-10000,283000,301747,
5372,3076,16156,-3597,4439,5153,6000,-10000,283000,301760,
5308,2840,16264,-3593,4363,5148,5000,-10000,283000,301762,
4928,2688,16224,-3605,4340,5108,5000,-10000,284000,301765,
4500,2112,16176,-3518,3639,4888,5000,-9000,284000,301777,
4628,2020,16104,-3540,3559,4882,5000,-9000,284000,301780,
4616,1960,16056,-3500,3420,4855,5000,-9000,284000,301782,
5224,2224,15312,-3410,2834,4628,4000,-9000,285000,301795,
5252,2288,15440,-3369,2757,4547,4000,-9000,285000,301797,
5668,2232,15456,-3364,2761,4395,4000,-9000,285000,301800,
6372,2892,15216,-3246,3201,3910,4000,-9000,285000,301812,
6576,3056,15100,-3264,3319,3843,4000,-9000,285000,301815,
6748,3096,15168,-3323,3558,3801,4000,-9000,285000,301817,
7232,3112,15656,-3457,4743,3373,3000,-8000,286000,301833,
6936,2972,15700,-3454,4863,3412,3000,-8000,286000,301836,
7096,2936,15956,-3491,5065,3400,3000,-8000,286000,301838,
6084,2420,16388,-3580,5539,3193,3000,-8000,286000,301851,
5984,2428,16564,-3624,5569,3108,3000,-8000,286000,301853,
5560,2304,16672,-3597,5572,3038,3000,-7000,286000,301855,
4756,1848,16736,-3575,5334,2806,2000,-7000,287000,301868,
4776,1680,16792,-3527,5280,2797,2000,-7000,287000,301871,
4768,1664,16600,-3535,5200,2767,2000,-7000,287000,301873,
4820,1592,15880,-3496,4909,2570,2000,-6000,287000,301886,
4984,1620,15888,-3512,4902,2564,2000,-6000,287000,301888,
5020,1544,15780,-3490,4965,2501,2000,-6000,287000,301890,
4856,1576,15304,-3458,5243,2120,1000,-6000,287000,301903,
4888,1716,15176,-3508,5235,2022,1000,-6000,288000,301906,
4760,1664,15328,-3513,5177,1994,1000,-6000,288000,301908,
4708,2320,15696,-3794,4869,2016,1000,-5000,288000,301921,
4664,2496,15604,-3831,4786,2001,1000,-5000,288000,301923,
4680,2456,15804,-3933,4723,1998,1000,-5000,288000,301925,
4644,2236,16216,-4100,4576,1710,0,-5000,288000,301938,
4756,2160,16284,-4165,4526,1638,0,-5000,288000,301940,
4676,1964,16376,-4205,4527,1490,0,-5000,288000,301943,
4640,1800,16260,-4166,4469,1402,0,-5000,288000,301945,
4148,1352,16308,-4237,4341,985,0,-4000,288000,301958,
4264,1072,16372,-4172,4318,923,0,-4000,288000,301960,
3996,948,16184,-4207,4291,882,0,-4000,288000,301963,
4104,544,15896,-4171,4131,659,0,-4000,288000,301975,
4088,512,15848,-4230,4041,635,0,-4000,288000,301978,
4144,448,15848,-4249,4006,540,0,-4000,288000,301980,
4352,460,15744,-4189,3930,437,0,-4000,288000,301983,
4284,708,15996,-4344,3643,416,0,-3000,288000,301995,
4212,836,16136,-4317,3606,472,0,-3000,288000,301998,
4340,836,16148,-4340,3690,469,-1000,-3000,288000,302000,
4272,684,15868,-4389,4229,315,-1000,-3000,288000,302013,
4360,584,15896,-4422,4329,259,-1000,-3000,288000,302015,
4156,560,15964,-4399,4457,196,-1000,-3000,288000,302017,
3796,556,16344,-4599,4449,147,-2000,-2000,288000,302030,
3704,580,16352,-4642,4447,167,-2000,-2000,288000,302032,
3644,636,16404,-4652,4376,193,-2000,-2000,288000,302035,
3236,332,16472,-4777,4023,92,-2000,-2000,288000,302048,
3316,104,16624,-4775,3859,62,-2000,-2000,288000,302050,
3108,72,16456,-4798,3758,15,-2000,-2000,288000,302052,
3184,-24,16532,-4778,3680,-53,-2000,-2000,288000,302055,
2964,-296,16236,-4779,3216,-343,-3000,-1000,288000,302067,
2956,-344,16156,-4760,3136,-388,-3000,-1000,288000,302070,
2728,-276,16388,-4812,3018,-364,-3000,-1000,288000,302072,
3412,-144,16504,-4943,2449,-518,-3000,-1000,288000,302085,
3548,-64,16768,-4977,2317,-553,-4000,-1000,288000,302088,
3568,8,16652,-5035,2239,-601,-4000,-1000,288000,302090,
4060,-112,16924,-5064,2189,-947,-4000,-1000,288000,302103,
4016,-156,17040,-5102,2267,-991,-4000,-1000,288000,302105,
4108,-356,17100,-5098,2328,-1043,-4000,-1000,288000,302107,
3904,-656,17280,-5108,2706,-1268,-5000,-1000,288000,302120,
3928,-536,17252,-5053,2737,-1307,-5000,-1000,288000,302122,
3940,-548,17280,-5133,2764,-1311,-5000,-1000,288000,302125,
3828,-604,17200,-5185,2980,-1470,-5000,0,288000,302137,
3748,-608,17324,-5224,3016,-1501,-6000,0,288000,302140,
3828,-560,17208,-5288,3080,-1531,-6000,0,288000,302142,
3568,-624,16796,-5308,3255,-1853,-6000,0,287000,302155,
3324,-636,16944,-5305,3257,-1939,-6000,0,287000,302157,
3156,-668,16944,-5346,3150,-1946,-6000,0,287000,302160,
2592,-984,17160,-5401,2633,-2291,-7000,0,287000,302172,
2644,-1024,17164,-5423,2477,-2256,-7000,0,287000,302175,
2588,-1108,17220,-5460,2357,-2289,-7000,0,287000,302177,
2564,-1404,17620,-5525,1392,-2387,-7000,0,287000,302190,
2812,-1512,17640,-5555,1246,-2456,-8000,0,287000,302192,
2940,-1600,17716,-5498,1074,-2467,-8000,0,287000,302195,
3508,-1392,17768,-5626,626,-2779,-8000,0,286000,302207,
3476,-1348,17840,-5588,574,-2864,-8000,0,286000,302210,
3676,-1256,17836,-5621,604,-2874,-8000,0,286000,302212,
3676,-1008,17676,-5489,863,-3217,-9000,0,286000,302225,
3776,-1064,17592,-5494,964,-3264,-9000,0,286000,302227,
3688,-1064,17668,-5535,1092,-3350,-9000,0,286000,302229,
3524,-1524,17868,-5535,1195,-3607,-10000,0,285000,302242,
3480,-1620,18012,-5546,1235,-3666,-10000,0,285000,302244,
3436,-1584,18068,-5529,1141,-3679,-10000,0,285000,302247,
3420,-1840,18524,-5551,1016,-3785,-10000,0,285000,302259,
3444,-1852,18624,-5496,931,-3817,-10000,0,285000,302262,
3508,-1916,18616,-5477,896,-3805,-10000,0,285000,302264,
3692,-2516,18696,-5266,773,-4177,-11000,0,284000,302277,
3600,-2440,18620,-5246,827,-4250,-11000,0,284000,302280,
3644,-2556,18648,-5209,939,-4318,-11000,0,284000,302282,
3784,-2420,18344,-4950,1228,-4545,-12000,0,284000,302295,
3904,-2496,18400,-4927,1335,-4658,-12000,0,284000,302297,
3828,-2428,18420,-4846,1369,-4721,-12000,0,284000,302299,
3696,-2080,18588,-4764,1646,-5036,-12000,0,283000,302312,
3564,-2052,18720,-4707,1622,-5043,-12000,0,283000,302314,
3640,-2112,18652,-4672,1612,-5049,-12000,0,283000,302317,
3088,-2452,18580,-4486,1554,-5328,-13000,0,282000,302329,
3116,-2648,18460,-4485,1497,-5414,-13000,0,282000,302332,
3012,-2608,18592,-4467,1489,-5491,-13000,0,282000,302334,
2580,-3164,18388,-4281,1126,-5651,-13000,0,282000,302347,
2400,-3272,18332,-4261,1121,-5745,-13000,0,281000,302349,
2360,-3308,18344,-4155,1016,-5695,-13000,0,281000,302352,
2552,-3436,18292,-3976,691,-5924,-14000,0,281000,302365,
2612,-3420,18024,-3997,595,-5808,-14000,0,281000,302367,
2660,-3136,18048,-4014,563,-5814,-14000,0,281000,302369,
2892,-2540,17956,-3960,624,-5692,-14000,-1000,280000,302382,
3064,-2384,18044,-3985,790,-5714,-14000,-1000,280000,302384,
2964,-2288,18156,-3983,916,-5764,-14000,-1000,280000,302387,
2868,-2076,18336,-3904,1257,-5942,-15000,-1000,279000,302400,
2792,-2136,18376,-3890,1256,-6076,-15000,-1000,279000,302402,
2760,-2120,18316,-3860,1188,-6093,-15000,-1000,279000,302404,
2480,-2876,18344,-3731,775,-6548,-15000,-1000,278000,302421,
2356,-2784,18264,-3682,703,-6628,-15000,-1000,278000,302423,
2396,-3056,18404,-3622,609,-6652,-15000,-1000,278000,302426,
2344,-3492,18328,-3461,214,-6750,-16000,-1000,277000,302438,
2448,-3468,18412,-3388,160,-6710,-16000,-1000,277000,302441,
2360,-3464,18384,-3384,99,-6655,-16000,-1000,277000,302443,
2512,-3380,18560,-3199,-155,-6655,-16000,-1000,276000,302456,
2612,-3336,18460,-3191,-128,-6640,-16000,-2000,276000,302458,
2660,-3136,18420,-3192,-100,-6682,-16000,-2000,276000,302461,
2560,-2996,18220,-2942,72,-6796,-16000,-2000,276000,302474,
2648,-2940,18096,-2950,142,-6866,-16000,-2000,275000,302476,
2584,-2928,18260,-2842,126,-6892,-16000,-2000,275000,302478,
2436,-3036,18132,-2762,419,-6986,-17000,-2000,275000,302491,
2512,-3036,18320,-2664,400,-7030,-17000,-2000,274000,302493,
2380,-3016,18244,-2637,386,-7068,-17000,-2000,274000,302496,
2380,-3140,18072,-2519,580,-7211,-17000,-2000,274000,302508,
2304,-3152,18104,-2525,599,-7223,-17000,-2000,274000,302511,
2300,-3220,18044,-2487,626,-7288,-17000,-2000,273000,302513,
1904,-3364,17924,-2313,590,-7243,-17000,-3000,273000,302526,
1824,-3464,18072,-2310,646,-7249,-17000,-3000,273000,302528,
1752,-3568,17784,-2211,627,-7203,-17000,-3000,272000,302531,
1152,-3728,17576,-2144,661,-6947,-17000,-3000,272000,302543,
1220,-3796,17644,-2084,590,-6887,-17000,-3000,272000,302546,
1140,-3748,17572,-2100,576,-6783,-17000,-3000,272000,302548,
1176,-3728,17636,-2086,373,-6545,-17000,-3000,271000,302561,
1052,-3740,17612,-2127,340,-6508,-17000,-3000,271000,302563,
1036,-3700,17532,-2093,290,-6492,-17000,-3000,271000,302566,
1044,-3656,17208,-2154,-254,-6277,-18000,-3000,270000,302578,
1016,-3476,17092,-2184,-307,-6277,-18000,-3000,270000,302581,
976,-3420,16976,-2171,-471,-6207,-18000,-3000,270000,302583,
876,-3276,16708,-2230,-1378,-6079,-18000,-4000,269000,302596,
972,-3360,16708,-2186,-1590,-6034,-18000,-4000,269000,302598,
960,-3404,16812,-2211,-1781,-6035,-18000,-4000,269000,302601,
980,-3332,16780,-2240,-2700,-6134,-18000,-4000,269000,302613,
1020,-3404,16636,-2242,-2755,-6154,-18000,-4000,269000,302616,
1108,-3376,16716,-2210,-2797,-6201,-18000,-4000,269000,302618,
1356,-3496,16896,-2172,-2993,-6278,-18000,-5000,268000,302631,
1440,-3420,16812,-2178,-2942,-6306,-18000,-5000,268000,302633,
1536,-3404,17124,-2131,-2917,-6251,-18000,-5000,268000,302636,
2096,-3448,17244,-2136,-2370,-6263,-18000,-5000,267000,302648,
2148,-3296,17232,-2095,-2281,-6178,-18000,-6000,267000,302651,
2268,-3424,17380,-2086,-2110,-6126,-18000,-6000,267000,302653,
2504,-3436,17612,-1933,-1256,-5928,-18000,-6000,267000,302666,
2472,-3436,17652,-1908,-1070,-5879,-18000,-6000,267000,302668,
2268,-3708,17712,-1624,-463,-5766,-18000,-6000,266000,302681,
2144,-3772,17824,-1593,-400,-5732,-18000,-6000,266000,302683,
2192,-3716,17796,-1531,-280,-5713,-18000,-6000,266000,302685,
1984,-3820,17844,-1251,-187,-5510,-18000,-6000,265000,302698,
1924,-3852,17916,-1208,-155,-5524,-18000,-6000,265000,302701,
1948,-3852,17764,-1165,-197,-5400,-18000,-7000,265000,302703,
2104,-3324,17792,-1012,-135,-5364,-18000,-7000,265000,302716,
2040,-3428,17788,-1016,-114,-5308,-18000,-7000,265000,302718,
1964,-3336,17884,-1002,-96,-5313,-18000,-7000,264000,302721,
2112,-3072,17608,-759,-204,-5369,-18000,-7000,264000,302733,
2056,-3104,17620,-756,-173,-5419,-18000,-7000,264000,302736,
1936,-3096,17588,-707,-108,-5470,-18000,-7000,264000,302738,
2080,-3280,17560,-554,107,-5448,-18000,-7000,263000,302751,
2096,-3272,17488,-524,77,-5462,-18000,-7000,263000,302753,
2128,-3376,17444,-537,26,-5409,-18000,-7000,263000,302755,
2440,-3128,17544,-462,89,-5468,-18000,-7000,263000,302768,
2492,-3184,17548,-514,96,-5406,-18000,-7000,262000,302770,
2508,-3008,17540,-480,150,-5391,-18000,-7000,262000,302773,
2584,-2880,17452,-467,396,-5233,-18000,-8000,262000,302786,
2536,-2996,17424,-475,489,-5253,-18000,-8000,262000,302788,
2508,-3036,17220,-426,441,-5261,-18000,-8000,262000,302790,
2280,-3264,16996,-443,571,-5159,-18000,-8000,261000,302803,
2168,-3196,16920,-395,530,-5119,-18000,-8000,261000,302805,
2048,-3180,16924,-462,497,-5055,-18000,-8000,261000,302808,
2044,-3176,16920,-519,246,-4870,-18000,-8000,260000,302821,
2132,-3100,16740,-534,173,-4801,-18000,-8000,260000,302823,
2176,-3044,16796,-561,180,-4825,-18000,-8000,260000,302825,
2216,-2928,16720,-558,112,-4730,-18000,-8000,260000,302838,
2012,-2844,16796,-549,182,-4760,-18000,-8000,260000,302840,
2140,-2980,16896,-457,175,-4738,-18000,-8000,260000,302843,
2124,-3020,16832,-433,96,-4919,-18000,-8000,259000,302855,
2128,-3012,16736,-394,8,-4944,-18000,-8000,259000,302858,
2204,-2932,16724,-406,12,-4958,-18000,-8000,259000,302860,
2620,-3020,16936,-371,-347,-5091,-18000,-8000,259000,302873,
2684,-3068,16968,-398,-368,-5129,-18000,-9000,258000,302875,
2812,-3052,16908,-351,-369,-5149,-18000,-9000,258000,302878,
2908,-3060,17440,-266,-158,-5065,-17000,-9000,258000,302890,
2768,-3060,17496,-234,-88,-5062,-17000,-9000,258000,302893,
2780,-2996,17416,-200,-62,-5001,-17000,-9000,258000,302895,
2620,-2928,17284,-120,108,-4986,-17000,-9000,257000,302908,
2572,-2980,17248,-79,55,-4908,-17000,-9000,257000,302910,
1892,-2828,17260,13,-111,-4811,-17000,-9000,257000,302923,
1876,-2944,17160,20,-173,-4744,-17000,-9000,257000,302925,
1768,-2972,17144,-3,-227,-4691,-17000,-9000,257000,302927,
1688,-2968,17196,55,-707,-4583,-17000,-9000,256000,302940,
1784,-2992,17224,95,-792,-4603,-17000,-9000,256000,302942,
1764,-2952,17240,155,-830,-4618,-17000,-9000,256000,302945,
2180,-3056,17700,223,-1084,-4529,-17000,-10000,256000,302957,
2304,-3036,17468,310,-953,-4530,-17000,-10000,255000,302960,
2320,-3012,17364,355,-1003,-4455,-17000,-10000,255000,302962,
2920,-2916,17468,501,-655,-4454,-17000,-10000,255000,302975,
2988,-3032,17520,537,-567,-4356,-17000,-10000,255000,302977,
2888,-3108,17448,544,-454,-4384,-16000,-10000,255000,302980,
2604,-3232,17472,854,13,-4235,-16000,-10000,254000,302992,
2568,-3132,17400,893,86,-4180,-16000,-10000,254000,302995,
2612,-3084,17604,969,191,-4156,-16000,-10000,254000,302997,
2304,-2928,17228,1123,311,-3898,-16000,-10000,254000,303010,
2272,-2800,17352,1173,358,-3889,-16000,-10000,254000,303012,
2216,-2768,17456,1169,308,-3814,-16000,-10000,254000,303014,
2000,-2848,17264,1370,472,-3650,-16000,-10000,253000,303027,
2016,-2652,17376,1378,450,-3534,-16000,-10000,253000,303029,
1952,-2764,17280,1383,496,-3518,-16000,-10000,253000,303032,
2128,-2736,17228,1595,556,-3312,-15000,-10000,253000,303045,
2148,-2756,17360,1644,569,-3314,-15000,-10000,253000,303047,
2240,-2780,17248,1694,578,-3322,-15000,-10000,253000,303049,
2176,-2648,17376,1862,378,-3242,-15000,-10000,252000,303062,
2104,-2556,17276,1893,364,-3202,-15000,-10000,252000,303065,
1972,-2584,17232,1923,357,-3138,-15000,-10000,252000,303067,
1808,-2420,17520,2083,369,-2840,-15000,-10000,252000,303080,
1828,-2472,17384,2048,308,-2767,-14000,-10000,252000,303082,
1788,-2420,17436,2058,301,-2745,-14000,-10000,252000,303085,
1900,-2316,17208,2200,370,-2552,-14000,-10000,252000,303097,
1964,-2200,17088,2232,400,-2510,-14000,-10000,252000,303100,
2044,-2120,17092,2286,454,-2502,-14000,-10000,252000,303102,
2060,-1836,16852,2313,744,-2215,-14000,-10000,251000,303115,
2056,-1912,16696,2351,752,-2199,-14000,-10000,251000,303117,
1988,-1892,16776,2295,785,-2106,-14000,-10000,251000,303120,
1948,-1872,16944,2340,1051,-1929,-13000,-10000,251000,303132,
1948,-1908,16852,2335,1089,-1862,-13000,-10000,251000,303135,
1912,-1784,16904,2417,1144,-1847,-13000,-10000,251000,303137,
2016,-1772,16916,2424,1239,-1619,-13000,-10000,251000,303150,
1924,-1692,16824,2446,1274,-1581,-13000,-10000,251000,303152,
2028,-1660,16924,2448,1217,-1581,-13000,-10000,251000,303154,
2044,-1484,16828,2512,1032,-1526,-12000,-10000,251000,303167,
2016,-1464,16544,2525,939,-1466,-12000,-10000,250000,303169,
1964,-1444,16772,2500,871,-1458,-12000,-10000,250000,303172,
1948,-1420,16644,2486,655,-1191,-12000,-10000,250000,303185,
1912,-1296,16744,2496,615,-1153,-12000,-10000,250000,303187,
1920,-1476,16772,2526,575,-1128,-12000,-10000,250000,303189,
1916,-1456,16600,2479,285,-958,-11000,-10000,250000,303202,
1844,-1540,16716,2530,238,-922,-11000,-10000,250000,303204,
1912,-1620,16528,2478,161,-848,-11000,-10000,250000,303207,
2224,-1360,16488,2511,45,-728,-11000,-10000,250000,303219,
2200,-1448,16580,2435,45,-645,-11000,-10000,250000,303222,
2368,-1388,16448,2474,83,-642,-11000,-10000,250000,303224,
2712,-1196,16440,2455,275,-449,-11000,-10000,250000,303237,
2720,-1140,16436,2457,379,-418,-11000,-10000,250000,303239,
2780,-1124,16528,2542,445,-414,-11000,-10000,250000,303242,
2612,-872,16424,2501,690,-293,-10000,-10000,250000,303254,
2504,-876,16504,2534,649,-291,-10000,-10000,250000,303257,
2584,-940,16552,2484,624,-236,-10000,-10000,250000,303259,
2364,-800,16448,2442,347,-141,-10000,-9000,250000,303272,
2376,-812,16524,2377,290,-97,-10000,-9000,250000,303274,
2308,-864,16516,2404,275,-110,-10000,-9000,250000,303277,
2772,-720,16344,2300,-112,-95,-9000,-9000,250000,303289,
2760,-776,16428,2310,-101,-119,-9000,-9000,250000,303291,
2740,-940,16384,2313,-194,-121,-9000,-9000,250000,303294,
2948,-700,16164,2290,-178,-224,-9000,-10000,250000,303307,
2960,-756,16064,2285,-175,-213,-9000,-10000,250000,303309,
2956,-668,16200,2274,-125,-180,-9000,-10000,250000,303311,
3272,-528,16452,2249,21,-146,-9000,-10000,250000,303324,
3264,-512,16520,2237,48,-126,-9000,-10000,250000,303326,
3288,-456,16272,2239,76,-148,-9000,-10000,250000,303329,
3436,-552,16468,2263,255,-141,-8000,-10000,250000,303341,
3308,-388,16324,2253,293,-175,-8000,-10000,250000,303344,
3404,-468,16316,2251,303,-150,-8000,-10000,250000,303346,
3124,-272,15916,2291,520,-227,-8000,-9000,250000,303359,
2920,-444,15948,2222,503,-207,-8000,-9000,250000,303361,
2956,-288,15708,2194,488,-253,-8000,-9000,250000,303364,
2584,-276,16020,2074,309,-285,-8000,-9000,250000,303376,
2540,-228,15988,2031,208,-300,-8000,-9000,250000,303379,
2724,-164,16032,2033,164,-313,-8000,-9000,250000,303381,
2956,-276,16112,1835,-209,-303,-7000,-9000,250000,303394,
2912,-256,16084,1866,-223,-352,-7000,-9000,250000,303396,
3084,-140,16072,1792,-262,-320,-7000,-9000,250000,303398,
3148,-244,15920,1762,-91,-341,-7000,-9000,250000,303411,
3276,-236,15848,1741,-62,-286,-7000,-9000,250000,303413,
3236,-108,15968,1698,34,-293,-7000,-9000,250000,303416,
3148,-200,15884,1667,310,-324,-7000,-9000,249000,303428,
3268,-156,15780,1685,357,-360,-7000,-9000,249000,303431,
3280,-220,15584,1712,379,-355,-7000,-9000,249000,303433,
3296,-264,15572,1557,605,-285,-6000,-9000,249000,303446,
3148,-228,15480,1604,608,-258,-6000,-9000,249000,303448,
3104,-236,15544,1530,682,-191,-6000,-9000,249000,303451,
3012,-36,15560,1410,836,29,-6000,-9000,249000,303463,
2992,-76,15572,1373,903,67,-6000,-9000,249000,303466,
2980,-28,15556,1393,903,77,-6000,-9000,249000,303468,
2828,-188,15436,1256,808,154,-6000,-9000,249000,303481,
2832,-176,15536,1279,744,127,-6000,-9000,249000,303483,
2736,-192,15584,1215,711,149,-6000,-9000,249000,303485,
2596,-124,15552,1199,634,97,-6000,-9000,249000,303488,
2564,-240,15524,1159,169,121,-6000,-9000,249000,303501,
2512,-228,15448,1122,82,105,-6000,-9000,249000,303503,
2656,-208,15492,1163,11,132,-6000,-9000,249000,303505,
2964,32,15572,979,-242,244,-6000,-9000,249000,303518,
3028,16,15700,984,-290,262,-6000,-9000,249000,303520,
3052,68,15692,950,-302,287,-5000,-9000,249000,303523,
3068,64,15812,922,-286,269,-5000,-9000,249000,303525,
3456,228,15716,831,-112,247,-5000,-9000,249000,303538,
3352,128,15624,861,-34,243,-5000,-9000,249000,303540,
3520,112,15676,868,1,236,-5000,-9000,249000,303543,
3216,-24,15604,766,278,223,-5000,-9000,249000,303555,
3124,128,15628,792,282,273,-5000,-9000,249000,303558,
3188,-24,15640,764,271,326,-5000,-9000,249000,303560,
3336,48,15788,709,324,278,-5000,-9000,249000,303563,
3328,144,15652,660,319,357,-5000,-9000,249000,303575,
3308,44,15736,665,410,366,-5000,-9000,249000,303578,
3496,156,15560,683,413,359,-5000,-9000,249000,303580,
3588,204,15540,578,725,392,-5000,-9000,250000,303593,
3520,340,15472,598,730,406,-5000,-9000,250000,303595,
3476,464,15428,529,788,393,-5000,-9000,250000,303597,
3460,424,15480,506,848,395,-5000,-9000,250000,303600,
3228,580,15404,371,721,360,-5000,-9000,250000,303612,
3260,608,15320,358,702,353,-5000,-9000,250000,303615,
3036,540,15556,329,598,351,-5000,-9000,250000,303617,
2936,492,15780,34,140,357,-5000,-9000,250000,303630,
2892,484,15684,52,39,407,-5000,-9000,250000,303632,
2832,424,15716,-17,-31,404,-5000,-9000,250000,303635,
2940,512,15724,-58,-77,413,-5000,-9000,250000,303637,
3132,352,15652,-254,-326,517,-5000,-9000,250000,303650,
3140,388,15700,-281,-322,505,-5000,-9000,250000,303652,
3180,452,15856,-299,-352,543,-5000,-9000,250000,303655,
3560,200,15988,-378,-188,473,-5000,-9000,250000,303667,
3576,280,16056,-314,-166,525,-5000,-9000,250000,303670,
3736,232,15888,-346,-100,467,-5000,-9000,250000,303672,
3776,104,16052,-207,124,346,-5000,-9000,250000,303685,
3712,160,16112,-232,180,325,-5000,-9000,250000,303687,
3776,136,16080,-172,263,263,-5000,-9000,250000,303690,
3728,84,16016,-145,305,264,-5000,-9000,250000,303692,
3580,364,16256,-104,586,241,-5000,-9000,250000,303705,
3588,324,16208,-107,582,233,-5000,-9000,250000,303707,
3588,408,16160,-116,604,232,-5000,-9000,250000,303709,
3560,672,16380,-149,787,284,-5000,-9000,250000,303722,
3660,708,16256,-180,831,258,-5000,-9000,250000,303724,
3620,620,16256,-176,876,235,-5000,-9000,250000,303727,
3620,656,16268,-175,860,231,-5000,-9000,250000,303729,
3260,632,16012,-322,995,184,-5000,-9000,250000,303742,
3200,752,15900,-334,937,215,-5000,-9000,250000,303744,
3008,648,15832,-393,931,245,-5000,-9000,250000,303747,
2868,480,16036,-542,531,322,-5000,-9000,250000,303759,
2840,508,15996,-585,465,321,-5000,-9000,250000,303762,
2748,632,15928,-605,390,284,-5000,-9000,250000,303764,
2808,560,16080,-607,253,332,-5000,-9000,250000,303767,
2888,412,16256,-699,-78,363,-5000,-9000,250000,303779,
2896,488,16264,-745,-170,404,-5000,-9000,250000,303782,
2980,508,16112,-763,-166,430,-5000,-9000,250000,303784,
