Ax,Ay,Az,Gx,Gy,Gz,Roll,Pitch,Yaw,Timestamp,Target
2120,-3660,15592,-524,161,-162,-19000,-6000,38000,660497,
2140,-3708,15476,-492,119,-152,-19000,-6000,38000,660509,
2192,-3804,15408,-494,121,-166,-19000,-6000,38000,660512,
2160,-3728,15720,-483,86,-156,-19000,-6000,38000,660514,
2220,-3728,15484,-492,97,-173,-19000,-6000,38000,660527,
2180,-3656,15452,-452,124,-180,-19000,-6000,38000,660529,
2180,-3588,15556,-470,120,-206,-19000,-6000,38000,660531,
2192,-3676,15584,-432,135,-230,-19000,-6000,38000,660544,
2176,-3716,15528,-491,73,-200,-19000,-6000,38000,660546,
2184,-3624,15520,-448,135,-212,-19000,-6000,38000,660548,
2120,-3616,15532,-461,90,-222,-19000,-6000,38000,660561,
2292,-3688,15472,-440,108,-215,-19000,-6000,38000,660563,
2224,-3640,15576,-485,71,-212,-19000,-6000,38000,660565,
2168,-3608,15680,-444,123,-234,-19000,-6000,38000,660578,
2164,-3636,15552,-513,75,-249,-19000,-6000,38000,660580,
2244,-3716,15376,-425,87,-259,-19000,-6000,38000,660582,
2268,-3624,15548,-494,11,-274,-19000,-6000,38000,660595,
2176,-3648,15456,-415,72,-249,-19000,-6000,38000,660597,
2216,-3728,15532,-486,21,-267,-19000,-6000,38000,660599,
2204,-3712,15572,-444,100,-271,-19000,-6000,38000,660612,
2268,-3660,15528,-496,5,-252,-19000,-6000,38000,660614,
2264,-3668,15420,-419,104,-272,-19000,-6000,38000,660617,
2248,-3656,15488,-499,37,-272,-19000,-6000,38000,660629,
2284,-3604,15452,-440,138,-247,-19000,-6000,38000,660631,
2324,-3700,15580,-490,137,-271,-19000,-6000,38000,660634,
2328,-3588,15520,-422,122,-259,-19000,-6000,38000,660646,
2180,-3688,15540,-473,82,-263,-19000,-6000,38000,660649,
2224,-3768,15324,-437,136,-273,-19000,-6000,38000,660651,
2328,-3628,15480,-445,48,-267,-19000,-6000,38000,660663,
2252,-3644,15456,-404,102,-276,-19000,-6000,38000,660666,
2264,-3700,15252,-454,42,-256,-19000,-6000,38000,660668,
2408,-3760,15448,-382,106,-242,-19000,-6000,38000,660681,
2388,-3652,15556,-411,33,-244,-19000,-6000,38000,660683,
2384,-3812,15488,-375,96,-268,-19000,-6000,38000,660685,
2360,-3728,15552,-380,5,-218,-19000,-6000,37000,660698,
2344,-3660,15532,-359,77,-231,-19000,-6000,37000,660700,
2428,-3608,15484,-346,6,-224,-19000,-6000,37000,660703,
2436,-3676,15380,-353,101,-208,-19000,-6000,37000,660715,
2316,-3680,15220,-301,103,-208,-19000,-6000,37000,660718,
2384,-3520,15572,-318,142,-214,-19000,-6000,37000,660720,
2444,-3636,15460,-297,121,-176,-19000,-6000,37000,660732,
2296,-3532,15500,-296,163,-189,-19000,-6000,37000,660735,
2244,-3656,15452,-315,90,-176,-19000,-6000,37000,660737,
2276,-3712,15500,-284,102,-147,-19000,-6000,37000,660749,
2228,-3600,15340,-255,142,-146,-19000,-6000,37000,660752,
2332,-3676,15476,-291,79,-139,-19000,-6000,37000,660754,
2408,-3672,15488,-256,83,-126,-19000,-6000,37000,660767,
2284,-3648,15656,-221,127,-128,-19000,-6000,37000,660769,
2316,-3568,15632,-288,127,-130,-19000,-6000,37000,660771,
2332,-3528,15440,-247,155,-118,-19000,-6000,37000,660783,
2332,-3668,15472,-268,112,-128,-19000,-6000,37000,660786,
2216,-3516,15564,-247,152,-111,-19000,-6000,37000,660788,
2140,-3640,15552,-273,141,-150,-19000,-6000,37000,660801,
2244,-3520,15636,-238,204,-135,-19000,-6000,37000,660803,
2368,-3540,15696,-279,126,-141,-19000,-6000,37000,660805,
2216,-3536,15632,-284,201,-160,-19000,-6000,37000,660818,
2264,-3488,15588,-271,111,-162,-19000,-6000,37000,660820,
2216,-3488,15560,-257,183,-166,-19000,-6000,37000,660823,
2256,-3644,15696,-321,105,-195,-19000,-6000,37000,660835,
2244,-3568,15612,-258,124,-179,-19000,-6000,37000,660837,
2184,-3572,15624,-302,86,-205,-19000,-6000,37000,660840,
2244,-3524,15720,-295,154,-189,-19000,-6000,37000,660852,
2276,-3596,15520,-317,107,-212,-19000,-6000,37000,660855,
2176,-3536,15572,-289,166,-201,-19000,-6000,37000,660857,
2284,-3588,15592,-316,126,-212,-19000,-6000,37000,660869,
2256,-3596,15548,-345,113,-239,-19000,-6000,37000,660872,
2252,-3508,15448,-333,124,-205,-19000,-6000,37000,660874,
2212,-3608,15584,-349,119,-217,-19000,-6000,37000,660887,
2228,-3572,15760,-406,143,-237,-19000,-6000,37000,660889,
2264,-3572,15744,-363,99,-201,-19000,-6000,37000,660891,
2380,-3536,15680,-424,95,-215,-19000,-6000,37000,660904,
2368,-3588,15520,-359,197,-190,-19000,-6000,37000,660906,
2284,-3564,15660,-394,126,-226,-19000,-6000,37000,660909,
2300,-3600,15560,-394,182,-204,-19000,-6000,37000,660921,
2368,-3596,15560,-438,113,-169,-19000,-6000,37000,660923,
2300,-3460,15716,-388,181,-183,-19000,-6000,37000,660926,
2364,-3612,15448,-436,90,-134,-19000,-6000,37000,660938,
2296,-3584,15524,-404,156,-169,-19000,-6000,37000,660941,
2384,-3552,15596,-423,88,-147,-19000,-6000,37000,660943,
2372,-3616,15552,-390,168,-154,-19000,-6000,37000,660955,
2260,-3596,15584,-456,70,-151,-19000,-6000,37000,660958,
2384,-3624,15536,-390,134,-138,-19000,-6000,37000,660960,
2268,-3604,15532,-442,105,-172,-19000,-6000,37000,660972,
2248,-3692,15484,-375,127,-131,-19000,-6000,37000,660975,
2304,-3616,15468,-430,68,-146,-19000,-6000,37000,660977,
2380,-3560,15540,-393,106,-154,-19000,-6000,37000,660989,
2380,-3636,15492,-399,52,-123,-19000,-6000,37000,660991,
2288,-3580,15508,-372,119,-133,-19000,-6000,37000,660994,
2272,-3672,15460,-413,72,-137,-19000,-6000,37000,661006,
2368,-3608,15464,-342,141,-93,-19000,-6000,37000,661008,
2276,-3516,15552,-411,95,-92,-19000,-6000,37000,661011,
2260,-3556,15548,-334,142,-96,-19000,-6000,37000,661023,
2332,-3580,15528,-407,114,-107,-19000,-6000,37000,661026,
2304,-3624,15496,-331,116,-69,-19000,-6000,37000,661028,
2272,-3452,15512,-358,130,-112,-19000,-6000,37000,661040,
2312,-3456,15580,-383,60,-127,-19000,-6000,37000,661043,
2252,-3584,15600,-326,148,-112,-19000,-6000,37000,661045,
2208,-3468,15532,-323,182,-135,-19000,-6000,37000,661057,
2272,-3472,15724,-308,247,-112,-19000,-6000,37000,661060,
2260,-3580,15556,-305,243,-120,-19000,-6000,37000,661062,
2208,-3464,15524,-326,307,-113,-19000,-6000,37000,661074,
2124,-3560,15556,-338,243,-100,-19000,-6000,37000,661077,
2116,-3396,15656,-337,237,-104,-19000,-6000,37000,661079,
2356,-3452,16180,-515,264,-44,-19000,-6000,37000,661091,
2272,-3460,15972,-440,442,-58,-19000,-6000,37000,661094,
2172,-3624,15840,-378,298,-88,-19000,-6000,37000,661096,
2104,-3752,15520,-389,-59,-1,-19000,-6000,37000,661109,
2276,-3648,15540,-414,-109,14,-19000,-6000,37000,661111,
2340,-3592,15380,-378,0,31,-19000,-6000,37000,661113,
2360,-3368,15480,-436,225,-20,-19000,-6000,37000,661126,
2332,-3512,15488,-372,323,-22,-19000,-6000,37000,661128,
2320,-3624,15352,-425,311,-39,-19000,-6000,37000,661130,
2104,-3632,15776,-419,339,-67,-19000,-6000,37000,661143,
2024,-3660,15688,-454,275,-73,-19000,-6000,37000,661145,
2040,-3736,15700,-413,333,-78,-19000,-6000,37000,661148,
2080,-3544,15688,-506,242,-94,-19000,-6000,37000,661160,
2052,-3624,15640,-445,250,-73,-19000,-6000,37000,661162,
1992,-3556,15488,-507,205,-71,-19000,-6000,37000,661165,
2236,-3684,15596,-486,196,-104,-19000,-6000,37000,661177,
2196,-3736,15540,-535,124,-134,-19000,-6000,37000,661180,
2140,-3668,15548,-486,186,-114,-19000,-6000,37000,661182,
2244,-3584,15688,-527,95,-128,-19000,-6000,37000,661195,
2172,-3592,15664,-493,197,-117,-19000,-6000,37000,661197,
2188,-3612,15600,-539,142,-137,-19000,-6000,37000,661199,
2200,-3552,15612,-502,208,-158,-19000,-6000,37000,661212,
2236,-3524,15472,-546,145,-144,-19000,-6000,37000,661214,
2224,-3528,15636,-489,216,-148,-19000,-6000,37000,661216,
2116,-3508,15540,-552,86,-130,-19000,-6000,37000,661229,
2096,-3552,15508,-527,98,-185,-19000,-6000,37000,661231,
2148,-3472,15612,-597,-8,-141,-19000,-6000,37000,661233,
2228,-3496,15600,-458,101,-195,-19000,-6000,37000,661246,
2332,-3344,15548,-518,7,-176,-19000,-6000,37000,661248,
2340,-3364,15496,-462,34,-138,-19000,-6000,37000,661251,
2156,-3564,15324,-527,8,-236,-19000,-6000,36000,661263,
2180,-3584,15464,-492,49,-228,-19000,-6000,36000,661265,
2172,-3632,15540,-554,15,-194,-19000,-6000,36000,661268,
2284,-3496,15604,-478,197,-208,-19000,-6000,36000,661280,
2368,-3592,15648,-499,105,-218,-19000,-6000,36000,661283,
2404,-3484,15560,-468,208,-235,-19000,-6000,36000,661285,
2156,-3584,15672,-492,127,-232,-19000,-6000,36000,661298,
2204,-3588,15616,-479,159,-232,-19000,-6000,36000,661300,
2288,-3644,15640,-515,66,-224,-19000,-6000,36000,661302,
2172,-3448,15528,-491,146,-238,-19000,-6000,36000,661315,
2196,-3504,15572,-531,68,-233,-19000,-6000,36000,661317,
2284,-3568,15716,-502,129,-244,-19000,-6000,36000,661319,
2228,-3564,15564,-547,62,-248,-19000,-6000,36000,661332,
2280,-3476,15584,-504,155,-244,-19000,-6000,36000,661334,
2296,-3496,15632,-552,96,-270,-19000,-6000,36000,661336,
2244,-3480,15612,-534,120,-255,-19000,-6000,36000,661349,
2392,-3640,15556,-518,87,-234,-19000,-6000,36000,661351,
2252,-3584,15680,-538,144,-243,-19000,-6000,36000,661354,
2296,-3460,15548,-541,69,-233,-19000,-6000,36000,661366,
2304,-3504,15508,-513,121,-242,-19000,-6000,36000,661368,
2344,-3448,15668,-538,58,-248,-19000,-6000,36000,661371,
2332,-3468,15476,-553,36,-246,-19000,-6000,36000,661383,
2364,-3404,15564,-516,115,-252,-19000,-6000,36000,661386,
2336,-3640,15576,-565,66,-228,-19000,-6000,36000,661388,
2272,-3648,15592,-527,110,-247,-19000,-6000,36000,661401,
2244,-3568,15620,-567,67,-274,-19000,-6000,36000,661403,
2260,-3504,15656,-536,140,-244,-19000,-6000,36000,661405,
2296,-3604,15572,-554,42,-245,-19000,-6000,36000,661418,
2356,-3588,15484,-517,117,-250,-19000,-6000,36000,661420,
2228,-3440,15616,-580,41,-212,-19000,-6000,36000,661423,
2384,-3612,15588,-535,134,-219,-19000,-6000,36000,661435,
2356,-3556,15628,-603,70,-218,-19000,-6000,36000,661437,
2320,-3656,15808,-531,123,-207,-19000,-6000,36000,661440,
2324,-3612,15612,-602,77,-199,-19000,-6000,36000,661452,
2272,-3572,15740,-540,140,-162,-19000,-6000,36000,661455,
2228,-3544,15768,-608,84,-174,-19000,-6000,36000,661457,
2344,-3632,15564,-633,89,-145,-19000,-6000,36000,661469,
2304,-3668,15572,-572,135,-156,-19000,-6000,36000,661472,
2368,-3592,15588,-619,105,-144,-19000,-6000,36000,661474,
2340,-3580,15488,-571,168,-128,-19000,-6000,36000,661487,
2224,-3652,15536,-649,95,-91,-19000,-6000,36000,661489,
2312,-3648,15436,-589,145,-120,-19000,-6000,36000,661491,
2244,-3648,15388,-634,71,-110,-19000,-6000,36000,661504,
2272,-3636,15436,-584,141,-70,-19000,-6000,36000,661506,
2288,-3552,15572,-650,68,-99,-19000,-6000,36000,661509,
2216,-3660,15516,-588,119,-63,-19000,-6000,36000,661521,
2256,-3660,15480,-596,80,-87,-19000,-6000,36000,661523,
2212,-3620,15604,-592,121,-87,-19000,-6000,36000,661526,
2256,-3628,15616,-595,64,-77,-19000,-6000,36000,661538,
2208,-3508,15424,-576,118,-75,-19000,-6000,36000,661541,
2240,-3644,15580,-588,74,-47,-19000,-6000,36000,661543,
2304,-3532,15388,-573,140,-97,-19000,-6000,36000,661555,
2260,-3544,15448,-590,71,-80,-19000,-6000,36000,661558,
2236,-3628,15544,-545,170,-68,-19000,-6000,36000,661560,
2216,-3584,15428,-572,111,-99,-19000,-6000,36000,661573,
2304,-3608,15636,-552,167,-105,-19000,-6000,36000,661575,
2184,-3628,15576,-572,122,-70,-19000,-6000,36000,661577,
2264,-3580,15700,-583,85,-87,-19000,-6000,36000,661590,
2120,-3548,15476,-512,139,-109,-19000,-6000,36000,661592,
2180,-3576,15340,-553,112,-117,-19000,-6000,36000,661594,
2264,-3600,15368,-474,174,-83,-19000,-6000,36000,661607,
2176,-3580,15472,-540,145,-135,-19000,-6000,36000,661609,
2164,-3604,15584,-485,145,-107,-19000,-6000,36000,661611,
2184,-3564,15460,-498,129,-160,-19000,-6000,36000,661624,
2284,-3644,15620,-460,126,-146,-19000,-6000,36000,661626,
2256,-3480,15496,-478,144,-120,-19000,-6000,36000,661628,
2188,-3640,15332,-460,118,-150,-19000,-6000,36000,661641,
2300,-3564,15420,-440,117,-164,-19000,-6000,36000,661643,
2148,-3688,15484,-457,112,-132,-19000,-6000,36000,661646,
2232,-3696,15624,-407,156,-155,-19000,-6000,36000,661658,
2332,-3652,15492,-469,83,-164,-19000,-6000,36000,661660,
2256,-3648,15596,-419,149,-174,-19000,-6000,36000,661663,
2300,-3556,15528,-472,76,-154,-19000,-6000,36000,661675,
2288,-3688,15584,-404,157,-157,-19000,-6000,36000,661678,
2252,-3672,15588,-457,128,-169,-19000,-6000,36000,661680,
2228,-3700,15512,-403,125,-149,-19000,-6000,36000,661692,
2260,-3732,15512,-444,120,-138,-19000,-6000,36000,661695,
2176,-3696,15548,-416,169,-150,-19000,-6000,36000,661697,
2300,-3700,15624,-475,121,-124,-19000,-6000,36000,661710,
2340,-3668,15544,-426,153,-115,-19000,-6000,36000,661712,
2324,-3668,15732,-480,121,-132,-19000,-6000,36000,661714,
2292,-3616,15436,-453,165,-153,-19000,-6000,36000,661727,
2264,-3676,15488,-517,124,-156,-19000,-6000,36000,661729,
2272,-3660,15584,-459,170,-132,-19000,-6000,36000,661732,
2268,-3660,15728,-534,79,-138,-19000,-6000,36000,661744,
2296,-3624,15600,-477,158,-163,-19000,-6000,36000,661746,
2276,-3564,15528,-562,120,-125,-19000,-6000,36000,661749,
2084,-3516,15676,-490,146,-165,-19000,-6000,36000,661761,
2240,-3584,15628,-530,114,-159,-19000,-6000,36000,661764,
2284,-3604,15572,-484,155,-143,-19000,-6000,36000,661766,
2224,-3568,15560,-542,76,-133,-19000,-6000,36000,661778,
2236,-3516,15592,-504,121,-149,-19000,-6000,36000,661781,
2276,-3596,15548,-562,69,-151,-19000,-6000,36000,661783,
2248,-3568,15504,-534,92,-154,-19000,-6000,35000,661796,
2240,-3544,15668,-538,150,-143,-19000,-6000,35000,661798,
2284,-3604,15632,-562,84,-180,-19000,-6000,35000,661800,
2136,-3672,15488,-549,161,-197,-19000,-6000,35000,661813,
2188,-3612,15612,-565,68,-174,-19000,-6000,35000,661815,
2268,-3608,15612,-542,162,-165,-19000,-6000,35000,661818,
2192,-3668,15572,-594,100,-185,-19000,-6000,35000,661830,
2232,-3636,15644,-543,175,-180,-19000,-6000,35000,661832,
2140,-3568,15508,-607,134,-156,-19000,-6000,35000,661835,
2232,-3736,15516,-561,166,-163,-19000,-6000,35000,661847,
2004,-3632,15472,-567,123,-180,-19000,-6000,35000,661849,
2148,-3684,15404,-554,178,-188,-19000,-6000,35000,661852,
2084,-3736,15592,-548,203,-194,-19000,-6000,35000,661864,
2180,-3768,15508,-566,201,-210,-19000,-6000,35000,661867,
2108,-3724,15456,-557,175,-222,-19000,-6000,35000,661869,
2056,-3852,15448,-528,232,-229,-19000,-6000,35000,661881,
1988,-3740,15556,-558,179,-240,-19000,-6000,35000,661884,
2144,-3816,15556,-507,240,-237,-19000,-6000,35000,661886,
2112,-3844,15556,-536,130,-317,-19000,-6000,35000,661898,
2200,-3804,15440,-499,201,-286,-19000,-6000,35000,661901,
2048,-3824,15352,-547,136,-326,-19000,-6000,35000,661903,
2184,-3776,15468,-490,121,-394,-19000,-6000,35000,661916,
2124,-3808,15520,-511,51,-414,-19000,-6000,35000,661918,
2112,-3744,15320,-500,80,-433,-19000,-6000,35000,661920,
2164,-3932,15480,-492,21,-509,-19000,-6000,35000,661933,
2352,-3956,15380,-490,60,-515,-19000,-6000,35000,661935,
2248,-3868,15388,-487,28,-552,-19000,-6000,35000,661938,
2308,-4028,15488,-461,78,-620,-19000,-6000,35000,661950,
2200,-4076,15412,-448,55,-617,-19000,-6000,35000,661952,
2328,-4060,15448,-443,116,-635,-19000,-6000,35000,661955,
2208,-4096,15244,-394,78,-658,-19000,-6000,35000,661967,
2308,-3996,15300,-387,136,-688,-19000,-6000,35000,661969,
2264,-4132,15360,-399,56,-690,-19000,-6000,35000,661972,
2240,-4116,15132,-329,83,-813,-19000,-6000,35000,661984,
2204,-4136,15020,-322,-1,-801,-19000,-6000,35000,661986,
2052,-4072,14968,-326,-23,-825,-19000,-6000,35000,661989,
2036,-4224,14736,-189,-176,-973,-19000,-6000,35000,662001,
2068,-4256,14792,-187,-145,-1027,-19000,-7000,35000,662004,
1992,-4188,14660,-145,-204,-1063,-19000,-7000,35000,662006,
1988,-4496,14488,50,-296,-1324,-19000,-7000,35000,662019,
1980,-4452,14428,64,-394,-1347,-19000,-7000,35000,662021,
1924,-4388,14460,154,-351,-1398,-19000,-7000,35000,662023,
1892,-4492,14132,399,-589,-1721,-19000,-7000,34000,662036,
1848,-4508,14016,485,-528,-1750,-19000,-7000,34000,662038,
1876,-4564,14052,513,-675,-1871,-19000,-7000,34000,662040,
1772,-4664,13632,909,-785,-2252,-19000,-7000,34000,662053,
1784,-4636,13804,934,-917,-2330,-19000,-7000,34000,662055,
1748,-4748,13684,1072,-842,-2395,-19000,-7000,34000,662057,
1884,-4620,13700,1443,-964,-2782,-19000,-7000,34000,662070,
1876,-4648,13380,1518,-898,-2856,-19000,-7000,34000,662072,
1812,-4568,13572,1569,-1010,-2915,-19000,-7000,34000,662075,
1872,-4416,13620,2017,-1048,-3236,-19000,-7000,34000,662087,
1892,-4400,13568,2081,-1144,-3275,-19000,-7000,33000,662090,
1796,-4428,13508,2185,-1123,-3328,-18000,-7000,33000,662092,
1740,-4380,13216,2635,-1342,-3617,-18000,-8000,33000,662104,
1724,-4340,13124,2744,-1358,-3645,-18000,-8000,33000,662107,
1816,-4280,13004,2804,-1449,-3733,-18000,-8000,33000,662109,
1816,-4236,12992,3322,-1540,-3993,-18000,-8000,33000,662122,
1704,-4092,12832,3371,-1656,-4027,-18000,-8000,33000,662124,
1648,-4068,12788,3499,-1576,-4054,-18000,-8000,33000,662126,
1864,-4176,12788,3983,-1788,-4315,-17000,-8000,32000,662139,
1772,-4100,12736,4099,-1900,-4398,-17000,-8000,32000,662141,
1956,-4012,12588,4226,-1867,-4465,-17000,-9000,32000,662143,
1828,-3792,12760,4730,-1965,-4833,-16000,-9000,32000,662156,
1888,-3788,12588,4862,-1942,-4908,-16000,-9000,32000,662158,
1868,-3896,12444,4958,-2044,-5025,-16000,-9000,32000,662161,
1828,-3684,12472,5491,-2259,-5519,-16000,-9000,31000,662173,
1800,-3668,12492,5625,-2389,-5648,-15000,-9000,31000,662175,
1876,-3572,12460,5678,-2371,-5719,-15000,-9000,31000,662178,
2052,-3032,12368,6157,-2919,-6326,-15000,-10000,30000,662190,
2048,-2892,12460,6226,-2953,-6409,-15000,-10000,30000,662193,
2600,-2120,12492,6538,-3427,-6908,-14000,-10000,30000,662205,
2588,-2140,12536,6670,-3382,-6956,-14000,-11000,30000,662207,
2676,-2024,12456,6666,-3420,-7089,-14000,-11000,30000,662210,
2800,-1672,12520,7057,-3635,-7543,-13000,-11000,29000,662222,
2792,-1648,12432,7067,-3792,-7645,-13000,-11000,29000,662225,
2884,-1492,12200,7228,-3823,-7708,-12000,-11000,29000,662227,
3040,-1256,12112,7603,-4247,-8028,-11000,-12000,28000,662239,
2872,-1256,12200,7692,-4219,-8024,-11000,-12000,28000,662242,
3112,-1124,12072,7748,-4327,-8107,-11000,-12000,28000,662244,
3276,-660,12240,8221,-4421,-8297,-10000,-13000,27000,662256,
3244,-560,12416,8248,-4474,-8347,-10000,-13000,27000,662259,
3324,-588,12524,8371,-4449,-8360,-10000,-13000,27000,662261,
3348,-360,12276,8875,-4487,-8475,-9000,-13000,26000,662273,
3396,-392,12380,9025,-4474,-8496,-8000,-14000,26000,662276,
3376,-200,12580,9549,-4278,-8623,-7000,-14000,25000,662288,
3476,-92,12676,9710,-4247,-8650,-7000,-14000,25000,662291,
3412,44,12596,9764,-4237,-8692,-7000,-14000,25000,662293,
3436,792,12652,10272,-3907,-8894,-6000,-15000,24000,662306,
3356,832,12604,10304,-3855,-8951,-5000,-15000,24000,662308,
3392,904,12532,10444,-3738,-8952,-5000,-15000,24000,662310,
3284,1504,12336,10817,-3432,-9080,-4000,-15000,23000,662323,
3292,1464,12328,10954,-3310,-9082,-3000,-15000,22000,662325,
3288,1712,12328,11026,-3332,-9093,-3000,-15000,22000,662327,
3176,2312,11996,11614,-2554,-9198,-2000,-16000,21000,662340,
3288,2280,12112,11652,-2538,-9264,-2000,-16000,21000,662342,
3256,2448,12272,11796,-2430,-9313,-1000,-16000,21000,662345,
3272,3160,12180,12425,-2315,-9460,0,-16000,20000,662357,
3124,3392,12420,12495,-2151,-9439,0,-16000,20000,662359,
3256,3612,12396,12514,-2201,-9510,0,-16000,20000,662361,
3192,4140,12512,13118,-1820,-9496,1000,-16000,19000,662374,
3100,4228,12572,13155,-1860,-9535,2000,-16000,19000,662376,
3056,4204,12648,13208,-1818,-9556,2000,-16000,18000,662379,
3040,4792,12796,13658,-1624,-9618,4000,-16000,17000,662391,
3104,4860,12776,13836,-1582,-9664,4000,-16000,17000,662394,
3160,4968,12676,13834,-1506,-9666,4000,-16000,17000,662396,
3220,5684,12600,14300,-1178,-9675,6000,-16000,16000,662409,
3220,5744,12520,14349,-1082,-9671,7000,-16000,16000,662411,
3176,5820,12588,14477,-1106,-9688,7000,-16000,16000,662413,
3064,6412,12400,14843,-790,-9741,9000,-16000,15000,662426,
3016,6460,12336,14937,-782,-9800,9000,-16000,14000,662428,
3060,6768,12356,14967,-654,-9750,9000,-16000,14000,662430,
3196,7644,12244,15305,-391,-9797,11000,-16000,13000,662443,
3268,7880,12388,15321,-208,-9739,12000,-16000,13000,662445,
3220,8040,12340,15306,-286,-9788,12000,-16000,13000,662448,
3168,8688,12300,15456,33,-9707,14000,-16000,12000,662460,
3292,8876,12244,15422,-14,-9719,14000,-16000,12000,662463,
3272,9032,12288,15478,68,-9621,15000,-16000,11000,662465,
3432,9636,12536,15396,235,-9483,16000,-15000,11000,662477,
3536,9664,12520,15468,275,-9413,17000,-15000,10000,662480,
3516,9760,12516,15418,311,-9378,17000,-15000,10000,662482,
3480,10524,12688,15380,389,-9118,19000,-15000,9000,662495,
3508,10664,12644,15267,367,-9041,19000,-15000,9000,662497,
3444,10640,12492,15279,341,-9005,20000,-15000,9000,662499,
3552,10848,12500,15019,306,-8729,21000,-15000,8000,662512,
3404,10792,12464,15044,286,-8699,22000,-14000,8000,662514,
3396,10832,12352,14936,335,-8599,22000,-14000,8000,662516,
3444,11092,12456,14884,221,-8341,24000,-14000,7000,662529,
3428,11248,12272,14766,205,-8306,24000,-14000,7000,662531,
3432,11336,12336,14718,114,-8279,24000,-14000,7000,662534,
3156,11484,12208,14529,-275,-8023,26000,-14000,6000,662546,
3244,11540,12092,14518,-420,-8025,26000,-14000,6000,662548,
3160,11464,12260,14489,-475,-7948,27000,-13000,6000,662551,
3216,11740,12196,14390,-990,-7812,28000,-13000,5000,662563,
3240,11912,12256,14345,-1017,-7773,29000,-13000,5000,662565,
3132,11940,12272,14337,-1177,-7760,29000,-13000,5000,662568,
3400,12236,12252,14129,-1162,-7660,31000,-13000,4000,662580,
3480,12284,12244,14104,-1225,-7678,31000,-13000,4000,662583,
3584,12280,12268,14093,-1073,-7639,31000,-13000,4000,662585,
3664,12632,12168,14003,-945,-7628,33000,-12000,3000,662597,
3496,12540,12284,14058,-792,-7581,33000,-12000,3000,662600,
3424,12612,12128,13961,-830,-7581,33000,-12000,3000,662602,
3344,12984,11824,13706,-688,-7471,35000,-12000,2000,662615,
3244,12964,11884,13598,-783,-7459,35000,-12000,2000,662617,
3156,12856,11808,13632,-799,-7440,36000,-12000,2000,662619,
2984,13128,11608,13445,-1255,-7292,37000,-11000,1000,662632,
2832,12972,11684,13566,-1329,-7246,37000,-11000,1000,662634,
2948,13080,11492,13472,-1366,-7192,38000,-11000,1000,662637,
3496,13512,11588,13326,-1326,-7004,39000,-11000,0,662649,
3496,13740,11512,13336,-1273,-6911,39000,-11000,0,662651,
3472,13900,11520,13209,-1234,-6886,40000,-11000,0,662654,
3504,14196,11532,12916,-886,-6652,41000,-10000,0,662666,
3476,14224,11416,12913,-860,-6608,41000,-10000,359000,662669,
3444,14300,11580,12806,-774,-6547,41000,-10000,359000,662671,
3344,14656,11448,12628,-731,-6162,43000,-10000,359000,662683,
3292,14716,11404,12447,-652,-6089,43000,-10000,359000,662686,
3400,14808,11404,12412,-590,-6062,43000,-10000,359000,662688,
3596,15000,11084,12030,322,-5726,45000,-9000,358000,662701,
3624,15064,11176,11962,531,-5701,45000,-9000,358000,662703,
3680,15028,11112,11803,774,-5670,45000,-9000,358000,662705,
3220,15140,11064,11470,1181,-5210,46000,-9000,358000,662718,
3224,15208,11108,11364,1245,-5107,47000,-9000,358000,662720,
3112,15188,11124,11345,1244,-5055,47000,-9000,358000,662723,
3020,15144,11012,10794,1482,-4680,48000,-8000,358000,662735,
3056,15256,10928,10728,1524,-4621,48000,-8000,358000,662738,
2988,15284,10928,10603,1600,-4520,48000,-8000,358000,662740,
2568,15572,10852,10133,1624,-4161,49000,-8000,357000,662752,
2528,15620,10932,9999,1590,-4077,49000,-8000,357000,662755,
2324,15680,10884,9964,1501,-4036,50000,-8000,357000,662757,
2244,15772,10368,9432,1166,-3663,51000,-7000,357000,662770,
2332,15736,10292,9395,1224,-3637,51000,-7000,357000,662772,
2280,15648,10252,9272,1134,-3546,51000,-7000,357000,662774,
2388,15516,10196,8803,1215,-3294,52000,-7000,357000,662787,
2276,15552,10268,8704,1143,-3265,52000,-7000,357000,662789,
2100,15548,10056,8658,1240,-3199,52000,-7000,357000,662792,
2040,15836,9872,8265,1094,-2906,53000,-6000,357000,662804,
2076,15824,9848,8212,1174,-2870,53000,-6000,357000,662807,
1936,15936,9648,8075,1114,-2836,53000,-6000,357000,662809,
2068,16096,9216,7636,1437,-2696,54000,-6000,357000,662821,
2072,15964,9204,7566,1324,-2640,54000,-6000,357000,662824,
1996,15868,9472,7626,1412,-2560,54000,-6000,357000,662826,
1856,15524,9088,7219,1514,-2324,55000,-6000,357000,662838,
1864,15576,9080,7219,1571,-2275,55000,-6000,357000,662841,
1832,15504,8960,7181,1447,-2224,55000,-5000,357000,662843,
1304,15580,8820,6949,1234,-1988,56000,-5000,357000,662855,
1232,15616,8636,6942,1136,-1977,56000,-5000,357000,662857,
1160,15704,8520,6823,1062,-1955,56000,-5000,357000,662860,
1128,15860,8268,6469,705,-2102,57000,-5000,357000,662872,
792,15772,8092,6435,585,-2076,57000,-5000,357000,662874,
744,15720,8112,6453,312,-2058,57000,-5000,357000,662877,
484,15676,8012,6263,-593,-1973,58000,-5000,357000,662889,
572,15556,7888,6308,-717,-1954,58000,-5000,356000,662891,
720,15520,7568,6230,-759,-2031,58000,-5000,356000,662894,
788,15236,8192,6501,-837,-1932,59000,-5000,356000,662906,
1620,15596,7064,5968,-220,-1887,59000,-4000,356000,662912,
1740,15424,7756,5954,-251,-1865,59000,-4000,356000,662914,
1768,15500,8276,6132,-329,-1868,59000,-4000,356000,662916,
1900,15724,8000,5608,576,-1864,60000,-4000,356000,662929,
1848,15692,8116,5671,748,-1828,60000,-4000,356000,662931,
1740,15792,8272,5555,810,-1822,60000,-4000,356000,662934,
1616,15748,8044,5164,1407,-1715,61000,-4000,356000,662946,
1516,15756,7964,5141,1488,-1713,61000,-4000,356000,662948,
1624,15844,7916,5018,1614,-1680,61000,-4000,356000,662951,
1312,15908,7632,4719,1935,-1648,61000,-4000,356000,662963,
1224,15812,7756,4585,1940,-1622,61000,-4000,356000,662965,
1324,15836,7872,4586,1982,-1601,61000,-4000,356000,662968,
1024,15768,7552,4247,1834,-1437,62000,-3000,356000,662980,
1024,15856,7412,4262,1797,-1383,62000,-3000,356000,662982,
952,15880,7512,4141,1669,-1370,62000,-3000,356000,662985,
936,15868,7284,3890,1265,-1125,62000,-3000,357000,662997,
1024,15788,7208,3861,1174,-1095,62000,-3000,357000,663000,
908,15752,7148,3831,1169,-1048,62000,-3000,357000,663002,
1308,15732,7224,3587,1132,-775,63000,-3000,357000,663015,
1372,15768,7356,3467,1126,-784,63000,-3000,357000,663017,
1424,15688,7320,3453,1200,-726,63000,-3000,357000,663019,
1468,15868,7464,3087,1575,-525,63000,-3000,357000,663032,
1352,15800,7456,3044,1638,-470,63000,-3000,357000,663034,
1376,15836,7424,2986,1755,-427,63000,-3000,357000,663036,
1316,15856,7420,2574,2047,-269,64000,-3000,357000,663049,
1260,15756,7416,2544,2079,-245,64000,-3000,357000,663051,
1208,15804,7412,2443,2144,-223,64000,-3000,357000,663054,
1004,15724,7180,2164,2302,-94,64000,-3000,357000,663066,
956,15696,7196,2047,2330,-81,64000,-3000,357000,663068,
952,15744,7068,1985,2318,-67,64000,-3000,357000,663071,
600,15548,7168,1701,2267,-54,64000,-2000,357000,663083,
600,15592,7084,1710,2231,-49,64000,-2000,357000,663086,
456,15520,6908,1621,2219,-43,64000,-2000,358000,663088,
548,15596,6928,1400,1943,2,64000,-2000,358000,663101,
436,15560,7132,1313,1873,31,64000,-2000,358000,663103,
436,15608,7100,1269,1760,28,64000,-2000,358000,663105,
468,15656,7120,1208,1742,47,64000,-2000,358000,663108,
348,15576,7032,919,1384,101,64000,-2000,358000,663120,
224,15596,6952,840,1322,76,64000,-2000,358000,663122,
352,15480,7028,792,1256,112,64000,-2000,358000,663125,
100,15464,6964,501,818,108,65000,-2000,358000,663137,
60,15468,7016,507,786,93,65000,-2000,358000,663140,
80,15604,6876,383,613,78,65000,-2000,358000,663142,
100,15536,6828,422,595,94,65000,-2000,358000,663144,
144,15584,6800,100,157,44,65000,-2000,358000,663157,
164,15436,6724,95,152,70,65000,-2000,358000,663159,
264,15500,6664,-11,10,58,65000,-2000,358000,663161,
208,15428,6636,-135,-197,22,65000,-2000,358000,663174,
180,15400,6804,-222,-285,46,65000,-2000,358000,663176,
240,15460,6628,-203,-297,-11,65000,-2000,358000,663178,
312,15500,6624,-478,-329,-35,65000,-2000,358000,663191,
316,15600,6684,-480,-292,-26,65000,-2000,358000,663193,
276,15524,6504,-582,-325,-7,65000,-2000,358000,663195,
336,15556,6524,-697,-277,-13,64000,-2000,358000,663208,
272,15552,6376,-791,-306,-34,64000,-2000,358000,663210,
396,15476,6352,-778,-220,-32,64000,-2000,358000,663212,
316,15516,6196,-999,-130,-45,64000,-2000,358000,663225,
248,15580,6232,-962,-79,-55,64000,-2000,358000,663227,
312,15544,6276,-1007,-75,-66,64000,-2000,358000,663229,
248,15464,6156,-1096,131,-102,64000,-2000,358000,663242,
148,15388,6152,-1155,87,-84,64000,-2000,358000,663244,
308,15488,6024,-1131,222,-104,64000,-2000,358000,663246,
344,15504,6088,-1230,447,-117,64000,-2000,358000,663259,
288,15440,6084,-1252,460,-119,64000,-2000,358000,663261,
308,15484,5960,-1254,546,-142,64000,-2000,358000,663263,
300,15440,5976,-1327,729,-180,64000,-2000,358000,663276,
336,15392,5768,-1383,787,-185,64000,-2000,358000,663278,
324,15632,5776,-1373,835,-195,64000,-2000,358000,663280,
236,15488,6000,-1461,1006,-228,64000,-2000,358000,663293,
288,15504,5916,-1465,1027,-257,64000,-2000,358000,663295,
196,15428,5772,-1499,1075,-262,64000,-2000,358000,663298,
40,15392,5804,-1590,1081,-279,64000,-2000,358000,663310,
0,15200,5876,-1635,1055,-278,64000,-2000,358000,663313,
-60,15204,5948,-1587,1029,-297,64000,-2000,358000,663315,
-24,15244,5732,-1697,814,-323,63000,-2000,358000,663327,
-20,15256,5628,-1635,814,-338,63000,-2000,358000,663330,
-168,15340,5828,-1735,753,-350,63000,-2000,358000,663332,
76,15432,5828,-1731,685,-356,63000,-2000,358000,663344,
92,15440,5924,-1805,621,-387,63000,-2000,358000,663347,
192,15484,5796,-1793,664,-399,63000,-1000,358000,663349,
336,15556,6180,-2047,701,-395,63000,-1000,358000,663362,
504,15608,6280,-2023,786,-418,63000,-1000,358000,663364,
388,15544,6396,-2060,768,-399,63000,-1000,359000,663366,
296,15480,6592,-2158,772,-357,63000,-1000,359000,663379,
140,15488,6648,-2223,713,-333,63000,-1000,359000,663381,
208,15548,6576,-2205,738,-335,63000,-1000,359000,663383,
276,15740,7156,-2454,422,-206,63000,-1000,359000,663396,
228,15768,7036,-2518,580,-152,62000,-1000,359000,663398,
164,15836,7560,-2644,382,-175,62000,-1000,359000,663401,
236,15964,7824,-3037,118,25,62000,-1000,359000,663413,
256,15952,7884,-3178,-58,89,62000,-1000,359000,663416,
284,16052,7956,-3200,-20,125,62000,-1000,359000,663418,
616,16204,8216,-3808,-462,411,62000,-1000,359000,663430,
828,16236,8332,-3874,-446,471,62000,-1000,359000,663433,
696,16244,8224,-4043,-533,568,62000,-1000,359000,663435,
1048,16296,8820,-4567,-512,975,61000,-1000,359000,663448,
1152,16292,8756,-4735,-548,1024,61000,-1000,359000,663450,
1100,16464,8752,-4793,-506,1148,61000,-1000,359000,663452,
1092,16540,9256,-5496,-512,1611,60000,-2000,359000,663464,
1124,16676,9536,-5706,-679,1718,60000,-2000,359000,663467,
1308,16760,9408,-5822,-577,1804,60000,-2000,359000,663469,
1412,16784,9784,-6667,-468,2210,60000,-2000,359000,663481,
1340,16636,9780,-6745,-368,2232,59000,-2000,359000,663484,
1312,16724,10004,-6959,-349,2321,59000,-2000,359000,663486,
1052,16728,10228,-7800,-147,2564,59000,-2000,359000,663499,
852,16708,10168,-8050,-269,2632,58000,-2000,359000,663501,
984,16732,10320,-8134,-235,2640,58000,-2000,359000,663503,
832,16604,10564,-8986,-878,2901,57000,-3000,359000,663516,
712,16628,10468,-9057,-958,2938,57000,-3000,359000,663518,
896,16632,10600,-9251,-1149,3005,57000,-3000,359000,663520,
1088,16720,10600,-9983,-1736,3267,56000,-3000,359000,663533,
1088,16684,10576,-10194,-1937,3319,56000,-3000,359000,663535,
1204,16632,10728,-10262,-1959,3375,56000,-3000,359000,663537,
1748,16544,10728,-11038,-2264,3627,55000,-4000,359000,663550,
1872,16544,10712,-11156,-2230,3674,55000,-4000,359000,663552,
1944,16568,10760,-11319,-2260,3728,54000,-4000,359000,663555,
2004,16452,10860,-11965,-2144,3960,53000,-4000,359000,663567,
1888,16380,10872,-12102,-2178,4008,53000,-4000,359000,663569,
1788,16404,10816,-12218,-2100,4073,53000,-4000,359000,663572,
2056,16200,11164,-12914,-2089,4211,52000,-5000,359000,663584,
2096,16188,11120,-12943,-2038,4224,51000,-5000,359000,663587,
2240,16188,10916,-13139,-2115,4297,51000,-5000,359000,663589,
2416,15968,11176,-13622,-2048,4480,50000,-5000,359000,663602,
2436,16040,11056,-13804,-2125,4555,50000,-6000,359000,663604,
2848,15848,11196,-14267,-1797,4825,48000,-6000,0,663616,
2748,15864,11164,-14480,-1801,4850,48000,-6000,0,663619,
2792,15768,11272,-14505,-1669,4893,48000,-6000,0,663621,
2840,15684,11428,-15152,-1620,5162,46000,-7000,0,663634,
2820,15572,11468,-15169,-1593,5189,46000,-7000,0,663636,
2812,15560,11440,-15304,-1664,5192,46000,-7000,0,663638,
2924,15296,11384,-15833,-1909,5446,44000,-7000,0,663651,
2932,15236,11232,-15850,-1893,5473,44000,-7000,0,663653,
2972,15216,11140,-16006,-1997,5528,44000,-8000,0,663655,
3552,15024,10940,-16316,-1826,5764,42000,-8000,1000,663668,
3576,15008,10812,-16463,-1878,5858,42000,-8000,1000,663670,
3760,15000,10956,-16442,-1736,5860,42000,-8000,1000,663672,
3904,14768,11028,-16786,-1369,6174,40000,-9000,1000,663685,
4120,14656,11092,-16782,-1237,6204,40000,-9000,1000,663687,
4072,14700,11240,-16928,-1252,6267,39000,-9000,1000,663690,
4232,14464,11360,-17083,-833,6647,38000,-9000,2000,663702,
4140,14412,11416,-17234,-836,6707,37000,-10000,2000,663704,
4224,14200,11344,-17194,-667,6756,37000,-10000,2000,663707,
4300,13984,11336,-17368,-176,7063,35000,-10000,2000,663719,
4308,13900,11372,-17495,-105,7138,35000,-10000,2000,663722,
4232,13868,11280,-17435,-10,7181,35000,-10000,2000,663724,
4336,13448,11144,-17639,178,7440,33000,-11000,3000,663737,
4212,13272,11324,-17566,248,7454,33000,-11000,3000,663739,
4072,13104,11480,-17643,261,7491,32000,-11000,3000,663741,
4016,12808,11288,-17540,239,7748,31000,-11000,4000,663754,
4144,12684,11568,-17601,207,7781,30000,-11000,4000,663756,
4072,12676,11500,-17543,204,7791,30000,-11000,4000,663758,
4248,12304,11436,-17577,54,7962,28000,-12000,5000,663771,
4108,12084,11552,-17509,180,7973,28000,-12000,5000,663773,
4220,12096,11492,-17575,157,8018,28000,-12000,5000,663775,
4764,11860,11804,-17568,676,7991,26000,-12000,6000,663788,
4688,11812,11720,-17627,638,8097,26000,-12000,6000,663790,
4560,11684,11996,-17464,603,8111,25000,-12000,6000,663793,
4340,11100,11776,-17579,758,8214,24000,-13000,7000,663805,
4412,11116,11824,-17516,789,8184,23000,-13000,7000,663807,
4412,11008,11868,-17581,782,8230,23000,-13000,7000,663810,
4564,10520,11964,-17392,1083,8295,21000,-13000,8000,663822,
4580,10392,11780,-17468,1050,8317,21000,-13000,8000,663825,
4572,10312,11996,-17308,1162,8348,21000,-13000,8000,663827,
4392,9948,11672,-17287,1201,8444,19000,-13000,9000,663840,
4444,9736,11916,-17161,1233,8404,18000,-13000,9000,663842,
4388,9728,11952,-17250,1206,8461,18000,-13000,9000,663844,
4368,9320,12468,-17057,1251,8507,16000,-13000,10000,663857,
4356,9316,12440,-17068,1301,8547,16000,-13000,10000,663859,
4484,9360,12556,-17040,1294,8502,16000,-13000,10000,663861,
4412,8860,12428,-17014,1178,8518,14000,-14000,11000,663874,
4248,8772,12424,-16960,1166,8532,14000,-14000,11000,663876,
4360,8480,12284,-16964,1124,8530,13000,-14000,11000,663879,
4396,7768,12384,-16747,1040,8535,12000,-14000,12000,663891,
4340,7580,12360,-16769,953,8543,11000,-14000,12000,663894,
4384,7488,12300,-16596,945,8532,11000,-14000,13000,663896,
4360,7000,12600,-16416,822,8604,9000,-14000,13000,663908,
4456,7004,12424,-16286,891,8591,9000,-14000,14000,663911,
4352,6916,12672,-16274,832,8605,9000,-14000,14000,663913,
4452,6428,12728,-15956,930,8640,7000,-14000,15000,663926,
4448,6352,12776,-15984,898,8661,7000,-14000,15000,663928,
4440,6204,12680,-15837,958,8674,7000,-14000,15000,663930,
4672,5664,12784,-15573,1177,8746,5000,-14000,16000,663943,
4516,5644,12764,-15406,1313,8733,5000,-14000,16000,663945,
4656,5480,12776,-15409,1347,8749,4000,-14000,16000,663947,
4396,4880,12668,-15092,1563,8783,3000,-14000,17000,663960,
4184,4632,12868,-14965,1589,8771,3000,-14000,17000,663962,
4316,4596,12792,-14911,1583,8762,2000,-14000,17000,663965,
4120,3984,12972,-14383,1734,8649,1000,-14000,18000,663977,
4204,3976,12880,-14356,1683,8658,0,-14000,18000,663979,
4116,3912,12980,-14208,1750,8620,0,-14000,18000,663982,
4080,3416,13036,-13853,1751,8594,0,-14000,19000,663994,
4228,3352,13052,-13686,1838,8565,-1000,-13000,19000,663997,
4296,3200,13120,-13667,1852,8564,-1000,-13000,19000,663999,
4040,2768,13040,-13133,2188,8486,-2000,-13000,20000,664011,
4068,2644,12944,-12953,2255,8410,-2000,-13000,20000,664014,
3996,2556,12960,-12946,2299,8430,-3000,-13000,21000,664016,
3832,1892,13200,-12414,2635,8305,-4000,-13000,21000,664029,
3748,1668,13224,-12392,2610,8279,-4000,-13000,21000,664031,
3664,1636,13184,-12206,2677,8215,-4000,-13000,22000,664033,
3604,1276,13388,-11815,2782,8084,-6000,-12000,22000,664046,
3808,1088,13108,-11627,2951,8033,-6000,-12000,23000,664048,
3544,1056,13136,-11579,2929,8004,-6000,-12000,23000,664050,
3396,632,13168,-11082,3030,7804,-7000,-12000,23000,664063,
3516,548,13228,-11004,3022,7791,-7000,-12000,23000,664065,
3324,444,13080,-10928,3027,7753,-8000,-12000,24000,664067,
3080,-120,13120,-10497,3016,7525,-9000,-11000,24000,664080,
3032,-332,13124,-10327,3043,7473,-9000,-11000,24000,664082,
2900,-284,13152,-10252,2974,7411,-9000,-11000,25000,664085,
2800,-616,13160,-9787,2869,7178,-10000,-11000,25000,664097,
2752,-640,13116,-9640,2992,7112,-10000,-11000,25000,664100,
2768,-740,13272,-9664,2944,7084,-11000,-11000,25000,664102,
2760,-1164,13312,-9158,2934,6773,-12000,-10000,26000,664114,
2688,-1424,13264,-9165,2923,6740,-12000,-10000,26000,664117,
2724,-1436,13284,-8961,2975,6621,-12000,-10000,26000,664119,
2428,-1644,12948,-8550,3054,6333,-13000,-10000,27000,664131,
2372,-1908,12948,-8413,3149,6273,-13000,-10000,27000,664134,
2292,-1860,13112,-8403,3098,6235,-13000,-10000,27000,664136,
2168,-2472,12932,-7805,2991,5884,-14000,-9000,27000,664149,
2096,-2500,13088,-7736,2951,5793,-14000,-9000,27000,664151,
2028,-2556,12916,-7527,2976,5723,-14000,-9000,28000,664153,
2016,-2600,12980,-7125,2822,5380,-15000,-9000,28000,664166,
2124,-2628,13004,-7046,2915,5329,-15000,-9000,28000,664168,
2176,-2780,13124,-6945,2895,5244,-15000,-8000,28000,664171,
1948,-3008,13136,-6489,2885,4933,-16000,-8000,29000,664183,
1884,-3024,12980,-6401,2904,4867,-16000,-8000,29000,664186,
1860,-3020,12984,-6311,2871,4837,-16000,-8000,29000,664188,
1708,-3264,12760,-5906,2863,4546,-17000,-7000,29000,664200,
1668,-3412,12664,-5758,2842,4489,-17000,-7000,29000,664203,
1688,-3572,12720,-5622,2812,4395,-17000,-7000,29000,664205,
1592,-3792,12644,-5095,2753,4049,-17000,-7000,29000,664218,
1524,-3772,12488,-5007,2753,4001,-18000,-7000,29000,664220,
1592,-3924,12612,-4840,2834,3916,-18000,-7000,30000,664222,
1336,-4112,12868,-4245,2759,3558,-18000,-6000,30000,664235,
1300,-4060,12784,-4142,2701,3532,-18000,-6000,30000,664237,
1320,-4016,12928,-4021,2692,3490,-18000,-6000,30000,664240,
1416,-3920,12908,-3623,2662,3200,-19000,-6000,30000,664252,
1460,-4032,13032,-3525,2680,3134,-19000,-6000,30000,664255,
1560,-4028,12980,-3478,2660,3058,-19000,-6000,30000,664257,
1316,-4160,12872,-3101,2736,2774,-19000,-6000,30000,664270,
1228,-4144,12784,-3004,2727,2743,-19000,-5000,30000,664272,
1412,-4144,12720,-2945,2667,2641,-19000,-5000,30000,664274,
1252,-4216,12616,-2569,2571,2315,-19000,-5000,30000,664287,
1112,-4296,12672,-2522,2471,2251,-19000,-5000,31000,664289,
1128,-4304,12796,-2440,2460,2187,-19000,-5000,31000,664291,
1100,-4432,12956,-2059,2164,1883,-20000,-5000,31000,664304,
1068,-4240,12752,-1975,2175,1809,-20000,-5000,31000,664306,
1120,-4312,12740,-1960,2071,1775,-20000,-5000,31000,664309,
1204,-4292,13088,-1688,1829,1528,-20000,-4000,31000,664321,
1140,-4212,13064,-1685,1686,1481,-20000,-4000,31000,664324,
1252,-4296,13068,-1612,1776,1458,-20000,-4000,31000,664326,
1100,-4312,13280,-1448,1592,1154,-20000,-4000,31000,664338,
1060,-4256,13188,-1362,1573,1111,-20000,-4000,31000,664341,
1048,-4244,13256,-1399,1394,1082,-20000,-4000,31000,664343,
1208,-4224,13296,-1174,906,868,-20000,-4000,31000,664355,
1252,-4280,13164,-1211,793,843,-20000,-4000,31000,664358,
1348,-4292,13140,-1134,825,805,-20000,-4000,31000,664360,
1528,-4396,13320,-1021,688,639,-20000,-4000,31000,664372,
1600,-4336,13284,-984,713,581,-20000,-4000,31000,664375,
1572,-4288,13420,-1033,642,566,-20000,-4000,31000,664377,
1596,-4348,13648,-784,534,380,-20000,-4000,31000,664389,
1548,-4300,13712,-820,398,335,-20000,-4000,31000,664392,
1596,-4324,13612,-743,470,300,-20000,-4000,31000,664394,
1796,-4472,13704,-656,68,171,-21000,-4000,31000,664407,
1712,-4376,13900,-589,113,115,-21000,-4000,31000,664409,
1824,-4440,13844,-620,44,122,-21000,-4000,31000,664411,
1664,-4372,13948,-465,-141,-31,-21000,-4000,31000,664424,
1720,-4568,14000,-487,-227,-68,-21000,-4000,31000,664426,
1736,-4544,13944,-433,-286,-81,-21000,-4000,31000,664428,
1828,-4572,14088,-363,-509,-208,-21000,-4000,31000,664441,
1932,-4652,14316,-247,-513,-210,-21000,-4000,31000,664443,
1960,-4664,14292,-312,-568,-263,-21000,-4000,31000,664446,
1996,-4564,14456,-135,-658,-287,-21000,-4000,31000,664458,
2096,-4616,14608,-175,-731,-314,-21000,-4000,31000,664460,
1976,-4572,14568,-81,-711,-338,-21000,-4000,31000,664462,
2200,-4676,14612,-78,-758,-385,-21000,-4000,31000,664475,
2096,-4664,14888,0,-744,-387,-21000,-4000,31000,664477,
2220,-4572,14852,-44,-718,-428,-21000,-4000,31000,664480,
2368,-4588,14920,78,-747,-425,-21000,-4000,31000,664492,
2320,-4648,14920,43,-684,-423,-20000,-4000,31000,664494,
2252,-4636,14872,47,-762,-415,-20000,-4000,31000,664497,
2248,-4624,15100,110,-661,-396,-20000,-4000,31000,664509,
2328,-4624,15044,136,-710,-384,-20000,-4000,31000,664512,
2216,-4644,15132,122,-690,-412,-20000,-4000,31000,664514,
2176,-4628,15268,173,-709,-363,-20000,-5000,31000,664526,
2232,-4628,15156,185,-637,-353,-20000,-5000,31000,664528,
2264,-4668,15296,143,-727,-335,-20000,-5000,31000,664531,
2344,-4568,15516,202,-656,-346,-20000,-5000,31000,664543,
2252,-4552,15456,165,-731,-301,-20000,-5000,31000,664545,
2292,-4548,15480,215,-667,-306,-20000,-5000,31000,664548,
2336,-4620,15472,160,-689,-286,-20000,-5000,31000,664560,
2408,-4520,15632,199,-605,-266,-20000,-5000,31000,664563,
2400,-4580,15656,194,-655,-266,-20000,-5000,31000,664565,
2280,-4508,15680,224,-446,-229,-20000,-5000,31000,664577,
2352,-4680,15628,220,-516,-215,-20000,-5000,31000,664580,
2220,-4636,15716,254,-447,-192,-20000,-5000,31000,664582,
2244,-4592,15592,283,-454,-159,-20000,-5000,31000,664595,
2348,-4616,15636,263,-490,-152,-20000,-5000,31000,664597,
2276,-4548,15940,316,-445,-125,-20000,-5000,31000,664599,
2364,-4448,15712,303,-290,-91,-20000,-5000,31000,664612,
2420,-4412,15796,377,-203,-78,-20000,-5000,31000,664614,
2588,-4448,15828,315,-188,-60,-20000,-5000,31000,664617,
2504,-4364,15804,359,39,3,-20000,-5000,31000,664629,
2444,-4280,15788,336,13,-6,-20000,-5000,31000,664631,
2436,-4336,15864,381,101,45,-20000,-5000,31000,664634,
2460,-4392,15856,309,50,42,-20000,-5000,31000,664636,
2252,-4328,15584,337,122,67,-20000,-5000,31000,664648,
2268,-4352,15624,372,155,55,-20000,-5000,31000,664651,
2132,-4336,15672,338,107,85,-20000,-5000,31000,664653,
2344,-4256,15684,394,98,100,-20000,-5000,31000,664665,
2340,-4220,15684,360,66,109,-20000,-5000,31000,664668,
2412,-4156,15688,404,111,136,-20000,-5000,31000,664670,
2576,-4212,15732,370,138,191,-20000,-5000,31000,664682,
2504,-4128,15764,430,214,157,-20000,-5000,31000,664685,
2420,-4184,15632,373,163,199,-20000,-5000,31000,664687,
2308,-4068,15672,479,426,252,-20000,-5000,31000,664700,
2332,-4088,15572,426,377,244,-20000,-5000,31000,664702,
2336,-4228,15528,486,452,241,-20000,-5000,31000,664704,
2204,-4100,15628,447,394,273,-19000,-5000,31000,664717,
2212,-4072,15632,512,448,309,-19000,-5000,31000,664719,
2216,-4016,15504,449,383,278,-19000,-5000,31000,664721,
2272,-3988,15552,564,409,301,-19000,-5000,31000,664734,
2164,-3908,15644,488,337,283,-19000,-5000,31000,664736,
2140,-4060,15636,548,401,294,-19000,-5000,31000,664738,
2020,-3988,15480,515,320,313,-19000,-5000,31000,664751,
2240,-3852,15540,524,393,272,-19000,-5000,31000,664753,
