Ax,Ay,Az,Gx,Gy,Gz,Roll,Pitch,Yaw,Timestamp,Target
-4944,-6716,14404,33,-246,-525,-23000,17000,295000,534131,
-4884,-6636,14628,54,-225,-464,-23000,17000,295000,534144,
-5060,-6684,14504,74,-206,-424,-23000,17000,295000,534146,
-4876,-6644,14652,41,-217,-429,-23000,17000,295000,534148,
-4928,-6612,14444,11,-290,-383,-23000,16000,295000,534161,
-4928,-6620,14372,30,-288,-431,-23000,16000,295000,534163,
-4996,-6680,14436,15,-312,-420,-23000,16000,295000,534165,
-5032,-6748,14740,41,-347,-452,-23000,16000,295000,534178,
-5016,-6740,14368,48,-385,-472,-23000,16000,295000,534180,
-4980,-6764,14468,61,-352,-489,-23000,16000,295000,534182,
-4964,-6756,14528,43,-430,-525,-23000,16000,295000,534195,
-5012,-6788,14612,16,-457,-527,-23000,16000,295000,534197,
-4964,-6824,14472,11,-465,-537,-23000,16000,295000,534200,
-4896,-6748,14464,31,-436,-512,-23000,16000,295000,534212,
-4880,-6648,14516,19,-409,-491,-23000,16000,295000,534215,
-4900,-6632,14456,27,-395,-461,-23000,1600,64,16664,
-4660,588,15760,-1252,-286,-297,3000,13000,277000,535890,
-4364,264,16112,-1212,-725,-476,3000,13000,277000,535903,
-4216,292,16060,-1168,-767,-496,3000,13000,277000,535905,
0,0,0,0,0,0,3000,13000,277000,535905,
-5020,-6784,14612,41,-70,-295,-23000,16000,295000,534251,
-5136,-6932,14444,8,-210,-314,-23000,16000,295000,534264,
-5080,-6980,14384,18,-239,-351,-23000,16000,295000,534266,
-5092,-6908,14516,15,-251,-359,-23000,16000,295000,534268,
-4988,-6828,14488,42,-321,-424,-23000,16000,295000,534281,
-5108,-6772,14416,25,-361,-435,-23000,16000,295000,534283,
-5056,-6732,14560,37,-339,-437,-23000,16000,295000,534285,
-4912,-6588,14508,30,-375,-325,-23000,16000,295000,534298,
-4912,-6588,14560,26,-385,-301,-23000,16000,295000,534300,
-5000,-6680,14488,3,-390,-276,-23000,16000,295000,534302,
-5056,-6712,14328,-20,-400,-228,-23000,16000,295000,534315,
-4996,-6736,14504,-22,-417,-212,-23000,16000,295000,534317,
-5084,-6644,14556,-12,-421,-222,-23000,16000,295000,534320,
-5016,-6720,14548,34,-498,-184,-23000,16000,295000,534332,
-5008,-6736,14432,15,-493,-161,-23000,16000,295000,534334,
-5064,-6544,14592,26,-540,-137,-23000,16000,295000,534337,
-4812,-6684,14300,18,-587,-27,-23000,16000,295000,534349,
-4700,-6764,14496,9,-641,4,-23000,16000,295000,534352,
-4784,-6804,14460,12,-612,-2,-23000,16000,295000,534354,
-4692,-6816,14444,30,-609,65,-23000,16000,295000,534366,
-4664,-6900,14480,30,-614,77,-23000,16000,295000,534369,
-4652,-6944,14468,43,-604,90,-23000,16000,295000,534371,
-4624,-6900,14368,21,-537,4,-23000,16000,295000,534383,
-4436,-6912,14436,29,-520,-21,-23000,16000,295000,534386,
-4560,-6964,14596,42,-505,-64,-23000,16000,295000,534388,
-4500,-6736,14432,56,-416,-115,-23000,16000,295000,534400,
-4456,-6924,14484,43,-368,-128,-23000,16000,295000,534403,
-4488,-6784,14444,15,-400,-138,-23000,16000,295000,534405,
-4524,-6912,14616,51,-238,-164,-23000,16000,295000,534417,
-4588,-6900,14504,41,-215,-178,-23000,16000,295000,534420,
-4536,-6848,14512,55,-224,-169,-23000,16000,295000,534422,
-4496,-6724,14476,74,-125,-257,-23000,16000,295000,534435,
-4584,-6632,14764,76,-120,-277,-23000,16000,295000,534437,
-4560,-6684,14524,70,-143,-279,-23000,16000,295000,534439,
-4608,-6752,14448,100,-206,-261,-23000,16000,295000,534452,
-4560,-6772,14560,119,-209,-228,-23000,16000,295000,534454,
-4568,-6768,14500,105,-220,-235,-23000,16000,295000,534456,
-4688,-6984,14572,117,-230,-232,-23000,16000,295000,534469,
-4564,-7004,14620,131,-267,-227,-23000,16000,295000,534471,
-4564,-7056,14596,134,-250,-216,-23000,16000,295000,534473,
-4720,-7068,14480,109,-252,-284,-23000,15000,295000,534486,
-4640,-6984,14668,112,-245,-292,-23000,15000,295000,534488,
-4672,-7104,14580,112,-287,-309,-23000,15000,295000,534490,
-4560,-6924,14444,74,-317,-368,-23000,15000,295000,534503,
-4568,-6800,14724,94,-316,-368,-23000,15000,295000,534505,
-4616,-6828,14560,78,-280,-363,-23000,15000,295000,534508,
-4656,-6932,14544,67,-255,-302,-23000,15000,295000,534520,
-4588,-6916,14676,41,-233,-299,-23000,15000,295000,534523,
-4624,-7004,14780,73,-261,-291,-23000,15000,295000,534525,
-4732,-6988,14752,123,-281,-342,-23000,15000,295000,534537,
-4732,-6940,14692,129,-338,-339,-23000,15000,295000,534540,
-4812,-6944,14896,149,-358,-360,-23000,15000,295000,534542,
-4704,-7108,14860,197,-465,-390,-23000,15000,295000,534554,
-4668,-7052,14828,218,-459,-401,-23000,15000,295000,534557,
-4728,-7248,14928,218,-507,-400,-23000,15000,295000,534559,
-4732,-7064,14896,261,-534,-380,-23000,15000,295000,534572,
-4576,-6956,14740,279,-546,-399,-23000,15000,295000,534574,
-4556,-6984,15076,249,-562,-376,-23000,15000,295000,534576,
-4476,-7184,15148,334,-494,-368,-23000,15000,295000,534589,
-4556,-7216,15024,342,-460,-363,-23000,15000,295000,534591,
-4612,-7144,15120,345,-416,-365,-23000,15000,295000,534593,
-4500,-7396,15156,415,-283,-407,-23000,15000,295000,534606,
-4312,-7300,15248,432,-246,-446,-23000,15000,295000,534608,
-4496,-7264,15016,437,-226,-469,-23000,15000,295000,534611,
-4304,-6948,15220,584,-117,-451,-23000,15000,295000,534623,
-4280,-6892,15264,629,-95,-452,-23000,15000,295000,534625,
-4320,-6824,15064,652,-54,-441,-23000,15000,295000,534628,
-4248,-6588,15160,765,-15,-326,-23000,15000,295000,534640,
-4296,-6592,15292,793,6,-259,-23000,15000,295000,534643,
-4448,-6688,15216,816,26,-242,-23000,15000,295000,534645,
-4532,-6912,15104,920,48,-183,-23000,15000,295000,534658,
-4424,-7036,15136,922,52,-202,-23000,15000,295000,534660,
-4412,-6964,15148,942,56,-209,-23000,15000,295000,534662,
-4288,-7088,14880,941,-23,-338,-23000,15000,295000,534675,
-4180,-7224,15116,942,-23,-329,-23000,15000,295000,534677,
-4304,-7176,14972,941,-56,-378,-23000,15000,295000,534679,
-4376,-7220,15160,936,-202,-296,-23000,15000,295000,534692,
-4404,-7208,15016,917,-226,-308,-23000,15000,295000,534694,
-4396,-7204,15144,927,-257,-296,-23000,15000,295000,534696,
-4132,-6884,15064,913,-243,-426,-23000,15000,295000,534709,
-4196,-6808,14968,921,-198,-462,-23000,15000,295000,534711,
-4180,-6800,14960,931,-207,-482,-23000,15000,295000,534714,
-4116,-6868,15024,951,-89,-468,-23000,15000,295000,534726,
-4020,-6936,15040,957,-77,-463,-23000,15000,295000,534728,
-4112,-6988,14996,979,-79,-496,-23000,15000,295000,534731,
-4028,-6836,14924,1073,22,-533,-23000,15000,294000,534743,
-4064,-6864,14940,1097,74,-542,-23000,15000,294000,534745,
-3996,-6908,15116,1114,106,-562,-22000,15000,294000,534748,
-3796,-6852,14972,1245,475,-571,-22000,15000,294000,534760,
-3692,-6888,15084,1256,583,-571,-22000,15000,294000,534763,
-3840,-6796,15032,1287,647,-573,-22000,15000,294000,534765,
-3900,-6928,15068,1407,1115,-452,-22000,15000,294000,534778,
-3956,-6940,15084,1439,1173,-394,-22000,15000,294000,534780,
-3860,-6872,15108,1438,1235,-418,-22000,15000,294000,534782,
-4148,-6744,15152,1512,1464,-335,-22000,15000,294000,534795,
-4224,-6788,15044,1528,1454,-319,-22000,15000,294000,534797,
-4196,-6728,15232,1524,1471,-318,-22000,15000,294000,534799,
-4308,-6800,15128,1597,1316,-357,-22000,15000,294000,534812,
-4412,-6872,15156,1598,1265,-389,-22000,15000,294000,534814,
-4176,-6828,15148,1612,1228,-370,-22000,15000,294000,534816,
-4328,-6792,14824,1633,993,-434,-22000,15000,294000,534829,
-4348,-6696,15000,1608,969,-423,-22000,15000,294000,534831,
-4292,-6828,14984,1620,873,-436,-22000,15000,294000,534834,
-4272,-6504,14888,1634,640,-447,-22000,15000,294000,534846,
-4396,-6552,14980,1633,601,-463,-22000,15000,294000,534848,
-4332,-6572,15104,1645,565,-447,-22000,15000,294000,534851,
-4088,-6496,15052,1658,420,-438,-21000,15000,294000,534863,
-4124,-6396,15156,1673,403,-427,-21000,15000,294000,534866,
-3968,-6596,15196,1682,412,-451,-21000,15000,294000,534868,
-4044,-6692,15224,1772,566,-409,-21000,15000,294000,534880,
-3972,-6652,15264,1821,628,-401,-21000,15000,294000,534883,
-3952,-6668,15348,1827,684,-378,-21000,15000,294000,534885,
-3828,-6612,15764,1968,990,-384,-21000,15000,294000,534898,
-3916,-6700,15584,2015,1029,-380,-21000,15000,294000,534900,
-3896,-6548,15580,2035,1089,-383,-21000,15000,294000,534902,
-3944,-6700,16036,2226,1353,-319,-21000,15000,293000,534915,
-4132,-6688,16060,2270,1399,-293,-21000,15000,293000,534917,
-4060,-6684,16068,2290,1445,-294,-21000,16000,293000,534920,
-4080,-6420,16468,2424,1607,-279,-20000,16000,293000,534932,
-4200,-6388,16512,2460,1617,-267,-20000,16000,293000,534935,
-4252,-6456,16620,2512,1598,-276,-20000,16000,293000,534937,
-4440,-6492,16820,2698,1510,-281,-20000,16000,293000,534949,
-4428,-6452,16872,2711,1498,-269,-20000,16000,293000,534952,
-4292,-6516,16928,2782,1454,-283,-20000,16000,293000,534954,
-4308,-6464,16976,2924,1235,-367,-20000,16000,293000,534967,
-4332,-6552,17116,2952,1238,-404,-20000,16000,293000,534969,
-4424,-6560,16948,2990,1183,-449,-20000,16000,293000,534971,
-4408,-6604,16888,3193,1106,-602,-19000,16000,293000,534984,
-4432,-6492,16848,3270,1141,-643,-19000,16000,293000,534986,
-4604,-6356,16528,3529,1393,-798,-19000,16000,293000,534999,
-4576,-6324,16644,3534,1438,-808,-19000,16000,293000,535001,
-4604,-6268,16712,3563,1501,-848,-19000,16000,293000,535003,
-4800,-5736,16064,3679,1771,-943,-19000,16000,293000,535016,
-4808,-5780,15932,3707,1824,-991,-19000,16000,293000,535018,
-4932,-5888,15840,3687,1821,-1000,-19000,16000,293000,535020,
-5296,-5452,15728,3842,1993,-1077,-18000,16000,292000,535033,
-5180,-5536,15684,3853,2019,-1052,-18000,16000,292000,535035,
-5284,-5364,15388,3863,2057,-1035,-18000,17000,292000,535037,
-5328,-5500,15272,3834,2241,-990,-18000,17000,292000,535050,
-5492,-5528,15180,3813,2255,-927,-18000,17000,292000,535052,
-5472,-5480,15080,3804,2254,-912,-18000,17000,292000,535055,
-5664,-5300,15080,3746,2199,-828,-17000,17000,292000,535067,
-5708,-5300,15080,3737,2163,-795,-17000,17000,292000,535069,
-5700,-5272,15212,3728,2132,-766,-17000,17000,292000,535072,
-5812,-5192,15420,3895,1823,-696,-17000,17000,292000,535084,
-5840,-5208,15288,3933,1759,-690,-17000,17000,292000,535087,
-5940,-5236,15416,3961,1696,-673,-17000,17000,292000,535089,
-5888,-5096,15724,4040,1415,-574,-16000,17000,292000,535102,
-5864,-5140,15664,4040,1379,-536,-16000,17000,292000,535104,
-5780,-4996,16340,4145,1354,-356,-16000,18000,292000,535116,
-5668,-4916,16496,4185,1313,-316,-16000,18000,292000,535119,
-5620,-4888,16560,4207,1361,-260,-16000,18000,292000,535121,
-5920,-4720,16876,4434,1366,5,-15000,18000,292000,535134,
-5764,-4884,17004,4459,1371,25,-15000,18000,292000,535136,
-5644,-4784,17076,4497,1347,59,-15000,18000,291000,535138,
-5972,-4888,17512,4727,1099,154,-15000,18000,291000,535151,
-6016,-4756,17736,4776,1013,192,-15000,18000,291000,535153,
-5980,-4752,17960,4830,959,194,-15000,18000,291000,535155,
-5964,-4996,18608,5142,515,221,-14000,18000,291000,535168,
-5904,-5112,18508,5197,488,254,-14000,18000,291000,535170,
-6004,-5096,18724,5254,448,291,-14000,18000,291000,535172,
-5628,-5280,19104,5599,435,575,-13000,18000,292000,535185,
-5684,-5312,19152,5659,499,644,-13000,18000,292000,535187,
-5652,-5196,19124,5746,575,717,-13000,18000,292000,535190,
-5608,-5140,19280,6126,856,1155,-13000,18000,292000,535202,
-5596,-5112,19224,6203,922,1207,-13000,18000,292000,535204,
-5652,-5036,19264,6274,976,1294,-12000,18000,292000,535207,
-5976,-4912,19352,6693,1073,1574,-12000,18000,292000,535219,
-5944,-4980,19452,6748,1042,1634,-12000,18000,292000,535222,
-6040,-5076,19452,6825,1020,1671,-12000,18000,292000,535224,
-5792,-5172,19588,7158,716,1639,-11000,18000,292000,535236,
-5748,-5192,19356,7229,669,1640,-11000,18000,292000,535239,
-5776,-5132,19308,7352,616,1669,-11000,18000,292000,535241,
-5912,-4956,18988,7749,192,1794,-10000,18000,292000,535254,
-5952,-4844,18876,7830,74,1803,-10000,18000,292000,535256,
-5804,-4732,19152,7880,-6,1783,-9000,18000,292000,535258,
-5716,-4528,18844,8173,-533,1664,-9000,18000,292000,535271,
-5804,-4460,18660,8215,-686,1648,-9000,18000,292000,535273,
-5644,-4272,18756,8275,-801,1576,-8000,18000,293000,535275,
-5876,-4144,18156,8426,-1240,1521,-8000,18000,293000,535288,
-5936,-4040,18456,8506,-1311,1523,-7000,18000,293000,535290,
-5796,-4088,18520,8547,-1408,1526,-7000,18000,293000,535292,
-5140,-3668,18048,8783,-1791,938,-6000,18000,293000,535305,
-5232,-3596,17960,8849,-1879,840,-6000,18000,293000,535307,
-5440,-3640,17816,8855,-1969,814,-6000,18000,293000,535309,
-5156,-3524,17404,9047,-2623,622,-5000,18000,293000,535322,
-5172,-3672,17456,9087,-2689,532,-5000,18000,293000,535324,
-4976,-3480,17508,9122,-2712,422,-5000,18000,293000,535327,
-4560,-3144,16768,9340,-2742,-85,-4000,17000,293000,535339,
-4492,-3016,16792,9382,-2701,-155,-4000,17000,293000,535342,
-4360,-2868,16532,9383,-2668,-259,-4000,17000,293000,535344,
-4228,-2376,16052,9336,-2475,-664,-3000,17000,293000,535356,
-4260,-2412,16192,9322,-2465,-749,-3000,17000,293000,535359,
-4248,-2372,16140,9318,-2433,-811,-3000,17000,293000,535361,
-4052,-2296,16064,9282,-2343,-1285,-2000,17000,293000,535374,
-4104,-2148,15804,9249,-2385,-1434,-2000,17000,293000,535376,
-4116,-2144,15992,9226,-2369,-1549,-1000,17000,293000,535378,
-4228,-1956,15664,9207,-2466,-2099,-1000,16000,293000,535391,
-4108,-1984,15428,9176,-2460,-2199,0,16000,292000,535393,
-4124,-1808,15312,9167,-2470,-2261,0,16000,292000,535395,
-3936,-1468,14500,9022,-2524,-2692,0,16000,292000,535408,
-4016,-1476,14752,8996,-2562,-2805,0,16000,292000,535410,
-4040,-1496,14560,8942,-2591,-2883,0,16000,292000,535412,
-3884,-1244,14152,8685,-2806,-3363,0,16000,292000,535425,
-3640,-1092,13912,8619,-2816,-3475,1000,16000,292000,535427,
-3676,-1184,13976,8557,-2819,-3619,1000,15000,292000,535430,
-3836,-960,13452,8232,-3116,-4251,1000,15000,291000,535442,
-3812,-960,13184,8170,-3173,-4371,1000,15000,291000,535444,
-3832,-844,13220,8108,-3179,-4445,2000,15000,291000,535447,
-3620,-432,12632,7760,-3243,-5082,2000,15000,290000,535459,
-3520,-456,12584,7701,-3213,-5205,2000,15000,290000,535461,
-3492,-288,12652,7607,-3131,-5288,2000,15000,290000,535464,
-3020,-96,11984,7103,-2694,-5907,3000,14000,290000,535476,
-2924,-192,11700,7022,-2589,-5976,3000,14000,290000,535479,
-2968,-56,11740,6937,-2498,-6034,3000,14000,289000,535481,
-2844,116,10988,6389,-1779,-6338,3000,14000,289000,535493,
-2780,112,11036,6277,-1675,-6402,4000,14000,289000,535496,
-2800,208,10804,6192,-1450,-6435,4000,14000,289000,535498,
-3232,644,10380,5779,-733,-6606,4000,14000,288000,535510,
-3272,748,10392,5710,-640,-6651,4000,14000,288000,535513,
-3400,756,10504,5647,-508,-6700,4000,14000,288000,535515,
-3932,644,10460,5214,-143,-7060,4000,14000,287000,535527,
-3860,752,10272,5107,-128,-7131,4000,14000,287000,535530,
-4040,704,10380,4990,-142,-7202,5000,14000,287000,535532,
-4388,692,10416,4413,-362,-7650,5000,14000,286000,535544,
-4384,664,10380,4310,-470,-7702,5000,14000,286000,535547,
-4616,816,10508,4178,-575,-7778,5000,14000,286000,535549,
-5052,1140,10304,3548,-1308,-7976,5000,14000,285000,535562,
-5032,1188,10300,3431,-1473,-8018,5000,14000,285000,535564,
-5072,1204,10344,3318,-1665,-8021,5000,14000,285000,535566,
-4956,1228,10632,2795,-2777,-8196,5000,14000,284000,535579,
-5084,1252,10700,2734,-2956,-8206,5000,14000,284000,535581,
-5104,1172,10876,2653,-3180,-8214,5000,14000,283000,535583,
-5232,936,11260,2269,-3940,-8023,5000,14000,283000,535596,
-5164,952,11284,2189,-4010,-7947,5000,14000,282000,535598,
-5120,1048,11288,2115,-4073,-7827,5000,14000,282000,535600,
-4800,1060,11552,1638,-3925,-7209,5000,14000,282000,535613,
-4708,1072,11608,1560,-3835,-7064,5000,14000,281000,535615,
-4664,1068,11652,1476,-3692,-6945,5000,14000,281000,535617,
-4952,984,11756,1041,-2848,-6082,5000,13000,281000,535630,
-4924,1044,11944,960,-2636,-5887,5000,13000,281000,535632,
-5024,1016,12068,885,-2443,-5741,5000,13000,280000,535635,
-5224,928,12632,577,-1375,-4796,5000,13000,280000,535647,
-5300,912,12836,565,-1173,-4636,5000,13000,280000,535650,
-3932,92,16548,-264,-244,370,2000,13000,277000,536146,
-3836,44,16636,-256,-260,362,2000,13000,277000,536149,
-3796,-4,16660,-256,-292,380,2000,13000,277000,536151,
-3552,148,16600,-203,-288,484,1000,13000,277000,536164,
-3476,192,16568,-178,-298,490,1000,13000,277000,536166,
-3512,152,16676,-170,-307,487,1000,13000,277000,536168,
-3476,96,16508,-163,-327,496,1000,13000,277000,536181,
-3484,52,16548,-193,-326,512,1000,13000,277000,536183,
-3364,60,16556,-204,-332,497,1000,13000,277000,536185,
-3416,-172,16336,-203,-285,358,1000,13000,277000,536198,
-3244,-92,16372,-197,-295,355,1000,13000,277000,536200,
-3420,-56,16408,-202,-294,354,1000,12000,277000,536202,
-3228,-16,16180,-212,-241,264,1000,12000,277000,536215,
-3236,20,16372,-206,-217,272,1000,12000,277000,536217,
-3268,12,16240,-207,-238,297,1000,12000,277000,536219,
-3468,32,16304,-211,-245,219,1000,12000,277000,536232,
-3448,-4,16256,-224,-254,222,1000,12000,277000,536234,
-3428,-76,16412,-223,-249,237,1000,12000,277000,536236,
-3376,-52,16324,-232,-122,132,1000,12000,277000,536249,
-3360,-136,16152,-213,-92,144,1000,12000,277000,536251,
-3324,8,16312,-232,-53,115,1000,12000,277000,536253,
-3336,-144,16228,-215,-20,109,1000,12000,277000,536256,
-3272,-120,16108,-178,231,55,1000,12000,277000,536268,
-3404,-40,16084,-180,285,60,1000,12000,277000,536270,
-3408,-168,15984,-155,345,40,1000,12000,277000,536273,
-3524,-136,16192,-140,479,4,1000,12000,277000,536285,
-3612,48,16164,-108,490,15,1000,12000,277000,536288,
-3668,52,16244,-132,512,39,1000,12000,277000,536290,
-3784,120,16300,-167,472,34,1000,13000,277000,536302,
-3764,112,16316,-182,473,21,1000,13000,277000,536305,
-3788,64,16112,-145,468,22,1000,13000,277000,536307,
-3796,16,16280,-175,432,53,1000,13000,277000,536309,
-3692,148,16072,-159,336,64,1000,13000,277000,536322,
-3760,104,15944,-169,321,41,1000,13000,277000,536324,
-3772,12,15988,-165,307,53,1000,13000,277000,536326,
-3612,232,15900,-178,254,97,1000,13000,277000,536339,
-3772,140,15980,-200,247,116,1000,13000,277000,536341,
-3684,124,15996,-232,232,109,1000,13000,277000,536343,
-3664,144,16132,-224,219,121,1000,13000,277000,536345,
-3860,-76,16036,-268,44,101,1000,13000,277000,536358,
-3724,8,16096,-279,7,72,1000,13000,277000,536360,
-3836,44,15956,-287,-34,75,1000,13000,277000,536363,
-3496,44,15960,-343,-157,78,1000,13000,277000,536375,
-3500,104,16016,-353,-195,72,1000,13000,277000,536377,
-3456,96,16096,-348,-183,69,1000,13000,277000,536380,
-3472,252,15784,-383,-171,82,1000,13000,277000,536382,
-3148,212,16072,-383,-55,106,1000,13000,277000,536394,
-3252,112,15800,-382,1,94,1000,13000,277000,536397,
-3160,224,15888,-401,17,77,1000,13000,277000,536399,
-3244,-16,15924,-357,214,86,1000,13000,277000,536411,
-3240,44,15932,-377,244,77,1000,13000,277000,536413,
-3300,48,15932,-397,287,95,1000,13000,277000,536416,
-3252,-24,15944,-393,286,90,1000,13000,277000,536418,
-3364,-52,15764,-476,346,81,1000,13000,277000,536431,
-3264,-52,15648,-475,345,86,1000,13000,277000,536433,
-3472,-12,15764,-473,344,109,1000,13000,277000,536435,
-3440,-20,15884,-433,234,74,1000,13000,277000,536448,
-3440,-84,15904,-460,246,77,1000,13000,277000,536450,
-3604,56,15820,-442,231,56,1000,13000,277000,536452,
-3612,-116,15832,-435,222,70,1000,13000,277000,536454,
-3352,-168,15980,-512,277,7,1000,13000,277000,536467,
-3404,-156,15832,-515,313,24,1000,13000,277000,536469,
-3312,-316,15752,-538,317,26,1000,13000,277000,536471,
-3352,-216,15768,-494,453,77,1000,13000,277000,536484,
-3420,-296,15772,-501,468,73,1000,13000,277000,536486,
-3344,-248,15916,-528,484,50,1000,13000,277000,536488,
-3552,-328,16080,-537,434,68,1000,13000,277000,536501,
-3600,-196,16052,-557,411,72,1000,13000,277000,536503,
-3520,-284,16136,-595,365,58,1000,13000,277000,536505,
-3700,-208,16112,-695,23,37,0,13000,277000,536518,
-3764,-292,16160,-716,-61,34,0,13000,277000,536520,
-3840,-228,16212,-722,-155,5,0,13000,277000,536522,
-3612,-220,16268,-740,-168,-28,0,13000,277000,536525,
-3644,-252,16160,-775,-437,-131,0,13000,277000,536537,
-3536,-396,16144,-766,-476,-153,0,13000,277000,536539,
-3704,-280,16236,-772,-520,-164,0,13000,277000,536542,
-3508,-476,16264,-795,-620,-217,0,13000,277000,536554,
-3444,-432,16224,-765,-616,-255,0,13000,277000,536557,
-3476,-420,16292,-784,-606,-263,0,13000,277000,536559,
-3380,-592,16488,-768,-407,-242,0,13000,277000,536571,
-3416,-628,16312,-782,-346,-245,0,13000,277000,536574,
-3368,-660,16308,-780,-280,-268,0,13000,277000,536576,
-3640,-648,16516,-717,80,-251,0,13000,277000,536588,
-3572,-636,16580,-692,159,-242,0,13000,277000,536591,
-3596,-720,16688,-670,200,-256,0,13000,277000,536593,
-3740,-688,16656,-665,280,-221,0,13000,277000,536595,
-3852,-712,16892,-580,507,-270,0,13000,277000,536608,
-3876,-628,16672,-567,562,-245,0,13000,277000,536610,
-3924,-708,16648,-557,598,-236,0,13000,277000,536612,
-4056,-580,16756,-486,718,-115,0,13000,277000,536625,
-4036,-568,16656,-454,753,-106,0,13000,277000,536627,
-3928,-612,16784,-455,783,-57,0,13000,277000,536629,
-4004,-568,16912,-426,762,-38,0,13000,277000,536632,
-4176,-600,16568,-360,761,64,0,13000,277000,536644,
-4236,-560,16796,-345,745,67,0,13000,277000,536646,
-4200,-544,16864,-354,707,76,0,13000,277000,536649,
-4284,-544,16708,-359,457,93,0,13000,277000,536661,
-4364,-488,16616,-371,417,81,0,13000,277000,536663,
-4256,-528,16676,-372,354,96,0,13000,277000,536666,
-4224,-560,16532,-366,283,70,0,13000,277000,536668,
-4132,-528,16484,-323,119,81,0,13000,277000,536680,
-4088,-628,16568,-301,97,87,0,13000,277000,536683,
-4104,-500,16624,-286,110,74,0,13000,277000,536685,
-4080,-512,16540,-280,89,83,0,13000,277000,536687,
-4044,-552,16504,-289,108,158,0,13000,277000,536700,
-4124,-456,16420,-297,121,194,0,13000,277000,536702,
-4128,-372,16524,-295,146,208,0,13000,277000,536704,
-4100,-340,16580,-271,176,324,0,13000,277000,536717,
-4080,-512,16488,-274,182,332,0,13000,277000,536719,
-4072,-504,16352,-271,205,354,0,13000,277000,536721,
-4064,-528,16508,-271,241,343,0,13000,277000,536724,
-4208,-568,16404,-294,191,341,0,13000,277000,536736,
-4164,-560,16512,-285,193,382,0,13000,277000,536738,
-4172,-536,16580,-279,182,355,0,13000,277000,536741,
-4088,-532,16408,-273,-24,284,0,13000,277000,536753,
-4032,-528,16484,-272,-50,284,0,13000,277000,536755,
-4036,-476,16444,-227,-67,276,0,13000,277000,536758,
-4060,-504,16528,-250,-96,269,0,13000,277000,536760,
-3924,-408,16276,-255,-159,248,0,13000,277000,536772,
-3988,-424,16276,-242,-162,231,0,13000,277000,536775,
-3872,-440,16308,-260,-146,249,0,13000,277000,536777,
-3904,-580,16364,-247,-22,213,0,13000,277000,536790,
-3872,-532,16456,-236,1,227,0,13000,277000,536792,
-3860,-552,16336,-262,18,224,0,13000,277000,536794,
-3804,-540,16416,-248,59,221,0,13000,277000,536796,
-3908,-616,16308,-239,126,165,0,13000,277000,536809,
-3768,-380,16364,-236,119,192,0,13000,277000,536811,
-3712,-588,16200,-249,178,175,0,13000,277000,536813,
-3692,-524,16320,-200,245,181,0,13000,277000,536826,
-3668,-524,16328,-211,252,182,0,13000,277000,536828,
-3832,-480,16392,-166,313,187,0,13000,277000,536830,
-3776,-504,16472,-179,307,171,0,13000,277000,536833,
-3940,-524,16224,-173,328,179,0,13000,277000,536845,
-3920,-724,16064,-166,336,190,0,13000,277000,536848,
-3904,-600,16264,-165,340,200,0,13000,277000,536850,
-3788,-576,16160,-205,421,141,0,13000,277000,536862,
-3856,-572,16100,-235,414,132,0,13000,277000,536865,
-3752,-628,16132,-220,443,150,0,13000,277000,536867,
-3856,-540,16160,-245,440,177,0,13000,277000,536869,
-3952,-628,16316,-248,429,235,0,13000,277000,536882,
-3972,-520,16264,-224,393,234,0,13000,277000,536884,
-4120,-524,16244,-257,342,243,0,13000,277000,536886,
-4168,-572,16272,-246,53,208,0,13000,277000,536899,
-4148,-496,16312,-258,-34,209,0,13000,277000,536901,
-4080,-568,16416,-240,-77,174,0,13000,277000,536903,
-4160,-580,16616,-223,-144,172,0,13000,277000,536905,
-3968,-608,16372,-272,-313,76,0,13000,277000,536918,
-3888,-604,16552,-268,-335,58,0,13000,277000,536920,
-3956,-700,16412,-272,-349,51,0,13000,277000,536922,
-3736,-664,16628,-250,-348,35,0,13000,277000,536935,
-3808,-660,16368,-221,-308,41,0,13000,277000,536937,
-3736,-644,16500,-247,-323,28,0,13000,277000,536939,
-3724,-696,16596,-221,-302,25,0,13000,277000,536942,
-3696,-788,16516,-213,-262,13,0,13000,277000,536954,
-3676,-744,16556,-200,-238,-28,0,13000,277000,536956,
-3588,-740,16656,-184,-184,-14,0,13000,277000,536959,
-3640,-692,16568,-104,74,-8,0,13000,277000,536971,
-3432,-732,16704,-122,155,-7,0,13000,277000,536974,
-3364,-860,16904,-99,180,-2,0,13000,277000,536976,
-3456,-668,16548,-83,247,-1,0,13000,277000,536978,
-3436,-644,16568,-63,422,64,0,13000,277000,536990,
-3512,-652,16776,-76,425,26,0,13000,277000,536993,
-3460,-632,16616,-64,390,29,0,13000,277000,536995,
-3456,-624,16596,-51,385,14,0,13000,277000,536997,
-3744,-700,16904,33,73,-94,0,13000,277000,537010,
-3772,-572,16896,18,28,-128,0,13000,277000,537012,
-3756,-748,16872,31,-58,-187,0,13000,277000,537015,
-3588,-668,17132,50,-91,-195,0,13000,277000,537017,
-3188,-880,17204,92,-124,-446,0,13000,277000,537029,
-3268,-696,17060,69,-97,-474,0,13000,277000,537032,
-3316,-848,17188,93,-31,-520,0,13000,277000,537034,
-3364,-724,17468,198,257,-542,0,13000,277000,537046,
-3240,-604,17576,245,316,-552,0,13000,277000,537049,
-3388,-688,17764,284,358,-568,0,13000,277000,537051,
-3344,-704,18000,295,403,-585,0,13000,277000,537053,
-3520,-512,18812,581,636,-756,0,13000,277000,537066,
-3580,-392,19096,636,736,-767,0,13000,277000,537068,
-3452,-416,19296,681,809,-796,0,13000,277000,537070,
-3960,-208,20036,902,1542,-773,0,13000,277000,537083,
-4052,-116,20308,975,1693,-728,0,13000,277000,537085,
-4160,-28,20888,1075,1854,-638,0,13000,277000,537087,
-4180,60,21088,1156,1961,-592,0,13000,277000,537090,
-5636,-232,23528,1848,2611,-366,0,14000,277000,537102,
-5932,-228,23856,2005,2690,-319,0,14000,277000,537104,
-6112,-488,24048,2161,2763,-259,0,14000,277000,537107,
-7188,-800,25068,2951,3200,-94,0,14000,277000,537119,
-7284,-688,25272,3074,3267,-77,0,14000,277000,537121,
-7372,-656,25380,3278,3382,-32,0,14000,277000,537124,
-8008,-332,25956,4283,4303,549,0,15000,277000,537136,
-8056,-304,26008,4511,4566,669,0,15000,277000,537139,
-8196,-264,26112,4751,4862,883,0,15000,277000,537141,
-8388,-300,25952,4991,5117,1078,0,15000,277000,537143,
-9788,-560,25648,6075,6476,2377,1000,15000,277000,537156,
-10084,-560,25576,6256,6638,2582,1000,16000,277000,537158,
-10396,-556,25448,6425,6790,2809,1000,16000,277000,537160,
-12240,-584,25228,7272,6804,3978,2000,16000,278000,537173,
-12608,-540,24968,7425,6639,4166,2000,17000,278000,537175,
-12940,-560,24884,7574,6478,4359,2000,17000,278000,537177,
-13768,-688,23604,8196,5045,5251,3000,17000,278000,537190,
-13808,-840,23420,8289,4760,5384,3000,17000,279000,537192,
-13836,-768,23140,8397,4478,5510,3000,17000,279000,537194,
-13500,-928,20972,8831,2931,6246,4000,18000,279000,537207,
-13536,-992,20776,8893,2674,6392,5000,18000,279000,537209,
-13528,-920,20416,8958,2487,6487,5000,18000,280000,537211,
-12676,-656,18236,9172,1582,7277,6000,18000,280000,537224,
-12368,-628,17824,9146,1502,7435,6000,18000,280000,537226,
-12212,-648,17524,9144,1442,7575,6000,18000,281000,537228,
-11676,-484,15724,9056,1107,8456,7000,18000,281000,537241,
-11276,-312,15284,9042,1059,8579,8000,18000,282000,537243,
-11324,-372,14916,9009,1022,8720,8000,18000,282000,537246,
-10928,8,13576,8722,660,9334,9000,18000,283000,537258,
-10776,-4,13256,8653,566,9464,9000,18000,283000,537260,
-10796,8,12936,8591,442,9553,9000,18000,283000,537263,
-10412,376,12092,8175,-366,10055,10000,18000,284000,537275,
-10284,420,11612,8129,-538,10138,11000,18000,284000,537278,
-10172,512,11252,8045,-707,10214,11000,18000,284000,537280,
-9112,516,10012,7533,-1397,10282,12000,18000,285000,537292,
-8836,572,9624,7408,-1454,10256,12000,18000,286000,537295,
-8716,520,9316,7303,-1519,10276,12000,18000,286000,537297,
-7700,844,8264,6630,-1529,10453,13000,18000,287000,537309,
-7240,908,8076,6538,-1487,10503,13000,18000,287000,537312,
-7160,976,7764,6402,-1438,10581,13000,18000,287000,537314,
-6016,1624,7152,5739,-931,11124,14000,17000,288000,537326,
-5752,1800,7056,5621,-837,11215,14000,17000,288000,537328,
-5668,1888,6888,5484,-722,11336,14000,17000,288000,537331,
-5036,2156,6484,4609,-79,11824,15000,17000,290000,537343,
-4816,2156,5992,4374,68,11903,15000,17000,290000,537346,
-4904,1924,6324,4286,66,11962,16000,17000,290000,537348,
-4196,1992,5544,3126,683,12213,16000,17000,291000,537360,
-4108,1940,5540,2921,805,12226,16000,17000,291000,537363,
-3980,2120,5568,2719,932,12257,17000,17000,292000,537365,
-3052,2168,5212,1645,1201,12250,17000,17000,293000,537378,
-3184,2432,5144,1456,1215,12255,17000,17000,293000,537380,
-3008,2452,5208,1274,1249,12251,17000,17000,293000,537382,
-3168,2632,5388,414,726,12498,18000,16000,295000,537395,
-3204,2580,5308,246,605,12518,18000,16000,295000,537397,
-3072,2612,5168,41,445,12521,18000,16000,295000,537399,
-2480,2580,5672,-1012,-669,12257,18000,16000,296000,537412,
-2360,2484,5816,-1180,-913,12194,18000,16000,296000,537414,
-2400,2448,6128,-1323,-1142,12111,18000,16000,297000,537416,
-1852,2196,6052,-2279,-2082,12031,18000,15000,298000,537429,
-1492,2040,6016,-2465,-2223,12020,18000,15000,298000,537431,
-1328,2116,5936,-2638,-2323,12029,18000,15000,298000,537433,
8,1836,6280,-3544,-2599,11789,18000,14000,299000,537446,
112,2008,6336,-3694,-2595,11780,18000,14000,299000,537448,
308,1936,6376,-3808,-2640,11762,18000,14000,299000,537450,
1032,2136,7116,-4356,-2601,11690,18000,13000,300000,537463,
1204,2236,7252,-4417,-2610,11650,18000,13000,301000,537465,
1324,2172,7396,-4557,-2582,11550,18000,13000,301000,537467,
1568,1932,8868,-5181,-2514,11094,18000,12000,302000,537480,
1724,1748,8960,-5292,-2501,11039,18000,12000,302000,537482,
2020,1780,9276,-5441,-2509,11001,17000,12000,302000,537485,
3272,1260,9968,-6127,-2217,10429,17000,11000,303000,537497,
3344,1256,9980,-6212,-2090,10300,17000,11000,303000,537499,
3584,1244,10268,-6303,-1958,10174,17000,11000,303000,537502,
3900,1780,10480,-6726,-1510,9491,16000,10000,304000,537514,
3864,1680,10476,-6822,-1463,9401,16000,10000,304000,537516,
3996,1680,10544,-6898,-1424,9244,16000,10000,304000,537519,
3808,1712,10896,-7400,-1478,8426,15000,10000,305000,537531,
3732,1740,11188,-7481,-1540,8275,15000,10000,305000,537534,
3700,1780,11132,-7571,-1642,8115,15000,10000,305000,537536,
4772,1456,11764,-7991,-2529,6803,15000,9000,306000,537548,
4848,1436,12008,-8078,-2679,6482,14000,9000,306000,537551,
4940,1480,12080,-8161,-2826,6164,14000,9000,306000,537553,
4760,1180,12568,-8546,-3705,4895,13000,8000,307000,537565,
4896,1184,12816,-8585,-3928,4708,13000,8000,307000,537568,
5080,1268,12936,-8645,-4091,4529,13000,8000,307000,537570,
5796,900,13432,-8858,-4736,3252,12000,7000,307000,537583,
6012,836,13696,-8907,-4766,2961,12000,7000,307000,537585,
6036,668,13812,-8947,-4774,2734,12000,7000,307000,537587,
6796,356,13644,-9216,-4279,1448,11000,6000,307000,537600,
6824,428,13556,-9297,-4056,1208,11000,6000,307000,537602,
6856,240,13548,-9355,-3798,1000,11000,6000,307000,537604,
6932,164,13656,-9748,-2178,233,10000,6000,307000,537617,
6980,200,13940,-9778,-1884,62,9000,6000,307000,537619,
6844,204,14420,-9778,-1625,-74,9000,6000,307000,537621,
6204,-408,15424,-9847,-593,-1014,8000,5000,307000,537634,
6184,-448,15544,-9872,-563,-1195,8000,5000,307000,537636,
6008,-488,15616,-9891,-574,-1394,8000,5000,307000,537638,
5452,-984,16556,-9983,-1323,-2622,7000,5000,307000,537651,
5436,-976,16704,-9986,-1528,-2879,7000,5000,306000,537653,
5416,-1112,16792,-9981,-1757,-3112,6000,5000,306000,537655,
5236,-1540,17024,-9950,-2828,-4357,5000,5000,306000,537668,
5228,-1680,17184,-9941,-2985,-4571,5000,4000,306000,537670,
5240,-1668,17292,-9944,-3058,-4774,5000,4000,306000,537672,
5672,-1932,17496,-9946,-3191,-5713,4000,4000,305000,537685,
5680,-2124,17752,-9937,-3118,-5873,4000,4000,305000,537687,
5712,-2168,17976,-9874,-3065,-6021,4000,4000,305000,537689,
5352,-2480,19428,-9448,-2565,-6786,3000,4000,304000,537702,
5184,-2600,19592,-9396,-2492,-6913,2000,4000,304000,537704,
5092,-2632,19672,-9291,-2436,-7033,2000,3000,304000,537707,
5012,-3032,20184,-9071,-2003,-7786,1000,3000,303000,537719,
5156,-3100,20116,-9037,-1876,-7959,1000,3000,303000,537721,
5100,-3160,20080,-8966,-1767,-8114,1000,3000,303000,537724,
5684,-3360,19784,-8553,-715,-9041,0,3000,302000,537736,
5648,-3352,19836,-8437,-463,-9229,0,3000,302000,537738,
5576,-3384,19784,-8307,-174,-9387,0,3000,302000,537741,
5192,-3512,19880,-7732,1426,-9960,0,3000,301000,537753,
4980,-3488,19808,-7655,1712,-10061,0,3000,301000,537756,
4856,-3748,19836,-7586,1930,-10163,-1000,3000,301000,537758,
3688,-4036,20568,-7131,2920,-10826,-1000,3000,299000,537770,
3356,-4044,20716,-7018,2968,-10940,-2000,3000,299000,537773,
3000,-4224,21188,-6909,3044,-11074,-2000,3000,299000,537775,
1668,-4732,21172,-6376,2862,-11684,-2000,3000,298000,537787,
1680,-4728,21268,-6310,2739,-11783,-3000,3000,298000,537790,
1372,-4828,20904,-6249,2605,-11877,-3000,3000,298000,537792,
1348,-4916,20560,-5836,2230,-12459,-3000,3000,296000,537805,
1320,-4860,20216,-5755,2199,-12506,-4000,3000,296000,537807,
1440,-4904,20008,-5661,2199,-12566,-4000,3000,296000,537809,
1492,-4944,19008,-5209,2862,-12867,-4000,4000,295000,537822,
1596,-5088,18940,-5087,3037,-12980,-4000,4000,294000,537824,
1592,-5100,18584,-5023,3243,-12948,-5000,4000,294000,537826,
932,-5228,17864,-4688,4584,-13493,-5000,4000,293000,537839,
668,-5268,17828,-4639,4779,-13560,-5000,4000,293000,537841,
508,-5188,17732,-4568,4964,-13656,-5000,4000,292000,537843,
-392,-5368,17328,-4284,5660,-14150,-6000,4000,291000,537856,
-784,-5616,17692,-4224,5744,-14228,-6000,4000,291000,537858,
-724,-5396,17328,-4138,5749,-14309,-6000,5000,290000,537860,
-1652,-5100,17068,-3869,5826,-14740,-7000,5000,289000,537873,
-1896,-5172,17112,-3832,5881,-14800,-7000,5000,289000,537875,
-2104,-5000,15844,-3718,6479,-14838,-7000,5000,287000,537888,
-2072,-4832,15388,-3738,6651,-14857,-8000,6000,287000,537890,
-1960,-4944,15252,-3715,6853,-14848,-8000,6000,287000,537892,
-1896,-4756,14088,-3787,8420,-14942,-8000,6000,285000,537905,
-2120,-4796,14208,-3781,8678,-14906,-8000,6000,285000,537907,
-2052,-4864,13816,-3761,8957,-14925,-8000,6000,284000,537909,
-3872,-5736,14188,-3627,9967,-14812,-9000,7000,283000,537922,
-4124,-5876,14160,-3587,10041,-14819,-9000,7000,283000,537924,
-4396,-5944,14196,-3592,10127,-14813,-9000,7000,282000,537927,
-5512,-6476,13788,-3698,10242,-15121,-10000,8000,281000,537939,
-5692,-6400,13688,-3726,10266,-15255,-10000,8000,280000,537941,
-6472,-6048,12776,-3952,10321,-15643,-11000,9000,279000,537954,
-6600,-5976,12652,-4003,10344,-15636,-11000,9000,278000,537956,
-6584,-5804,12452,-4028,10384,-15578,-11000,9000,278000,537959,
-6976,-5220,11944,-4205,10652,-14983,-12000,10000,276000,537971,
-7004,-5232,11872,-4256,10672,-14819,-12000,10000,276000,537973,
-7064,-5140,12004,-4292,10704,-14697,-12000,11000,276000,537976,
-8696,-6016,12364,-4583,10487,-14045,-13000,11000,274000,537988,
-8892,-6004,12328,-4663,10330,-13903,-13000,12000,274000,537991,
-10692,-6572,11932,-5219,9209,-13026,-14000,12000,272000,538003,
-10948,-6668,11940,-5335,8997,-12888,-14000,12000,272000,538006,
-11172,-6448,11520,-5470,8751,-12734,-14000,12000,272000,538008,
-11320,-6168,11292,-5878,8012,-12027,-15000,13000,270000,538020,
-11288,-6148,11252,-5898,7987,-11832,-16000,13000,270000,538023,
-10832,-5692,10724,-5901,8411,-10753,-16000,14000,269000,538035,
-10928,-5440,10716,-5916,8550,-10490,-17000,14000,269000,538038,
-10848,-5684,10576,-5998,8637,-10253,-17000,14000,269000,538040,
-12084,-6124,10824,-6276,8665,-8714,-18000,15000,267000,538052,
-12212,-6124,11084,-6363,8505,-8432,-18000,15000,267000,538055,
-12736,-6364,11280,-6483,8344,-8136,-18000,15000,267000,538057,
-13924,-7128,11048,-7106,7086,-7134,-19000,16000,266000,538069,
-14128,-7136,11016,-7237,6794,-7018,-19000,16000,266000,538072,
-14060,-6932,11440,-7726,5761,-6611,-20000,16000,265000,538084,
-14064,-6964,11576,-7743,5645,-6521,-20000,16000,265000,538087,
-13876,-6756,11708,-7705,5549,-6448,-21000,16000,265000,538089,
-13664,-6356,11720,-7648,5555,-5573,-22000,17000,264000,538102,
-13712,-6372,11444,-7703,5594,-5320,-22000,17000,264000,538104,
-13680,-6324,11544,-7774,5623,-5048,-22000,17000,264000,538106,
-13832,-6684,11508,-8299,5517,-3593,-23000,18000,263000,538119,
-13968,-6772,11648,-8363,5451,-3365,-23000,18000,263000,538121,
-15148,-7596,11740,-8859,4647,-2380,-24000,18000,263000,538133,
-15160,-7608,11652,-8873,4454,-2213,-24000,18000,263000,538136,
-15340,-7764,12064,-8909,4274,-2085,-25000,18000,263000,538138,
-15840,-8080,11996,-9028,3376,-1435,-26000,19000,262000,538151,
-15876,-8052,11952,-9079,3264,-1286,-26000,19000,262000,538153,
-15876,-7860,12152,-9123,3182,-1121,-26000,19000,262000,538155,
-15512,-7352,12820,-9272,2844,-61,-27000,19000,262000,538168,
-15256,-7184,13068,-9211,2828,155,-27000,19000,262000,538170,
-15536,-6980,14044,-9060,2520,1549,-28000,20000,262000,538182,
-15496,-6932,13988,-9077,2389,1820,-28000,20000,262000,538185,
-15816,-7160,14004,-9115,2232,2103,-28000,20000,262000,538187,
-16076,-7860,14524,-9450,892,3359,-29000,20000,262000,538200,
-16216,-8060,14540,-9470,539,3556,-29000,20000,262000,538202,
-16204,-8364,14652,-9491,188,3738,-29000,20000,262000,538204,
-15856,-8980,14248,-9618,-1529,4682,-30000,21000,263000,538217,
-15588,-8872,14460,-9574,-1795,4859,-30000,21000,263000,538219,
-15504,-8904,14884,-9568,-2037,4996,-30000,21000,263000,538221,
-14368,-8764,15536,-9065,-2809,5947,-31000,21000,264000,538234,
-14188,-8740,15488,-9017,-2881,6134,-31000,21000,264000,538236,
-13868,-9076,16000,-8787,-3508,7240,-32000,21000,265000,538249,
-13872,-9012,16088,-8761,-3693,7403,-32000,21000,265000,538251,
-13936,-9244,16360,-8757,-3886,7562,-32000,21000,265000,538253,
-13252,-9860,16504,-8544,-5104,8262,-32000,21000,266000,538266,
-13120,-9916,16620,-8480,-5270,8372,-32000,21000,266000,538268,
-12680,-10068,16704,-8386,-5441,8477,-32000,21000,266000,538270,
-11804,-10088,17468,-7790,-5813,9012,-33000,21000,268000,538283,
-11756,-10020,17332,-7677,-5781,9184,-33000,21000,268000,538285,
-10636,-10532,18644,-7057,-5462,10077,-33000,22000,269000,538298,
-10424,-10524,18592,-6946,-5374,10266,-33000,22000,269000,538300,
-10472,-10776,18704,-6836,-5272,10428,-33000,22000,269000,538302,
-9920,-10924,19032,-6199,-4698,11380,-33000,22000,271000,538315,
-9824,-10900,19184,-6034,-4640,11545,-33000,22000,271000,538317,
-9332,-11004,19728,-5118,-4565,12006,-33000,22000,272000,538330,
-9352,-10996,19764,-4951,-4676,12029,-33000,22000,272000,538332,
-9172,-11132,19768,-4823,-4731,12110,-33000,22000,273000,538334,
-9104,-11752,19748,-4210,-5602,12335,-33000,22000,274000,538347,
-8956,-11680,19696,-4098,-5780,12395,-33000,22000,274000,538349,
-7516,-11920,19760,-3166,-6355,12401,-33000,23000,276000,538362,
-7320,-11936,19828,-2956,-6335,12385,-33000,23000,276000,538364,
-6988,-11880,19864,-2731,-6253,12385,-33000,23000,276000,538366,
-5572,-11296,19588,-1626,-5261,12645,-32000,23000,278000,538379,
-5412,-11188,19448,-1470,-5003,12724,-32000,23000,278000,538381,
-4936,-11364,19588,-715,-4133,13179,-32000,23000,279000,538394,
-4740,-11304,19512,-588,-4012,13230,-31000,23000,280000,538396,
-4848,-11352,19428,-432,-3939,13286,-31000,23000,280000,538398,
-4364,-11592,18608,134,-3863,13262,-31000,23000,281000,538411,
-4316,-11588,18672,239,-3909,13184,-31000,24000,282000,538413,
-4216,-11612,18428,351,-3911,13116,-31000,24000,282000,538415,
-4036,-11408,17916,961,-4239,12585,-30000,24000,283000,538428,
-3980,-11312,17992,1047,-4306,12510,-30000,24000,283000,538430,
-3408,-10788,17236,1606,-4579,12054,-29000,24000,285000,538443,
-3360,-10784,17188,1692,-4634,12009,-29000,24000,285000,538445,
-3124,-10692,17184,1750,-4677,11925,-29000,24000,285000,538447,
-2780,-10396,16444,1930,-5052,11538,-28000,24000,287000,538460,
-2728,-10456,16252,1949,-5155,11450,-28000,24000,287000,538462,
-2680,-10436,16160,1968,-5266,11373,-28000,24000,287000,538464,
-2372,-10444,15556,2108,-5932,10709,-27000,24000,288000,538477,
-2396,-10380,15420,2171,-6074,10573,-27000,24000,289000,538479,
-1708,-10148,14460,2392,-6414,9682,-26000,24000,290000,538492,
-1564,-10168,14648,2401,-6417,9481,-26000,23000,290000,538494,
-1516,-10120,14268,2458,-6405,9317,-26000,23000,290000,538496,
-1036,-9540,13524,2580,-6061,8505,-25000,23000,291000,538509,
-1036,-9408,13460,2586,-5941,8361,-25000,23000,291000,538511,
-928,-9316,13356,2630,-5834,8223,-25000,23000,292000,538513,
-976,-8892,13020,2832,-4911,7606,-25000,23000,292000,538526,
-936,-8680,12804,2820,-4744,7506,-25000,23000,293000,538528,
-936,-8476,12812,2864,-4572,7408,-24000,23000,293000,538530,
-1084,-8344,12620,2772,-3541,6855,-24000,23000,294000,538543,
-1168,-8216,12456,2743,-3366,6734,-24000,23000,294000,538545,
-1092,-8196,12512,2733,-3173,6623,-24000,23000,294000,538548,
-1292,-7928,12020,2646,-2180,6081,-23000,22000,295000,538560,
-1316,-7864,11988,2590,-2057,5977,-23000,22000,295000,538563,
-1860,-7272,11872,2328,-1705,5412,-23000,22000,295000,538575,
-1900,-7140,11992,2275,-1711,5289,-23000,22000,295000,538577,
-2144,-7204,12204,2214,-1753,5186,-23000,22000,295000,538580,
-2272,-7048,12096,1860,-2284,4520,-22000,22000,296000,538592,
-2344,-7052,12032,1767,-2356,4399,-22000,22000,296000,538595,
-2292,-7060,12004,1705,-2470,4260,-22000,22000,296000,538597,
-2108,-6916,11884,1363,-2853,3518,-22000,22000,297000,538609,
-2228,-6804,12056,1304,-2898,3398,-22000,22000,297000,538612,
-2032,-6964,11840,1296,-2896,3266,-22000,22000,297000,538614,
-2116,-6944,11876,1237,-2683,2613,-22000,22000,297000,538627,
-2060,-6776,11916,1233,-2571,2524,-22000,22000,297000,538629,
-2084,-6848,12040,1215,-2466,2404,-22000,22000,297000,538631,
-2268,-6672,12068,1119,-1944,1728,-21000,21000,297000,538644,
-2272,-6636,12308,1075,-1915,1604,-21000,21000,297000,538646,
-2884,-6260,12240,784,-1653,1072,-21000,21000,298000,538659,
-2856,-6292,12068,746,-1655,1009,-21000,21000,298000,538661,
-2936,-6224,12260,672,-1642,914,-21000,21000,298000,538663,
-3100,-6228,12720,390,-1728,342,-21000,21000,298000,538676,
-3228,-6172,12564,347,-1780,266,-21000,21000,298000,538678,
-3272,-6140,12640,301,-1822,177,-21000,21000,298000,538680,
-3536,-6384,12832,51,-2099,-240,-21000,21000,298000,538693,
-3576,-6440,12932,-5,-2141,-323,-21000,21000,298000,538695,
-3684,-6408,12760,-12,-2169,-403,-21000,21000,298000,538697,
-3588,-6492,13004,-150,-2316,-798,-21000,20000,298000,538710,
-3636,-6456,12972,-167,-2291,-877,-21000,20000,298000,538712,
-3496,-6444,12840,-215,-2273,-937,-21000,20000,298000,538715,
-3648,-6536,12952,-253,-1968,-1185,-21000,20000,298000,538727,
-3608,-6536,12944,-273,-1882,-1233,-21000,20000,298000,538730,
-3648,-6424,13192,-277,-1812,-1250,-21000,20000,298000,538732,
-3876,-6564,13144,-345,-1381,-1446,-21000,20000,298000,538744,
-3864,-6632,13100,-326,-1320,-1464,-22000,20000,298000,538747,
-4448,-6592,13712,-339,-1163,-1669,-22000,19000,297000,538759,
-4516,-6504,13692,-307,-1172,-1702,-22000,19000,297000,538762,
-4712,-6512,13808,-325,-1153,-1745,-22000,19000,297000,538764,
-4628,-6592,13748,-310,-1229,-1858,-22000,19000,297000,538776,
-4664,-6500,13844,-321,-1242,-1897,-22000,19000,297000,538779,
-4772,-6504,13816,-348,-1275,-1936,-22000,19000,297000,538781,
-4836,-6512,14124,-396,-1428,-2029,-22000,19000,297000,538793,
-4932,-6544,13884,-408,-1490,-2072,-22000,19000,297000,538796,
-5016,-6512,14324,-425,-1596,-2169,-22000,19000,297000,538808,
-5024,-6584,14248,-447,-1582,-2192,-22000,19000,297000,538811,
-5088,-6448,14356,-454,-1601,-2229,-22000,19000,297000,538813,
-5028,-6616,14252,-455,-1474,-2375,-22000,18000,297000,538825,
-5024,-6620,14380,-451,-1431,-2384,-22000,18000,297000,538828,
-4948,-6588,14220,-441,-1372,-2406,-22000,18000,297000,538830,
-4884,-6548,14336,-368,-941,-2408,-22000,18000,296000,538843,
-4972,-6480,14348,-323,-895,-2400,-22000,18000,296000,538845,
-5012,-6464,14408,-314,-812,-2381,-22000,18000,296000,538847,
-5280,-6552,14476,-211,-495,-2210,-22000,18000,296000,538860,
-5332,-6556,14620,-201,-476,-2206,-22000,18000,296000,538862,
-5520,-6812,14684,-122,-278,-2209,-23000,18000,296000,538875,
-5596,-6848,14676,-121,-211,-2228,-23000,18000,296000,538877,
-5496,-6960,14636,-80,-172,-2239,-23000,18000,296000,538879,
-5408,-6784,14272,53,254,-2202,-23000,18000,296000,538892,
-5440,-6748,14256,73,327,-2213,-23000,18000,296000,538894,
-5420,-6672,14420,68,439,-2172,-23000,18000,296000,538896,
-5560,-6552,14500,145,837,-2013,-23000,18000,295000,538909,
-5568,-6452,14476,123,910,-1994,-23000,18000,295000,538911,
-5700,-6388,14440,136,932,-1938,-23000,18000,295000,538913,
-5840,-6456,14584,109,964,-1747,-23000,18000,295000,538926,
-6052,-6592,14636,120,925,-1727,-23000,18000,295000,538928,
-5996,-6468,14520,97,874,-1725,-23000,18000,295000,538931,
-6144,-6544,14868,97,420,-1695,-23000,18000,295000,538943,
-6212,-6548,14620,96,348,-1676,-23000,18000,295000,538945,
-6132,-6496,14736,118,254,-1685,-23000,18000,295000,538948,
-5948,-6564,14360,155,-131,-1523,-23000,18000,295000,538960,
-6064,-6572,14672,140,-162,-1501,-23000,18000,295000,538963,
-5804,-6564,14476,144,-174,-1435,-23000,18000,295000,538965,
-5616,-6708,14432,191,-57,-1288,-23000,18000,294000,538977,
-5692,-6716,14332,203,-59,-1238,-23000,18000,294000,538980,
-5592,-6664,14476,224,-21,-1214,-23000,18000,294000,538982,
-5728,-6664,14264,290,148,-1083,-23000,17000,294000,538995,
-5772,-6644,14360,310,174,-1055,-23000,17000,294000,538997,
-5848,-6640,14348,320,161,-1046,-23000,17000,294000,538999,
-5800,-6580,14596,297,71,-1007,-23000,17000,294000,539012,
-5852,-6560,14576,290,69,-974,-23000,17000,294000,539014,
-5792,-6336,14624,281,26,-961,-23000,17000,294000,539016,
-5708,-6392,14376,262,32,-903,-23000,17000,294000,539029,
-5596,-6344,14468,254,52,-862,-23000,17000,294000,539031,
-5640,-6456,14296,267,45,-850,-23000,17000,294000,539034,
-5744,-6296,14552,242,-28,-797,-23000,17000,294000,539046,
-5840,-6248,14420,273,-85,-761,-23000,17000,294000,539048,
-5632,-6136,14476,239,-82,-777,-23000,17000,294000,539051,
