Ax,Ay,Az,Gx,Gy,Gz,Roll,Pitch,Yaw,Timestamp,Target
980,2504,15484,-625,-161,55,2000,0,275000,705961,
1184,2584,15484,-499,-341,41,2000,0,275000,705974,
1212,2532,15416,-428,-376,65,2000,0,275000,705976,
1056,2616,15352,-397,-385,20,2000,0,275000,705979,
1148,2632,15444,-399,-330,-17,2000,0,275000,705981,
1060,2752,15596,-289,-153,-70,2000,0,275000,705994,
1148,2808,15688,-281,-199,-78,2000,0,275000,705996,
1108,2740,15724,-304,-83,-102,2000,0,275000,705998,
1172,2792,15832,-318,-160,-55,2000,0,275000,706000,
1140,2724,15976,-327,97,-78,2000,0,275000,706013,
1188,2708,15792,-419,47,-101,2000,0,275000,706015,
1092,2752,15828,-367,136,-113,2000,0,275000,706018,
1012,2684,15760,-460,141,-109,2000,0,275000,706020,
1116,2668,15676,-427,369,-142,2000,0,275000,706032,
1212,2700,15700,-482,313,-178,2000,0,275000,706035,
1068,2676,15632,-416,379,-166,2000,0,275000,706037,
856,2684,15912,-452,266,-213,2000,0,275000,706050,
860,2680,15880,-425,209,-195,2000,0,275000,706052,
776,2728,15816,-478,144,-220,2000,0,275000,706054,
740,2800,15848,-447,116,-177,2000,0,275000,706057,
792,2692,15780,-501,-133,-230,2000,0,275000,706069,
852,2816,15908,-470,-226,-180,2000,0,275000,706071,
820,2760,15720,-479,-153,-224,2000,0,275000,706074,
956,2784,15720,-517,-280,-211,2000,0,275000,706076,
908,2912,15868,-514,-301,-273,2000,0,275000,706089,
1104,2916,15852,-575,-345,-291,2000,0,275000,706091,
1024,2908,15760,-501,-295,-281,2000,0,275000,706093,
1288,2916,15828,-597,-254,-318,2000,0,274000,706106,
1268,2920,15804,-558,-205,-315,2000,0,274000,706108,
1344,2900,15804,-606,-159,-337,2000,0,274000,706110,
1232,2836,15912,-573,-118,-314,2000,0,274000,706113,
1244,2920,15812,-581,45,-360,2000,0,274000,706125,
1196,2852,15824,-537,84,-347,2000,0,274000,706127,
1168,2788,16020,-546,130,-397,2000,0,274000,706130,
1000,2828,15660,-491,175,-432,2000,0,274000,706142,
968,2908,15820,-517,139,-447,2000,0,274000,706145,
1076,2904,15760,-471,148,-448,2000,0,274000,706147,
996,2832,15756,-457,115,-445,2000,0,274000,706149,
1092,2780,15616,-378,113,-488,2000,0,274000,706162,
1148,2656,15552,-350,158,-469,2000,0,274000,706164,
1168,2752,15592,-391,105,-481,2000,0,274000,706166,
1088,2796,15664,-302,131,-521,2000,0,274000,706179,
1012,2688,15632,-279,182,-538,2000,0,274000,706181,
1012,2704,15692,-260,97,-526,2000,0,274000,706183,
904,2800,15756,-233,120,-545,2000,0,274000,706185,
940,2872,15776,-260,-21,-477,2000,0,274000,706198,
992,2796,15840,-252,-4,-494,2000,0,274000,706200,
1016,2776,15792,-271,-46,-483,2000,0,274000,706203,
1136,2880,15680,-257,-15,-497,2000,0,274000,706205,
1184,2872,15684,-354,-111,-523,2000,0,274000,706217,
1120,2888,15560,-349,23,-555,2000,0,274000,706220,
1300,2852,15496,-381,-28,-543,2000,0,274000,706222,
1212,2916,15500,-386,204,-514,2000,0,274000,706234,
1224,2848,15380,-412,163,-537,2000,0,274000,706237,
1216,2864,15372,-385,266,-558,2000,0,274000,706239,
1200,2916,15428,-444,208,-546,2000,0,274000,706241,
1096,3028,15456,-469,487,-562,2000,0,274000,706254,
1180,3004,15460,-452,491,-568,2000,0,274000,706256,
1144,2884,15560,-479,594,-543,2000,0,274000,706258,
1104,3000,15488,-499,552,-571,2000,0,274000,706261,
924,3032,15548,-499,750,-577,2000,0,274000,706273,
764,2980,15544,-575,661,-586,2000,0,274000,706276,
952,3028,15628,-524,735,-585,2000,0,274000,706278,
832,3116,15716,-631,646,-651,2000,0,274000,706290,
672,3016,15684,-613,711,-669,2000,0,274000,706293,
712,3048,15692,-659,578,-665,2000,0,274000,706295,
712,2952,15808,-598,653,-706,2000,0,274000,706297,
508,2784,15828,-636,369,-631,2000,0,274000,706310,
472,2696,15708,-568,374,-628,2000,0,274000,706312,
532,2688,15780,-635,277,-613,2000,0,274000,706314,
376,2636,15772,-572,262,-598,2000,0,274000,706316,
476,2584,15792,-548,66,-560,2000,0,274000,706329,
516,2592,15776,-542,5,-562,2000,0,274000,706331,
592,2556,15820,-507,-3,-520,2000,0,274000,706334,
424,2572,15924,-527,-64,-511,2000,0,274000,706336,
612,2520,15640,-443,-1,-398,2000,0,274000,706348,
712,2540,15656,-504,-28,-388,2000,0,274000,706351,
724,2660,15764,-429,76,-398,2000,0,274000,706353,
692,2692,15712,-482,106,-388,2000,0,274000,706355,
852,2856,15712,-456,508,-376,2000,0,273000,706368,
824,2916,15772,-501,543,-390,2000,0,273000,706370,
812,2828,15632,-464,615,-385,2000,0,273000,706372,
648,2776,15760,-508,812,-387,2000,0,273000,706385,
524,2792,15608,-426,862,-388,2000,0,273000,706387,
536,2796,15496,-466,852,-379,2000,0,273000,706390,
552,2852,15556,-410,839,-377,2000,0,273000,706392,
392,2684,15792,-418,563,-337,2000,0,273000,706404,
300,2732,15840,-359,570,-346,2000,0,273000,706406,
224,2668,15732,-421,507,-332,2000,0,273000,706409,
352,2676,15748,-351,433,-302,2000,0,273000,706411,
348,2488,15892,-378,3,-178,2000,0,273000,706423,
228,2548,15888,-332,-3,-177,2000,0,273000,706426,
452,2548,15792,-371,-93,-160,2000,0,273000,706428,
460,2452,15956,-293,-37,-136,2000,0,273000,706430,
712,2508,15612,-334,-152,-69,2000,0,273000,706443,
756,2516,15676,-272,-44,-70,2000,0,273000,706445,
692,2548,15728,-304,-21,-107,2000,0,273000,706447,
996,2504,15608,-212,123,-137,2000,0,273000,706460,
916,2584,15668,-283,122,-140,2000,0,273000,706462,
1008,2484,15888,-225,168,-173,2000,0,273000,706464,
856,2532,15756,-293,103,-186,2000,0,273000,706467,
740,2632,16360,-323,60,-152,2000,0,273000,706479,
676,2676,16244,-383,-1,-187,2000,0,273000,706482,
692,2644,16052,-354,-79,-150,2000,0,273000,706484,
660,2708,16292,-407,-205,-169,2000,0,273000,706486,
856,2652,16220,-303,-561,-132,2000,0,273000,706499,
760,2608,16316,-343,-658,-96,2000,0,273000,706501,
896,2696,16252,-306,-683,-124,2000,0,273000,706504,
936,2592,16344,-271,-734,-94,2000,0,273000,706506,
1228,2888,16104,-135,-674,-245,2000,0,273000,706518,
1336,2940,16124,-145,-712,-251,2000,0,273000,706521,
1472,2992,16268,-97,-593,-317,2000,0,273000,706523,
1660,3088,16164,-80,-277,-373,2000,0,273000,706535,
1444,3064,16120,-67,-103,-383,2000,0,273000,706538,
1700,3076,15948,-139,-49,-469,2000,0,273000,706540,
1636,2988,15888,-65,98,-496,2000,0,273000,706542,
1384,3028,15832,-124,520,-672,2000,0,273000,706555,
1352,2916,15900,-155,610,-700,2000,0,273000,706557,
1364,2860,15824,-139,639,-698,2000,0,273000,706560,
1296,2828,15572,-198,720,-703,2000,0,273000,706562,
856,2840,15604,-259,896,-776,2000,0,273000,706574,
1000,2712,15772,-338,897,-795,2000,0,273000,706577,
896,2712,15780,-345,911,-769,2000,0,273000,706579,
716,2860,15544,-426,840,-812,2000,0,273000,706592,
728,2868,15620,-442,803,-757,2000,0,273000,706594,
568,2736,15616,-445,795,-757,2000,0,273000,706596,
568,2840,15672,-463,724,-800,2000,0,273000,706599,
328,2744,15544,-482,494,-753,2000,0,273000,706611,
268,2752,15528,-445,484,-702,2000,0,273000,706613,
332,2776,15448,-456,403,-640,2000,0,273000,706616,
364,2728,15520,-439,359,-646,2000,0,273000,706618,
480,2772,15548,-541,196,-617,2000,0,273000,706630,
512,2856,15648,-470,197,-575,2000,0,273000,706633,
492,2900,15676,-536,180,-573,2000,0,273000,706635,
492,2944,15676,-535,124,-551,2000,0,273000,706637,
472,2904,15700,-649,44,-546,2000,0,273000,706650,
504,2904,15660,-598,69,-498,2000,0,273000,706652,
540,2876,15720,-638,-9,-511,2000,0,273000,706655,
476,3052,15768,-618,-6,-458,2000,0,273000,706657,
512,2976,15800,-614,-43,-346,2000,0,273000,706669,
680,3124,15872,-515,-14,-318,2000,0,273000,706672,
632,3044,15812,-563,68,-355,2000,0,273000,706674,
756,3056,15880,-508,114,-321,2000,0,273000,706676,
904,3152,15956,-499,470,-334,2000,0,272000,706689,
768,3180,15960,-446,556,-326,2000,0,272000,706691,
780,3148,15856,-462,652,-354,2000,0,272000,706693,
564,2976,15880,-398,830,-287,2000,0,272000,706706,
432,2984,15956,-413,905,-283,2000,0,272000,706708,
528,3000,15836,-397,877,-275,2000,0,272000,706710,
428,3004,15924,-370,920,-279,2000,0,272000,706713,
172,2836,15760,-386,762,-199,2000,0,272000,706725,
220,2920,15948,-359,736,-207,2000,0,272000,706728,
128,2936,15784,-333,685,-189,2000,0,272000,706730,
188,2976,15888,-407,612,-145,2000,0,272000,706732,
168,2884,15768,-332,338,-102,2000,0,272000,706745,
240,2984,15836,-357,218,-85,2000,0,272000,706747,
260,2940,15840,-295,221,-62,2000,0,272000,706749,
208,3004,15880,-355,134,-66,2000,0,272000,706752,
428,2864,15672,-239,-67,-9,2000,0,272000,706764,
504,2980,15636,-279,-148,13,2000,0,272000,706767,
516,3092,15564,-217,-121,31,2000,0,272000,706769,
620,3056,15608,-228,-145,31,2000,0,272000,706771,
808,2980,15544,-179,-83,-59,2000,0,272000,706784,
716,3044,15364,-210,-177,-15,2000,0,272000,706786,
956,3104,15432,-198,-77,-42,2000,0,272000,706789,
884,3068,15340,-252,-34,-34,2000,0,272000,706791,
1120,3000,15472,-236,194,-78,2000,0,272000,706803,
1012,3076,15448,-350,196,-77,2000,0,272000,706806,
1020,3000,15456,-277,335,-90,2000,0,272000,706808,
1040,3028,15408,-386,318,-91,2000,0,272000,706810,
952,3016,15532,-436,553,-134,2000,0,272000,706823,
920,3040,15428,-484,529,-98,2000,0,272000,706825,
980,2956,15616,-479,620,-92,2000,0,272000,706827,
892,2940,15608,-513,642,-88,2000,0,272000,706830,
636,2940,15704,-573,703,-115,2000,0,272000,706842,
708,2976,15740,-639,670,-122,2000,0,272000,706844,
740,2996,15748,-653,647,-147,2000,0,272000,706847,
704,2940,15708,-672,559,-159,2000,0,272000,706859,
648,2800,15732,-696,548,-149,2000,0,272000,706861,
592,2856,15572,-627,570,-192,2000,0,272000,706864,
604,2792,15520,-688,468,-164,2000,0,272000,706866,
652,2736,15352,-561,457,-248,2000,0,272000,706879,
644,2732,15488,-557,338,-263,2000,0,272000,706881,
652,2764,15436,-526,408,-249,2000,0,272000,706883,
632,2908,15416,-548,299,-239,2000,0,272000,706885,
744,2808,15548,-455,214,-265,2000,0,272000,706898,
752,2684,15500,-532,136,-265,2000,0,272000,706900,
776,2764,15512,-464,203,-271,2000,0,272000,706903,
804,2700,15396,-536,180,-285,2000,0,272000,706905,
816,2708,15584,-588,214,-323,2000,0,272000,706917,
828,2852,15632,-635,219,-318,2000,0,272000,706920,
852,2768,15640,-640,216,-310,2000,0,272000,706922,
828,2784,15856,-785,328,-351,2000,0,272000,706934,
912,2784,15948,-800,344,-326,2000,0,272000,706937,
804,2692,15972,-824,400,-338,2000,0,272000,706939,
868,2764,15924,-808,388,-359,2000,0,272000,706941,
916,2728,15960,-797,594,-415,2000,0,272000,706954,
728,2592,15836,-802,582,-440,2000,0,272000,706956,
760,2644,15964,-760,651,-430,2000,0,272000,706958,
720,2596,15984,-772,598,-430,2000,0,272000,706961,
704,2624,15904,-572,686,-509,2000,0,272000,706973,
524,2520,16088,-538,648,-522,2000,0,272000,706976,
632,2592,15940,-476,637,-504,2000,0,272000,706978,
568,2576,15904,-470,616,-552,2000,0,272000,706980,
528,2540,16148,-233,467,-572,2000,0,272000,706993,
500,2532,15940,-265,394,-581,2000,0,272000,706995,
508,2468,16108,-188,441,-588,2000,0,272000,706997,
528,2512,16044,-217,330,-587,2000,0,272000,707000,
584,2488,16164,-100,172,-593,2000,0,272000,707012,
728,2568,16088,-123,162,-565,2000,0,272000,707015,
644,2576,16020,-89,225,-599,2000,0,272000,707017,
588,2616,15972,-115,169,-621,2000,0,272000,707019,
744,2644,16120,-35,399,-661,2000,0,272000,707032,
876,2700,16056,-98,381,-696,2000,0,272000,707034,
984,2684,16120,-34,462,-684,2000,0,272000,707036,
852,2692,16152,-72,604,-713,2000,0,272000,707049,
896,2652,16108,-16,657,-738,2000,0,272000,707051,
776,2668,16148,-37,678,-726,2000,0,272000,707054,
672,2708,16100,18,684,-723,2000,0,272000,707056,
560,2768,16196,115,560,-821,2000,0,272000,707068,
544,2848,16204,212,556,-836,2000,0,272000,707071,
528,2804,16108,180,503,-848,2000,0,272000,707073,
552,2808,16440,223,421,-872,2000,0,272000,707075,
640,2736,16328,355,12,-932,3000,0,272000,707088,
800,2868,16280,404,-66,-940,3000,0,271000,707090,
676,2816,16424,407,-155,-1004,3000,0,271000,707092,
720,2888,16316,488,-142,-1021,3000,0,271000,707095,
836,2728,16384,527,-342,-1118,3000,0,271000,707107,
796,2752,16548,585,-335,-1121,3000,0,271000,707110,
876,2736,16580,551,-427,-1128,3000,0,271000,707112,
980,2856,16576,612,-443,-1121,3000,0,271000,707114,
1160,2816,16296,642,-522,-1235,3000,0,271000,707127,
1240,2864,16200,744,-516,-1279,3000,0,271000,707129,
1188,2892,16324,730,-437,-1273,3000,0,271000,707131,
1380,2864,16164,882,-252,-1506,3000,0,271000,707144,
1560,2928,16140,885,-174,-1569,3000,0,271000,707146,
1508,2968,16192,921,-155,-1588,3000,0,271000,707148,
1532,2980,16172,940,-126,-1632,3000,0,271000,707151,
1336,3148,16008,1131,-228,-1827,3000,0,271000,707163,
1332,3008,15984,1154,-284,-1878,3000,0,271000,707165,
1508,3132,15960,1148,-381,-1912,3000,0,271000,707168,
1388,3124,15896,1198,-559,-2136,3000,0,270000,707180,
1444,3192,15860,1180,-644,-2212,3000,0,270000,707183,
1432,3192,15884,1220,-660,-2231,4000,0,270000,707185,
1396,3192,15848,1159,-742,-2304,4000,0,270000,707187,
1536,3236,15592,1183,-911,-2502,4000,0,270000,707200,
1592,3200,15612,1085,-989,-2575,4000,0,270000,707202,
1648,3288,15648,1072,-1069,-2588,4000,0,270000,707204,
1912,3380,15600,1012,-1127,-2777,4000,0,270000,707217,
1944,3340,15508,954,-1146,-2809,4000,0,270000,707219,
1996,3352,15496,965,-1184,-2882,4000,0,270000,707221,
2080,3364,15472,889,-1146,-2906,4000,0,270000,707224,
1976,3368,15276,862,-1193,-3313,4000,0,269000,707236,
1960,3440,15220,839,-1178,-3355,4000,0,269000,707239,
2004,3340,15352,807,-1195,-3432,4000,0,269000,707241,
2228,3516,15256,808,-791,-3742,4000,0,269000,707254,
2296,3556,15260,761,-791,-3815,4000,0,269000,707256,
2164,3556,15116,821,-664,-3884,4000,0,269000,707258,
2332,3576,15224,763,-587,-3924,4000,0,269000,707260,
2124,3660,15004,777,226,-4147,4000,0,268000,707273,
2128,3632,15176,692,350,-4175,5000,0,268000,707275,
2092,3628,14976,724,479,-4247,5000,0,268000,707278,
1532,3732,15088,576,1115,-4344,5000,0,268000,707290,
1396,3784,15272,591,1220,-4377,5000,0,267000,707292,
1336,3756,15168,533,1264,-4389,5000,0,267000,707295,
1128,3908,15232,548,1312,-4383,5000,0,267000,707297,
536,4052,15480,304,1445,-4485,5000,0,267000,707310,
408,3952,15356,312,1362,-4508,5000,0,267000,707312,
316,3976,15396,229,1348,-4509,5000,0,267000,707314,
-276,3996,15764,119,1097,-4498,5000,0,266000,707327,
-352,4256,15680,37,1085,-4488,5000,0,266000,707329,
-448,4144,15508,32,1052,-4493,5000,0,266000,707331,
-620,4092,15676,-61,886,-4468,5000,0,266000,707334,
-1072,4184,15904,-1,375,-4251,5000,0,266000,707346,
-1172,4204,15824,-57,259,-4227,5000,0,266000,707348,
-1204,4192,15900,-7,168,-4123,5000,0,266000,707351,
-1376,4344,15972,104,-156,-3860,5000,0,265000,707363,
-1432,4304,16040,199,-172,-3853,5000,0,265000,707366,
-1324,4344,16052,177,-224,-3747,5000,0,265000,707368,
-1384,4372,15912,214,-283,-3713,5000,0,265000,707370,
-1400,4664,16012,281,-235,-3441,5000,0,265000,707383,
-1524,4648,16004,364,-100,-3338,5000,0,265000,707385,
-1504,4540,16124,289,-78,-3334,5000,0,265000,707387,
-1716,4496,16264,416,456,-3092,5000,0,264000,707400,
-1684,4636,16148,340,551,-3037,5000,0,264000,707402,
-1700,4604,16140,414,693,-2910,5000,0,264000,707404,
-1788,4540,16152,348,840,-2888,5000,0,264000,707407,
-2136,4360,15896,468,1349,-2293,6000,0,264000,707419,
-2268,4392,15772,420,1334,-2178,6000,0,264000,707422,
-2400,4428,15840,495,1441,-2062,6000,0,264000,707424,
-2932,4456,15804,567,1537,-1404,6000,1000,264000,707436,
-3120,4396,15808,630,1491,-1315,6000,1000,264000,707439,
-3156,4340,15684,604,1571,-1230,6000,1000,264000,707441,
-3684,4592,15796,815,1299,-741,6000,1000,264000,707454,
-3736,4592,15852,841,1230,-602,6000,1000,264000,707456,
-3824,4588,15652,853,1075,-494,6000,1000,264000,707458,
-3968,4784,15728,1041,280,325,6000,1000,264000,707471,
-3844,4788,15652,1129,135,444,6000,1000,264000,707473,
-3796,4796,15544,1109,3,567,6000,1000,264000,707475,
-3892,4820,15544,1180,-113,656,6000,1000,264000,707478,
-3736,4504,15348,1269,-410,992,6000,1000,264000,707490,
-3832,4396,15432,1322,-533,1099,6000,1000,264000,707492,
-3636,4492,15268,1347,-536,1188,6000,1000,264000,707495,
-3308,4368,14892,1359,-901,2006,7000,1000,264000,707507,
-3220,4296,14776,1402,-841,2131,7000,1000,264000,707509,
-3252,4356,14888,1354,-876,2319,7000,1000,264000,707512,
-2796,4340,14896,1390,-358,3031,7000,1000,264000,707524,
-2912,4428,14816,1324,-268,3107,7000,1000,264000,707527,
-2908,4424,14660,1356,-181,3256,7000,1000,264000,707529,
-2644,4396,14740,1137,398,3963,7000,1000,265000,707541,
-2748,4428,14504,1184,586,4062,7000,1000,265000,707544,
-2616,4440,14452,1115,674,4178,7000,1000,265000,707546,
-2900,4504,14484,1001,1026,4846,7000,1000,265000,707558,
-2832,4428,14224,908,1054,4993,7000,1000,266000,707561,
-2860,4576,14432,951,1112,5089,7000,1000,266000,707563,
-2752,4564,14388,691,1134,5677,8000,1000,266000,707575,
-2772,4600,14276,735,1162,5798,8000,1000,266000,707577,
-2680,4664,14276,633,1098,5903,8000,1000,266000,707580,
-2320,4560,13868,537,1016,6321,8000,1000,267000,707592,
-2288,4512,13912,516,1020,6383,8000,1000,267000,707595,
-2308,4356,13776,460,1011,6492,8000,1000,267000,707597,
-2256,4204,13812,482,971,6939,8000,1000,268000,707610,
-2204,4132,13820,427,857,7003,8000,1000,268000,707612,
-2212,4056,13732,464,841,7088,8000,1000,268000,707614,
-2248,4104,13852,427,810,7174,8000,1000,268000,707617,
-1796,4172,13820,256,708,7723,8000,1000,269000,707629,
-1740,4160,13748,159,694,7761,8000,1000,269000,707631,
-1636,4140,13592,139,728,7865,8000,1000,269000,707634,
-1056,3848,13640,-197,1144,8251,8000,1000,270000,707646,
-1092,3744,13704,-196,1199,8342,8000,1000,270000,707649,
-1000,3736,13564,-238,1343,8380,8000,1000,270000,707651,
-1184,3608,13548,-648,1627,8884,8000,1000,271000,707664,
-1036,3536,13620,-624,1764,8960,8000,1000,271000,707666,
-1168,3488,13676,-726,1715,9039,8000,1000,272000,707668,
-1184,3324,13556,-948,1972,9402,8000,2000,273000,707681,
-1188,3408,13612,-1002,1936,9417,8000,2000,273000,707683,
-1320,3276,13712,-988,2051,9396,8000,2000,273000,707685,
-1428,3144,13864,-1192,1615,9667,8000,2000,274000,707698,
-1300,3140,13760,-1195,1572,9705,8000,2000,274000,707700,
-1300,3184,13788,-1271,1459,9811,8000,2000,274000,707703,
-464,3168,13956,-1338,1021,10211,8000,2000,275000,707715,
-420,3040,13908,-1402,973,10250,8000,2000,275000,707717,
-128,3024,13948,-1363,1009,10225,8000,2000,276000,707720,
-40,2864,14272,-1384,955,10280,8000,1000,277000,707732,
104,2804,14184,-1380,973,10261,8000,1000,277000,707734,
160,2736,14332,-1335,998,10303,8000,1000,277000,707737,
500,2596,14224,-1334,1121,10441,8000,1000,278000,707749,
544,2500,14248,-1263,1266,10437,8000,1000,278000,707752,
776,2504,14152,-1318,1242,10439,8000,1000,278000,707754,
892,2220,14132,-1271,1456,10487,8000,1000,279000,707766,
836,2204,14192,-1261,1496,10481,8000,1000,279000,707769,
948,2104,14112,-1311,1472,10518,8000,1000,280000,707771,
664,2124,14116,-1276,1306,10437,8000,1000,281000,707783,
764,1992,14100,-1297,1210,10428,8000,1000,281000,707785,
680,2016,14168,-1324,1123,10446,8000,1000,281000,707788,
716,1864,13896,-1278,334,10282,7000,1000,282000,707800,
844,1856,13964,-1198,172,10241,7000,1000,282000,707802,
884,1812,13852,-1231,-67,10229,7000,1000,282000,707805,
1124,1800,13612,-1196,-1204,10077,7000,1000,283000,707817,
1188,1876,13284,-1135,-1333,10037,7000,1000,283000,707820,
1336,1840,13244,-1165,-1554,10054,7000,1000,284000,707822,
1740,1828,13220,-1099,-2054,9708,7000,0,285000,707835,
1896,1844,13144,-1114,-2132,9703,7000,0,285000,707837,
1968,1932,13208,-1122,-2134,9616,7000,0,285000,707839,
2024,1816,13192,-1131,-2197,9613,7000,0,285000,707842,
2440,1656,13056,-1341,-2059,9258,7000,0,286000,707854,
2488,1696,13096,-1377,-2071,9209,7000,0,286000,707856,
2516,1580,13112,-1453,-2052,9112,7000,0,286000,707859,
2904,1636,13604,-1870,-1549,9022,7000,0,287000,707871,
2936,1648,13444,-2022,-1545,8966,7000,0,287000,707874,
2892,1732,13508,-2069,-1473,8927,7000,0,287000,707876,
2928,1588,13908,-2514,-1215,8750,6000,0,288000,707888,
2844,1556,13936,-2613,-1146,8638,6000,0,288000,707891,
2844,1468,13860,-2716,-1194,8589,6000,0,288000,707893,
2720,1468,14056,-2726,-1114,8492,6000,0,289000,707895,
2580,1284,14200,-2919,-1219,8074,6000,-1000,289000,707908,
2568,1236,14076,-2872,-1276,7933,6000,-1000,289000,707910,
2484,1236,14204,-2923,-1444,7915,6000,-1000,290000,707913,
2412,1012,14072,-3013,-1935,7795,6000,-1000,290000,707925,
2592,1124,14052,-3045,-1903,7765,5000,-1000,290000,707927,
2680,1104,13976,-3072,-1883,7713,5000,-1000,291000,707930,
3524,1124,14352,-3320,-1544,7235,5000,-1000,291000,707942,
3592,1116,14288,-3412,-1431,7183,5000,-1000,291000,707945,
3792,992,14328,-3418,-1258,7094,5000,-2000,292000,707947,
4068,1028,14796,-3812,-445,6815,5000,-2000,292000,707959,
4200,1052,14812,-3875,-309,6748,4000,-2000,292000,707962,
4184,1084,14980,-3967,-72,6669,4000,-2000,292000,707964,
4404,1120,15008,-4329,981,6291,4000,-2000,293000,707977,
4408,1240,15160,-4436,1111,6223,4000,-2000,293000,707979,
4332,1128,15156,-4432,1324,6119,4000,-2000,293000,707981,
4360,1100,15344,-4754,1715,5767,3000,-2000,294000,707994,
4348,1172,15352,-4710,1761,5683,3000,-2000,294000,707996,
4200,1048,15440,-4826,1739,5627,3000,-2000,294000,707998,
3832,1184,15504,-4749,1688,5117,3000,-2000,295000,708011,
3852,1028,15240,-4761,1648,4985,3000,-2000,295000,708013,
3824,1088,15252,-4674,1651,4836,2000,-2000,295000,708016,
4108,892,15052,-4593,1155,3861,2000,-2000,295000,708028,
4028,912,15160,-4498,1137,3715,2000,-2000,295000,708030,
4088,792,15132,-4539,1026,3554,2000,-2000,295000,708032,
4108,820,14984,-4471,931,2917,1000,-2000,295000,708045,
4240,856,14932,-4511,942,2779,1000,-2000,296000,708047,
4240,720,15008,-4535,922,2654,1000,-2000,296000,708050,
4552,936,15168,-4830,933,2050,1000,-2000,296000,708062,
4628,792,15216,-4899,892,2021,1000,-2000,296000,708064,
4860,704,15440,-4945,991,1891,1000,-2000,296000,708067,
4872,776,16016,-5324,781,1212,0,-2000,296000,708079,
4848,776,15920,-5440,773,1034,0,-2000,296000,708082,
4724,740,15948,-5436,736,872,0,-2000,296000,708084,
4768,804,16048,-5552,642,733,0,-2000,296000,708086,
5464,216,15920,-5679,538,131,0,-2000,296000,708099,
5456,204,15824,-5745,561,-55,0,-2000,296000,708101,
5544,124,15788,-5697,611,-203,0,-2000,296000,708104,
5840,24,15856,-5652,1034,-1018,0,-2000,296000,708116,
5892,84,15848,-5549,1204,-1150,-1000,-2000,296000,708118,
5860,144,15992,-5531,1243,-1319,-1000,-2000,296000,708121,
5844,256,16228,-5390,1618,-2350,-1000,-2000,296000,708133,
5920,352,16076,-5440,1620,-2537,-1000,-2000,296000,708135,
5868,444,16240,-5394,1740,-2706,-1000,-2000,296000,708138,
6072,628,16428,-5671,2063,-3461,-2000,-2000,295000,708150,
6072,568,16708,-5742,2117,-3590,-2000,-2000,295000,708153,
5996,444,16644,-5877,2075,-3717,-2000,-2000,295000,708155,
5824,396,17204,-6238,2112,-4213,-3000,-2000,295000,708168,
5792,408,17156,-6356,2062,-4401,-3000,-2000,295000,708170,
5760,432,17280,-6373,2013,-4449,-3000,-2000,295000,708172,
5856,236,17768,-6782,1602,-5028,-3000,-1000,294000,708185,
5864,232,17792,-6756,1636,-5134,-3000,-1000,294000,708187,
5856,200,17816,-6817,1668,-5337,-4000,-1000,294000,708189,
5264,92,18380,-6892,1791,-6568,-4000,-1000,293000,708202,
5144,32,18392,-6923,1714,-6786,-4000,-1000,293000,708204,
4996,-28,18364,-6865,1738,-6918,-4000,-1000,293000,708207,
4824,-68,18692,-6789,1519,-7757,-5000,-1000,292000,708219,
4816,-120,18764,-6672,1493,-7872,-5000,-1000,292000,708221,
4860,-192,18548,-6655,1427,-7968,-5000,-1000,292000,708224,
4524,-364,18568,-5985,890,-8503,-6000,-2000,291000,708236,
4496,-340,18428,-5816,809,-8600,-6000,-2000,291000,708239,
4408,-488,18296,-5689,671,-8692,-6000,-2000,291000,708241,
3908,-304,18236,-4787,-330,-8833,-6000,-2000,290000,708254,
3860,-216,18244,-4691,-576,-8874,-6000,-2000,290000,708256,
3980,-44,18124,-4503,-701,-8901,-6000,-2000,290000,708258,
4344,256,18388,-3735,-1951,-9331,-7000,-2000,289000,708271,
4676,336,18196,-3583,-2158,-9383,-7000,-2000,289000,708273,
4680,388,18284,-3478,-2351,-9438,-7000,-2000,288000,708275,
5456,584,18448,-2834,-3350,-10256,-7000,-3000,287000,708288,
5588,480,18604,-2710,-3362,-10425,-7000,-3000,287000,708290,
5600,476,18632,-2664,-3528,-10670,-7000,-3000,287000,708292,
5920,128,19168,-2266,-3382,-11763,-7000,-4000,286000,708305,
5868,136,19184,-2270,-3421,-11963,-7000,-4000,286000,708307,
5848,164,19232,-2161,-3307,-12098,-7000,-4000,286000,708309,
5604,-80,19024,-1903,-2888,-12873,-7000,-4000,284000,708322,
5428,-112,19236,-1787,-2644,-12921,-7000,-4000,284000,708324,
5476,-116,18972,-1755,-2528,-12991,-7000,-5000,284000,708326,
4724,-260,19156,-1387,-1623,-13392,-7000,-5000,283000,708339,
4556,-336,19080,-1393,-1506,-13529,-7000,-5000,283000,708341,
4476,-332,18932,-1236,-1273,-13558,-7000,-5000,282000,708344,
3648,-528,18556,-805,-634,-13462,-7000,-5000,281000,708356,
3544,-384,18276,-675,-484,-13384,-7000,-5000,281000,708359,
3464,-412,18220,-625,-454,-13337,-7000,-5000,281000,708361,
3416,-264,17616,-123,92,-13212,-7000,-6000,279000,708374,
3396,-84,17540,-50,167,-13223,-7000,-6000,279000,708376,
3516,68,17316,17,351,-13213,-7000,-6000,279000,708378,
3320,132,17296,347,767,-13418,-7000,-6000,277000,708391,
3040,216,17248,381,1001,-13459,-7000,-6000,277000,708393,
2956,192,17232,433,1122,-13520,-7000,-6000,277000,708395,
2436,184,17092,499,1952,-13667,-6000,-6000,276000,708408,
2332,184,17076,554,2145,-13648,-6000,-6000,275000,708410,
2368,92,17200,482,2231,-13652,-6000,-6000,275000,708413,
1832,0,17184,468,3004,-13673,-6000,-6000,274000,708425,
1628,-20,17024,449,3140,-13658,-6000,-6000,274000,708427,
1520,-156,17128,478,3263,-13677,-6000,-6000,273000,708430,
580,-404,16620,545,3496,-13431,-6000,-5000,272000,708442,
364,-440,16540,586,3395,-13357,-6000,-5000,272000,708445,
360,-464,16316,593,3414,-13178,-6000,-5000,272000,708447,
84,-328,15876,859,2671,-12606,-5000,-5000,270000,708459,
248,-332,15580,892,2532,-12492,-5000,-5000,270000,708462,
332,-240,15724,977,2266,-12453,-5000,-5000,270000,708464,
608,-160,15276,1430,997,-12101,-5000,-5000,269000,708477,
548,-180,15168,1561,713,-12099,-5000,-5000,268000,708479,
640,-64,15204,1606,514,-12061,-5000,-5000,268000,708481,
516,192,15348,1704,-985,-12188,-5000,-5000,267000,708494,
588,152,15156,1740,-1172,-12186,-5000,-5000,267000,708496,
528,232,15436,1647,-1546,-12314,-4000,-5000,267000,708498,
192,-132,15428,1443,-2983,-12551,-4000,-6000,265000,708511,
208,-368,15368,1419,-3409,-12595,-4000,-6000,265000,708513,
192,-356,15404,1416,-3643,-12573,-4000,-6000,265000,708516,
112,-656,14852,1117,-5513,-12516,-4000,-6000,264000,708528,
272,-604,14936,1114,-5719,-12436,-4000,-7000,264000,708531,
320,-572,14916,984,-6038,-12415,-4000,-7000,263000,708533,
708,-480,14480,784,-7122,-12230,-3000,-7000,262000,708546,
928,-516,14608,744,-7372,-12264,-3000,-8000,262000,708548,
884,-524,14612,718,-7463,-12212,-3000,-8000,262000,708550,
1508,-556,14248,768,-8152,-12081,-3000,-8000,261000,708563,
1660,-452,14204,765,-8212,-12057,-3000,-9000,261000,708565,
1844,-556,14036,841,-8288,-12060,-3000,-9000,260000,708567,
2648,-468,13992,873,-7617,-11854,-3000,-10000,259000,708580,
2780,-392,13868,866,-7341,-11822,-3000,-10000,259000,708582,
2968,-300,13940,759,-7031,-11839,-3000,-10000,259000,708585,
3844,-44,14088,523,-4897,-12067,-2000,-10000,258000,708597,
3912,24,14192,352,-4430,-12175,-2000,-11000,257000,708600,
3900,20,14140,329,-3956,-12287,-2000,-11000,257000,708602,
3856,224,14356,-399,-1498,-12817,-2000,-11000,256000,708614,
3832,68,14508,-493,-1028,-12857,-2000,-11000,256000,708617,
3656,172,14492,-634,-662,-12942,-2000,-11000,255000,708619,
2904,-188,14560,-1283,1464,-13048,-2000,-11000,254000,708632,
2668,-108,14740,-1363,1782,-13104,-2000,-11000,254000,708634,
2364,-152,14768,-1449,1959,-13170,-2000,-11000,254000,708636,
1760,-20,14116,-1963,2897,-12736,-2000,-11000,252000,708649,
1800,20,14328,-2056,2948,-12678,-2000,-10000,252000,708651,
1792,52,14196,-2078,3106,-12534,-2000,-10000,252000,708653,
2000,68,13792,-2290,3857,-12257,-2000,-10000,251000,708666,
2068,40,13680,-2263,4070,-12136,-2000,-10000,251000,708668,
1852,60,13888,-2321,4183,-12178,-2000,-10000,250000,708670,
1280,-36,14184,-2377,5156,-11865,-2000,-9000,249000,708683,
1036,-52,14184,-2498,5240,-11862,-2000,-9000,249000,708685,
860,-192,14212,-2507,5394,-11830,-2000,-9000,249000,708687,
-244,-48,14380,-2825,5510,-11547,-2000,-9000,248000,708700,
-308,-52,14372,-2930,5386,-11427,-2000,-9000,247000,708702,
-420,-100,14436,-2954,5305,-11313,-2000,-9000,247000,708705,
-276,136,14584,-3400,4597,-10614,-2000,-8000,246000,708717,
-216,56,14684,-3425,4425,-10516,-2000,-8000,246000,708719,
-248,272,14772,-3502,4325,-10439,-2000,-8000,246000,708722,
-696,240,14448,-3846,3730,-10238,-2000,-8000,245000,708734,
-892,160,14348,-3941,3607,-10135,-2000,-7000,245000,708737,
-928,132,14536,-4025,3466,-10101,-2000,-7000,244000,708739,
-1056,192,14324,-4378,2823,-9570,-3000,-7000,243000,708752,
-980,120,14188,-4457,2718,-9546,-3000,-7000,243000,708754,
-944,116,14168,-4474,2676,-9407,-3000,-7000,243000,708756,
-968,0,14268,-4754,2027,-9045,-3000,-7000,242000,708769,
-1016,104,14252,-4753,2016,-8956,-3000,-7000,242000,708771,
-1200,60,14012,-4811,1819,-8877,-3000,-7000,242000,708773,
-1264,80,14140,-5057,1445,-8331,-3000,-7000,241000,708786,
-1160,28,14196,-5002,1507,-8248,-4000,-7000,241000,708788,
-1116,-12,14152,-5115,1431,-8136,-4000,-6000,241000,708791,
-960,-64,14168,-5417,1591,-7652,-4000,-6000,240000,708803,
-1052,-48,14252,-5526,1647,-7547,-4000,-6000,240000,708805,
-1036,-140,14320,-5593,1705,-7515,-4000,-6000,240000,708808,
-896,-400,14400,-6116,2538,-7221,-5000,-6000,239000,708820,
-972,-400,14480,-6143,2804,-7128,-5000,-6000,239000,708823,
-1104,-480,14512,-6276,2965,-7076,-5000,-6000,239000,708825,
-1524,-888,14328,-6695,3823,-6689,-5000,-6000,238000,708838,
-1724,-872,14292,-6688,3931,-6530,-5000,-5000,238000,708840,
-1824,-876,14216,-6784,4000,-6441,-6000,-5000,238000,708842,
-2396,-1084,14324,-7162,4105,-5802,-6000,-5000,237000,708855,
-2588,-1208,14436,-7091,3966,-5709,-6000,-5000,237000,708857,
-2784,-1252,14400,-7075,3808,-5628,-6000,-5000,237000,708859,
-3440,-1336,14472,-7216,2584,-5015,-7000,-5000,236000,708872,
-3432,-1412,14632,-7274,2279,-4862,-7000,-4000,236000,708874,
-3548,-1512,14680,-7275,1921,-4721,-7000,-4000,236000,708876,
-3336,-1612,14536,-7347,406,-3964,-8000,-4000,236000,708889,
-3204,-1696,14700,-7380,157,-3866,-8000,-4000,236000,708891,
-2984,-1540,14620,-7416,5,-3711,-8000,-4000,236000,708894,
-2472,-1808,15060,-7682,-419,-3190,-9000,-4000,235000,708906,
-2284,-1812,15044,-7733,-414,-3125,-9000,-4000,235000,708908,
-1952,-2032,15244,-7994,-41,-2519,-10000,-4000,235000,708921,
-1940,-2176,15268,-8100,4,-2393,-10000,-4000,235000,708923,
-2028,-2256,15216,-8068,144,-2276,-10000,-4000,235000,708925,
-2316,-2580,15680,-8254,649,-2023,-11000,-4000,235000,708938,
-2428,-2716,15456,-8206,826,-1928,-11000,-4000,235000,708940,
-2548,-2848,15388,-8272,875,-1828,-11000,-4000,235000,708943,
-3092,-3232,15820,-8104,712,-1172,-12000,-4000,235000,708955,
-3052,-3336,15916,-8090,582,-1021,-12000,-4000,235000,708958,
-3132,-3352,16036,-8008,496,-869,-12000,-4000,235000,708960,
-3048,-3588,16588,-7768,-136,-191,-13000,-4000,235000,708973,
-3108,-3648,16576,-7653,-243,-44,-13000,-4000,235000,708975,
-3028,-3656,16604,-7585,-275,121,-13000,-4000,235000,708977,
-2724,-3628,16736,-7346,-454,868,-14000,-4000,235000,708990,
-2596,-3512,16464,-7346,-366,959,-14000,-4000,235000,708992,
-2468,-3448,16484,-7303,-338,1040,-14000,-4000,235000,708995,
-1608,-3320,16768,-7251,87,1496,-15000,-4000,235000,709007,
-1348,-3380,16704,-7196,281,1571,-15000,-4000,235000,709010,
-1368,-3372,16728,-7192,374,1627,-15000,-4000,235000,709012,
-1344,-3620,16900,-6950,1041,1869,-16000,-3000,235000,709025,
-1260,-3636,16896,-6887,1172,1945,-16000,-3000,235000,709027,
-1464,-3632,16916,-6894,1219,1997,-16000,-3000,235000,709029,
-1396,-3640,16868,-6684,1618,2293,-17000,-3000,235000,709042,
-1464,-3704,17008,-6620,1613,2346,-17000,-3000,235000,709044,
-956,-3840,17076,-6474,1807,2497,-17000,-3000,236000,709057,
-948,-3836,16908,-6410,1837,2571,-17000,-3000,236000,709059,
-752,-3852,16944,-6402,1830,2568,-18000,-3000,236000,709061,
-844,-3868,16752,-6276,2044,2892,-18000,-2000,236000,709074,
-832,-3920,16688,-6280,2125,2911,-18000,-2000,236000,709076,
-636,-3988,16796,-6254,2179,2993,-18000,-2000,236000,709079,
-592,-3868,16740,-6138,1982,3233,-19000,-2000,236000,709091,
-652,-3892,16764,-6114,1914,3354,-19000,-2000,236000,709093,
-648,-3712,16856,-6026,1919,3396,-19000,-2000,236000,709096,
-404,-3916,16852,-5901,1805,3574,-20000,-1000,236000,709108,
-300,-4024,16932,-5855,1806,3561,-20000,-1000,237000,709111,
-336,-3976,16812,-5906,1760,3606,-20000,-1000,237000,709113,
-664,-4052,16940,-5847,1444,3848,-20000,-1000,237000,709125,
-668,-4124,16984,-5818,1382,3870,-20000,-1000,237000,709128,
-592,-4044,16916,-5809,1274,3964,-21000,-1000,237000,709130,
-180,-4216,17148,-5881,822,4127,-21000,-1000,237000,709143,
-188,-4264,17032,-5841,799,4179,-21000,-1000,237000,709145,
-16,-4412,17176,-5883,696,4252,-21000,-1000,237000,709147,
296,-4568,17240,-5946,631,4241,-22000,0,238000,709160,
336,-4648,17184,-5923,703,4200,-22000,0,238000,709162,
412,-4572,17216,-5934,688,4153,-22000,0,238000,709164,
152,-5108,17352,-5838,405,4217,-23000,0,238000,709177,
200,-5084,17428,-5804,425,4248,-23000,0,238000,709179,
144,-5208,17384,-5779,330,4329,-23000,0,238000,709182,
120,-5272,17532,-5681,318,4327,-23000,0,238000,709184,
100,-5460,17688,-5368,-121,4462,-23000,0,239000,709196,
84,-5684,17460,-5238,-82,4478,-23000,0,239000,709199,
64,-5632,17676,-5243,-224,4515,-23000,0,239000,709201,
120,-5596,17780,-4813,-454,4658,-24000,0,239000,709214,
316,-5660,17836,-4789,-583,4711,-24000,0,240000,709216,
372,-5684,17784,-4655,-526,4710,-24000,0,240000,709218,
1040,-5852,17800,-4382,-451,4633,-24000,0,240000,709231,
1120,-5776,17928,-4218,-258,4622,-24000,0,240000,709233,
1056,-5812,17780,-4225,-192,4549,-25000,0,240000,709235,
1316,-5932,17800,-3680,471,4451,-25000,0,241000,709248,
1348,-5996,17676,-3658,467,4421,-25000,0,241000,709250,
1164,-5956,17688,-3575,657,4388,-25000,0,241000,709252,
1280,-5900,17824,-3221,808,4322,-25000,0,241000,709265,
1320,-5888,17872,-3155,867,4279,-25000,0,241000,709267,
1172,-5908,17772,-3049,837,4247,-25000,0,241000,709270,
952,-5992,17508,-2701,853,3938,-26000,0,241000,709282,
1052,-6056,17504,-2609,908,3878,-26000,0,242000,709284,
908,-6020,17480,-2556,846,3888,-26000,0,242000,709287,
728,-6044,17220,-2222,577,3687,-26000,1000,242000,709299,
572,-6052,17084,-2178,598,3700,-26000,1000,242000,709302,
548,-6120,17136,-2163,551,3726,-26000,1000,242000,709304,
728,-6260,16996,-2028,489,3780,-26000,1000,242000,709317,
660,-6244,16860,-2008,449,3789,-26000,1000,242000,709319,
768,-6240,16656,-1950,418,3745,-26000,1000,242000,709321,
680,-6436,16716,-1659,320,3650,-26000,1000,243000,709334,
704,-6384,16560,-1680,338,3642,-26000,1000,243000,709336,
620,-6460,16624,-1586,361,3657,-26000,1000,243000,709338,
576,-6376,16588,-1385,414,3597,-26000,1000,243000,709351,
692,-6408,16632,-1321,392,3620,-26000,1000,243000,709353,
820,-6340,16476,-1272,411,3584,-26000,1000,243000,709355,
776,-6280,16076,-1108,420,3432,-26000,2000,243000,709368,
772,-6340,16104,-1060,491,3373,-26000,2000,244000,709370,
632,-6296,16272,-1033,467,3357,-26000,2000,244000,709373,
672,-6168,16084,-980,516,3240,-26000,2000,244000,709385,
584,-6160,16256,-1030,453,3216,-26000,2000,244000,709388,
680,-6080,16000,-981,466,3186,-26000,2000,244000,709390,
1100,-6108,15920,-924,321,3036,-26000,2000,244000,709402,
1164,-6100,16032,-903,218,2969,-26000,2000,244000,709405,
1104,-6116,15864,-862,264,2919,-27000,2000,244000,709407,
1392,-6104,15852,-741,403,2592,-27000,2000,244000,709420,
1396,-6060,15648,-641,484,2548,-27000,2000,245000,709422,
1248,-6148,15632,-664,510,2416,-27000,2000,245000,709424,
1212,-6004,15460,-440,824,1916,-27000,2000,245000,709437,
1232,-5928,15600,-469,844,1863,-27000,2000,245000,709439,
1216,-6004,15512,-435,867,1797,-27000,2000,245000,709441,
1112,-5864,15420,-442,1246,1459,-27000,2000,245000,709454,
944,-5848,15292,-421,1291,1405,-27000,2000,245000,709456,
980,-5796,15180,-446,1346,1334,-27000,2000,245000,709459,
544,-5760,15076,-484,1401,1092,-27000,3000,245000,709471,
380,-5840,15060,-503,1329,1048,-27000,3000,245000,709473,
380,-5856,15104,-502,1391,986,-27000,3000,245000,709476,
80,-5756,14840,-611,1003,778,-27000,3000,245000,709488,
-72,-5812,14916,-575,1056,802,-27000,3000,245000,709491,
-128,-5848,14852,-639,941,740,-27000,3000,245000,709493,
-212,-5700,14732,-689,658,746,-27000,3000,245000,709505,
-160,-5760,14776,-746,494,699,-27000,3000,245000,709508,
-92,-5800,14880,-738,504,665,-27000,3000,245000,709510,
-236,-5816,14872,-844,347,787,-27000,3000,245000,709523,
-108,-5832,14696,-823,360,852,-27000,3000,245000,709525,
-52,-5804,14748,-881,239,878,-27000,3000,245000,709527,
-116,-5784,14980,-871,434,774,-27000,3000,245000,709540,
-176,-5760,15000,-934,477,787,-27000,3000,245000,709542,
-108,-5784,14772,-884,489,711,-27000,3000,245000,709544,
-304,-5908,15248,-965,704,560,-27000,3000,245000,709557,
-332,-5888,15084,-966,685,553,-27000,3000,245000,709559,
-296,-5908,15004,-975,740,489,-27000,3000,245000,709562,
-724,-5792,15300,-885,402,208,-27000,3000,245000,709574,
-792,-5752,15136,-876,365,174,-27000,3000,245000,709576,
-836,-5840,15088,-870,257,133,-27000,3000,245000,709579,
-672,-5812,15220,-866,46,348,-27000,3000,245000,709591,
-600,-5868,15072,-898,-7,318,-27000,3000,245000,709594,
-444,-5776,15160,-853,32,303,-27000,3000,245000,709596,
-508,-5668,15128,-825,182,148,-27000,3000,245000,709608,
-596,-5636,14936,-828,299,226,-27000,3000,245000,709611,
-540,-5708,15196,-821,365,215,-27000,3000,245000,709613,
-492,-5668,14960,-784,708,255,-27000,3000,245000,709626,
-588,-5620,14864,-825,759,274,-27000,3000,245000,709628,
-620,-5644,15104,-784,835,266,-27000,3000,245000,709630,
-560,-5604,15136,-809,980,283,-27000,3000,245000,709643,
-616,-5568,15204,-823,1078,231,-27000,3000,245000,709645,
-664,-5612,15068,-849,1010,224,-27000,3000,245000,709648,
-880,-5592,15248,-758,808,35,-27000,3000,245000,709660,
-812,-5508,15388,-795,667,0,-27000,3000,245000,709662,
-1040,-5588,15452,-720,620,-4,-27000,3000,245000,709665,
-976,-5576,15180,-702,1,-109,-27000,3000,245000,709677,
-956,-5568,15380,-640,-29,-99,-27000,3000,245000,709680,
-884,-5476,15228,-670,-146,-126,-27000,3000,245000,709682,
-580,-5580,15264,-589,-112,-221,-27000,3000,245000,709694,
-524,-5580,15312,-673,-160,-235,-27000,3000,245000,709697,
-592,-5544,15180,-583,-62,-270,-27000,3000,245000,709699,
-544,-5588,15180,-636,332,-376,-27000,3000,245000,709712,
-444,-5668,15140,-546,477,-418,-27000,3000,245000,709714,
-524,-5604,15260,-610,498,-396,-27000,3000,245000,709716,
-776,-5832,15164,-482,893,-399,-27000,3000,245000,709729,
-836,-5836,15064,-512,890,-375,-27000,3000,245000,709731,
-812,-5832,15084,-461,949,-347,-27000,3000,245000,709733,
-1028,-5912,15396,-458,1098,-381,-27000,4000,245000,709746,
-1168,-5928,15116,-413,1112,-368,-27000,4000,245000,709748,
-1220,-5932,15080,-468,1053,-379,-27000,4000,245000,709751,
-1336,-5988,15108,-396,814,-273,-27000,4000,245000,709763,
