Ax,Ay,Az,Gx,Gy,Gz,Roll,Pitch,Yaw,Timestamp,Target
-1948,5512,14668,-344,377,-223,13000,7000,212000,283384,
-1988,5540,14664,-366,452,-259,13000,7000,212000,283396,
-1948,5472,14604,-405,398,-253,13000,7000,212000,283399,
-1976,5376,14788,-368,420,-253,13000,7000,212000,283401,
-2140,5456,14716,-414,141,-245,13000,7000,212000,283413,
-2008,5476,14660,-361,167,-218,13000,7000,212000,283416,
-2056,5516,14812,-394,110,-205,13000,7000,212000,283418,
-1892,5340,14852,-438,49,-222,13000,7000,212000,283430,
-1780,5488,14792,-393,71,-217,13000,7000,212000,283433,
-1788,5440,14732,-412,99,-228,13000,7000,212000,283435,
-1980,5392,14792,-334,195,-201,13000,7000,212000,283448,
-1900,5344,14840,-340,244,-215,13000,7000,212000,283450,
-1876,5380,14792,-327,182,-192,13000,7000,212000,283452,
-1984,5476,14744,-351,185,-166,13000,7000,212000,283465,
-1924,5508,14876,-297,181,-162,13000,7000,212000,283467,
-1884,5424,14652,-338,193,-126,13000,7000,212000,283469,
-1876,5472,14800,-306,177,-171,13000,7000,212000,283482,
-1980,5484,14848,-367,107,-158,13000,7000,212000,283484,
-1992,5492,14836,-316,133,-138,13000,7000,212000,283486,
-1880,5488,14616,-353,33,-108,13000,7000,212000,283499,
-1856,5488,14656,-315,73,-96,13000,7000,212000,283501,
-1736,5428,14764,-346,2,-135,13000,7000,212000,283503,
-1752,5536,14608,-316,21,-93,13000,7000,212000,283516,
-1796,5612,14736,-384,-22,-139,13000,7000,212000,283518,
-1864,5528,14752,-326,7,-126,13000,7000,212000,283520,
-1812,5408,14772,-442,-36,-121,13000,7000,212000,283533,
-1844,5404,14808,-381,-48,-120,13000,7000,212000,283535,
-1820,5428,14748,-412,-27,-99,13000,7000,212000,283537,
-1736,5548,14764,-400,19,-85,13000,7000,212000,283550,
-1612,5396,14752,-399,59,-111,13000,7000,212000,283552,
-1724,5472,14696,-417,35,-103,13000,7000,212000,283554,
-1604,5448,14580,-392,123,-108,13000,7000,212000,283567,
-1732,5508,14544,-470,133,-117,13000,7000,212000,283569,
-1776,5488,14772,-462,123,-134,13000,7000,212000,283572,
-1900,5460,14656,-402,128,-118,13000,7000,212000,283584,
-1752,5476,14604,-397,59,-121,13000,7000,212000,283586,
-1864,5508,14796,-396,70,-115,13000,7000,212000,283589,
-1752,5480,14724,-459,-149,-109,13000,7000,212000,283601,
-1656,5436,14592,-383,-109,-90,13000,7000,212000,283603,
-1708,5476,14720,-450,-170,-91,13000,7000,212000,283606,
-1644,5528,14964,-422,-139,-114,13000,7000,212000,283618,
-1592,5480,14988,-425,-128,-160,13000,7000,212000,283620,
-1644,5488,14912,-453,-87,-169,13000,7000,212000,283623,
-1576,5304,14932,-349,65,-140,13000,7000,212000,283635,
-1708,5336,14748,-379,99,-126,13000,7000,212000,283637,
-1588,5352,14864,-358,130,-152,13000,7000,212000,283640,
-1616,5540,14604,-362,317,-192,13000,7000,212000,283652,
-1596,5556,14664,-336,253,-194,13000,7000,212000,283654,
-1516,5484,14436,-348,343,-226,13000,7000,212000,283657,
-1752,5508,14568,-371,187,-260,13000,7000,212000,283669,
-1836,5368,14684,-374,215,-297,13000,7000,212000,283671,
-1980,5412,14684,-432,148,-270,13000,7000,212000,283674,
-1916,5396,14788,-374,118,-273,13000,7000,212000,283686,
-1724,5360,14768,-405,72,-317,13000,7000,212000,283689,
-1724,5340,14712,-417,64,-290,13000,7000,212000,283691,
-1632,5432,14744,-405,225,-289,13000,7000,212000,283703,
-1732,5468,14676,-444,167,-300,13000,7000,212000,283706,
-1724,5520,14876,-422,222,-291,13000,7000,212000,283708,
-1932,5416,14812,-506,153,-291,13000,7000,212000,283720,
-2004,5408,14900,-463,234,-269,13000,7000,212000,283723,
-1800,5368,14792,-499,159,-223,13000,7000,212000,283725,
-1816,5452,14888,-444,241,-193,13000,7000,212000,283737,
-1824,5472,14700,-491,164,-213,13000,7000,212000,283740,
-1796,5460,14812,-460,246,-182,13000,7000,212000,283742,
-1720,5496,14656,-522,238,-153,13000,7000,212000,283755,
-1752,5412,14576,-517,317,-128,13000,7000,212000,283757,
-1740,5452,14704,-537,250,-145,13000,7000,212000,283759,
-1656,5524,14508,-603,418,-135,13000,7000,212000,283772,
-1700,5500,14488,-605,405,-121,13000,7000,212000,283774,
-1676,5576,14452,-644,446,-107,13000,7000,212000,283776,
-1644,5524,14496,-751,610,-143,13000,7000,212000,283789,
-1604,5436,14428,-800,613,-126,13000,7000,212000,283791,
-1572,5488,14408,-770,642,-158,13000,7000,212000,283793,
-1892,5352,14420,-840,612,-165,13000,7000,212000,283806,
-1892,5432,14532,-769,617,-179,13000,7000,212000,283808,
-2072,5420,14492,-799,565,-214,13000,7000,212000,283810,
-2444,5388,14588,-876,-36,-134,13000,7000,212000,283823,
-2400,5228,14720,-859,-103,-135,13000,7000,212000,283825,
-2328,5300,14792,-854,-200,-115,13000,7000,212000,283827,
-1864,5292,14832,-804,-373,-137,13000,7000,212000,283840,
-1900,5272,15020,-754,-346,-110,13000,7000,212000,283842,
-1848,5324,14980,-764,-305,-163,13000,7000,212000,283844,
-1752,5260,15020,-580,38,-115,13000,7000,212000,283857,
-1676,5188,15164,-618,140,-110,13000,7000,212000,283859,
-1708,5344,15080,-542,159,-92,13000,7000,212000,283861,
-1620,5356,15036,-487,386,-92,13000,7000,212000,283874,
-1692,5432,15000,-469,421,-88,13000,7000,212000,283876,
-1732,5464,14868,-479,464,-82,13000,7000,212000,283878,
-1824,5484,14960,-398,496,-99,13000,7000,212000,283891,
-1752,5496,15020,-423,507,-128,13000,7000,212000,283893,
-1884,5504,14840,-408,406,-97,13000,7000,212000,283895,
-2048,5512,14868,-413,182,-148,13000,7000,212000,283908,
-2076,5324,14808,-370,138,-156,13000,7000,212000,283910,
-2056,5400,14912,-390,63,-166,13000,7000,212000,283912,
-1692,5484,14884,-334,-105,-191,13000,7000,212000,283925,
-1616,5588,14956,-366,-50,-192,13000,7000,212000,283927,
-1520,5640,14752,-381,-67,-194,13000,7000,212000,283929,
-1604,5420,15084,-334,198,-233,13000,7000,212000,283942,
-1616,5440,14880,-344,173,-245,13000,7000,212000,283944,
-1520,5360,15008,-301,248,-236,13000,7000,212000,283946,
-1656,5364,15004,-287,287,-227,13000,7000,212000,283959,
-1672,5472,14920,-292,296,-247,13000,7000,212000,283961,
-1812,5420,14908,-296,275,-231,13000,7000,212000,283963,
-1592,5332,14796,-296,389,-240,13000,7000,212000,283976,
-1584,5372,14828,-303,381,-267,13000,7000,212000,283978,
-1564,5368,14784,-283,441,-227,13000,7000,212000,283980,
-1832,5428,14656,-285,398,-230,13000,7000,212000,283993,
-1876,5380,14680,-247,433,-251,13000,7000,212000,283995,
-1904,5452,14696,-317,335,-263,13000,7000,212000,283998,
-1960,5368,14696,-329,207,-236,13000,7000,212000,284010,
-1936,5396,14780,-342,152,-244,13000,7000,212000,284012,
-1960,5396,14712,-303,158,-227,13000,7000,212000,284014,
-1752,5296,14656,-347,219,-216,13000,7000,212000,284027,
-1852,5352,14748,-365,275,-218,13000,7000,212000,284029,
-1900,5304,14732,-352,212,-227,13000,7000,212000,284031,
-2068,5256,14784,-407,203,-238,13000,8000,212000,284044,
-2176,5340,14748,-376,226,-228,13000,8000,212000,284046,
-2032,5304,14792,-415,207,-212,13000,8000,212000,284048,
-2000,5344,14744,-427,161,-162,13000,8000,212000,284061,
-1948,5300,14532,-378,183,-135,13000,8000,212000,284063,
-1876,5312,14704,-414,131,-146,13000,8000,212000,284065,
-2032,5392,14572,-412,304,-162,13000,8000,212000,284078,
-1936,5336,14696,-444,227,-174,13000,8000,212000,284080,
-1928,5328,14808,-419,300,-144,13000,8000,212000,284083,
-1960,5332,14660,-473,283,-158,13000,8000,212000,284095,
-1896,5540,14484,-455,326,-140,13000,8000,212000,284097,
-1868,5420,14612,-510,262,-155,13000,8000,212000,284100,
-1860,5512,14716,-541,243,-179,13000,8000,212000,284112,
-1844,5480,14528,-519,249,-189,13000,8000,212000,284114,
-1884,5612,14660,-578,241,-199,13000,8000,212000,284117,
-1852,5636,14648,-645,118,-159,13000,8000,212000,284129,
-1956,5620,14688,-609,163,-161,13000,8000,212000,284131,
-1836,5504,14664,-661,97,-190,13000,8000,212000,284134,
-1908,5564,14980,-610,65,-165,13000,8000,212000,284146,
-1924,5476,14912,-665,39,-161,13000,8000,212000,284148,
-1924,5500,14756,-627,35,-154,13000,8000,212000,284151,
-1832,5456,14844,-624,24,-134,13000,8000,212000,284163,
-1784,5484,14920,-569,47,-151,13000,8000,212000,284165,
-1700,5536,14732,-599,41,-167,13000,8000,212000,284168,
-1820,5432,14928,-540,91,-141,13000,8000,212000,284180,
-1764,5484,14668,-551,39,-138,13000,8000,212000,284182,
-1848,5436,14876,-493,115,-136,13000,8000,212000,284185,
-1928,5416,14868,-479,151,-148,13000,8000,212000,284197,
-1888,5476,14884,-505,104,-168,13000,8000,212000,284200,
-1824,5476,14768,-473,156,-153,13000,8000,212000,284202,
-1872,5356,14780,-449,201,-194,13000,8000,212000,284214,
-1764,5312,14960,-397,234,-192,13000,8000,212000,284217,
-1812,5436,14700,-417,279,-206,13000,8000,212000,284219,
-1816,5380,14804,-389,325,-217,13000,8000,212000,284231,
-1884,5396,14648,-377,256,-226,13000,8000,212000,284234,
-1832,5412,14696,-388,309,-236,13000,8000,212000,284236,
-2024,5332,14712,-401,249,-235,13000,8000,212000,284248,
-1980,5336,14544,-401,308,-231,13000,8000,212000,284251,
-1992,5240,14572,-387,271,-224,13000,8000,212000,284253,
-1988,5508,14560,-390,298,-206,13000,8000,212000,284265,
-2000,5316,14516,-371,250,-224,13000,8000,212000,284268,
-1920,5468,14572,-392,267,-226,13000,8000,212000,284270,
-2072,5400,14704,-462,100,-214,13000,8000,212000,284282,
-2160,5380,14544,-477,117,-189,13000,8000,212000,284285,
-2072,5416,14604,-474,68,-203,13000,8000,212000,284287,
-1892,5392,14700,-437,41,-207,13000,8000,212000,284299,
-1960,5380,14684,-458,9,-190,13000,8000,212000,284302,
-1924,5380,14636,-456,74,-186,13000,8000,212000,284304,
-1992,5396,14768,-487,-41,-194,13000,8000,212000,284316,
-1968,5384,14832,-436,25,-212,13000,8000,212000,284319,
-2020,5396,14832,-482,-60,-164,13000,8000,212000,284321,
-1892,5252,14976,-408,-48,-148,13000,8000,212000,284333,
-1940,5404,14844,-413,-78,-161,13000,8000,212000,284336,
-1916,5344,14788,-395,-11,-138,13000,8000,212000,284338,
-1848,5368,15012,-422,54,-172,13000,8000,212000,284350,
-1744,5324,14932,-372,161,-189,13000,8000,212000,284353,
-1836,5320,14920,-421,119,-195,13000,8000,212000,284355,
-1752,5404,14924,-365,188,-179,13000,8000,212000,284367,
-1848,5368,15040,-338,200,-201,13000,8000,212000,284370,
-1748,5320,15000,-355,256,-194,13000,8000,212000,284372,
-1720,5316,15008,-345,212,-230,13000,8000,212000,284385,
-1720,5332,14832,-331,288,-191,13000,8000,212000,284387,
-1684,5272,14836,-336,248,-212,13000,8000,212000,284389,
-1624,5324,14904,-316,375,-251,13000,8000,212000,284402,
-1776,5280,14708,-264,404,-257,13000,8000,212000,284404,
-1692,5300,14936,-310,433,-258,13000,8000,212000,284406,
-1628,5328,14784,-270,490,-261,13000,8000,212000,284419,
-1728,5352,14760,-323,418,-277,13000,8000,212000,284421,
-1772,5332,14876,-280,473,-271,13000,8000,212000,284423,
-1644,5356,14792,-345,462,-290,13000,8000,212000,284436,
-1696,5360,14636,-281,469,-289,13000,8000,212000,284438,
-1660,5440,14716,-349,438,-263,13000,8000,212000,284440,
-1724,5384,14592,-329,560,-280,13000,8000,212000,284453,
-1804,5332,14536,-386,473,-309,13000,8000,212000,284455,
-1756,5348,14648,-347,558,-302,13000,8000,212000,284457,
-1908,5404,14656,-408,526,-314,13000,8000,212000,284470,
-1968,5396,14568,-367,546,-309,13000,8000,212000,284472,
-2056,5312,14608,-423,518,-330,13000,8000,211000,284474,
-2248,5368,14596,-405,466,-303,13000,8000,211000,284487,
-2124,5360,14536,-484,443,-301,13000,8000,211000,284489,
-2000,5380,14812,-416,425,-276,13000,8000,211000,284491,
-2176,5392,14504,-427,424,-270,13000,8000,211000,284504,
-2188,5408,14756,-488,469,-266,13000,8000,211000,284506,
-2232,5352,14852,-483,388,-266,13000,8000,211000,284508,
-2224,5428,14696,-453,419,-216,13000,8000,211000,284521,
-2216,5400,14632,-428,469,-206,13000,8000,211000,284523,
-2136,5444,14712,-483,431,-178,13000,8000,211000,284525,
-2236,5648,14556,-488,397,-177,13000,8000,211000,284538,
-2252,5540,14572,-436,471,-175,13000,8000,211000,284540,
-2164,5568,14636,-514,405,-192,13000,8000,211000,284542,
-2116,5516,14744,-495,412,-125,13000,8000,211000,284555,
-2208,5500,14560,-514,341,-125,13000,8000,211000,284557,
-2176,5560,14576,-494,399,-105,13000,8000,211000,284560,
-2064,5572,14368,-514,195,-100,13000,8000,211000,284572,
-2176,5520,14664,-447,228,-120,13000,8000,211000,284574,
-2056,5676,14644,-538,138,-132,13000,8000,211000,284577,
-2028,5616,14540,-536,119,-148,13000,8000,211000,284589,
-2156,5532,14496,-594,66,-123,13000,8000,211000,284591,
-2084,5584,14624,-528,73,-114,13000,8000,211000,284593,
-2060,5584,14628,-498,71,-124,13000,8000,211000,284606,
-2096,5576,14548,-485,76,-139,13000,8000,211000,284608,
-1988,5556,14652,-524,38,-161,13000,8000,211000,284610,
-2116,5568,14828,-444,78,-149,13000,8000,211000,284623,
-1924,5640,14708,-514,82,-165,13000,8000,211000,284625,
-2032,5504,14672,-452,118,-157,13000,8000,211000,284627,
-1920,5504,14672,-470,180,-190,13000,8000,211000,284640,
-2136,5544,14628,-457,169,-246,13000,8000,211000,284642,
-1992,5564,14716,-410,149,-202,13000,8000,211000,284645,
-2212,5424,14732,-433,226,-254,13000,8000,211000,284657,
-2056,5532,14644,-427,173,-210,13000,8000,211000,284659,
-2136,5476,14656,-449,147,-220,13000,8000,211000,284662,
-2196,5524,14828,-462,129,-211,13000,8000,211000,284674,
-2184,5532,14900,-394,104,-205,13000,8000,211000,284676,
-2188,5548,14556,-406,148,-215,13000,8000,211000,284679,
-2164,5636,14716,-417,48,-177,13000,8000,211000,284691,
-2108,5608,14812,-451,81,-158,13000,8000,211000,284693,
-2052,5568,14752,-443,16,-121,13000,8000,211000,284696,
-2104,5704,14712,-412,58,-105,13000,8000,211000,284708,
-2064,5616,14704,-453,20,-96,13000,8000,211000,284711,
-2020,5744,14716,-430,53,-96,13000,8000,211000,284713,
-1928,5696,14704,-489,-18,-88,13000,8000,211000,284725,
-1968,5756,14804,-421,30,-77,13000,8000,211000,284728,
-1908,5776,14700,-493,-21,-114,13000,8000,211000,284730,
-1980,5796,14956,-461,14,-105,13000,8000,211000,284742,
-1916,5924,14808,-490,-29,-126,13000,8000,211000,284745,
-2004,5844,14936,-437,51,-119,13000,8000,211000,284747,
-2068,6156,15308,-337,220,-179,13000,8000,211000,284760,
-2128,6328,15268,-368,259,-175,13000,8000,211000,284762,
-1988,6388,15316,-273,305,-145,13000,8000,211000,284764,
-2320,7076,15816,-26,626,-275,13000,8000,211000,284777,
-2384,7232,15980,57,680,-281,13000,8000,211000,284779,
-2452,7388,15888,92,776,-318,13000,8000,211000,284781,
-2836,8156,16072,479,1205,-508,13000,9000,211000,284794,
-2884,8356,16036,537,1347,-465,13000,9000,211000,284796,
-3040,8552,16092,677,1473,-417,13000,9000,211000,284798,
-3996,9004,16576,1058,1835,-472,14000,9000,211000,284811,
-3864,9208,16312,1277,1819,-491,14000,9000,211000,284813,
-4040,9352,16240,1234,1808,-539,14000,9000,211000,284815,
-5352,10200,16288,1789,1281,-212,14000,9000,211000,284828,
-5384,10376,16428,1811,1082,-109,14000,9000,211000,284830,
-5484,10476,16452,1861,1057,-39,14000,9000,211000,284832,
-6000,11064,16388,1841,305,553,14000,9000,212000,284845,
-6096,11064,16320,1930,214,652,14000,9000,212000,284847,
-6208,11152,16396,1915,67,793,14000,9000,212000,284849,
-6472,11264,16248,2156,-356,1646,15000,9000,212000,284862,
-6352,11296,16004,2131,-442,1865,15000,9000,212000,284864,
-6252,11380,15800,2188,-394,2030,15000,9000,212000,284867,
-5364,11396,13808,1722,-449,3014,15000,9000,212000,284879,
-4876,11512,13160,1630,-288,3233,15000,9000,212000,284881,
-3748,11452,12848,1545,204,3482,15000,9000,212000,284884,
-1712,11084,12308,1333,5611,4576,16000,9000,213000,284896,
-2636,10812,11036,1323,6732,4711,16000,10000,213000,284899,
-3264,10564,10932,1391,7580,4998,16000,10000,213000,284901,
-5920,10200,9996,1218,10083,7059,16000,11000,214000,284913,
-6432,10104,9920,1035,9994,7349,16000,11000,214000,284916,
-6616,10128,9784,890,9782,7453,17000,11000,214000,284918,
-7936,10232,9528,-402,6948,8712,17000,11000,215000,284930,
-7900,10344,9500,-624,6428,8985,17000,11000,216000,284933,
-7776,10388,9580,-921,5897,9323,17000,11000,216000,284935,
-8124,10296,11260,-2303,3235,9810,17000,12000,217000,284948,
-8304,10272,11292,-2631,2728,9946,17000,12000,217000,284950,
-8364,10060,11640,-2837,2331,10040,17000,12000,217000,284952,
-8528,9492,13312,-3589,-34,11080,17000,11000,218000,284965,
-8500,9384,13740,-3666,-294,11175,17000,11000,219000,284967,
-8232,9408,13600,-3796,-605,11322,17000,11000,219000,284970,
-7020,9236,13956,-4173,-1408,11737,17000,11000,220000,284982,
-6928,9128,14172,-4223,-1550,11848,17000,11000,220000,284984,
-6920,9052,14264,-4264,-1525,11906,17000,11000,220000,284987,
-6920,8436,13828,-4679,-1319,12526,17000,10000,221000,284999,
-6812,8208,13676,-4733,-1153,12665,17000,10000,222000,285002,
-6800,8112,13584,-4790,-1100,13021,17000,10000,222000,285004,
-6844,7492,13272,-4892,142,13808,17000,10000,223000,285016,
-6800,7424,13060,-4977,354,14042,17000,10000,223000,285019,
-6812,7448,12752,-4967,737,14167,16000,10000,224000,285021,
-7188,7460,12188,-5491,2729,15328,16000,10000,225000,285034,
-7444,7544,11952,-5580,3203,15529,16000,10000,225000,285036,
-7444,7604,11804,-5821,3513,15793,16000,10000,226000,285038,
-7836,7652,11152,-6794,5421,17025,16000,10000,227000,285051,
-7988,7492,11028,-7042,5680,17283,16000,10000,228000,285053,
-9100,7060,11264,-7603,6538,18269,16000,10000,230000,285065,
-9432,6888,11236,-7698,6549,18555,16000,10000,230000,285068,
-9604,6796,11304,-7740,6524,18676,16000,10000,230000,285070,
-10044,6712,11404,-8845,6200,19799,15000,10000,232000,285083,
-10232,6776,11408,-9086,6118,20024,15000,11000,233000,285085,
-10336,6772,11592,-9355,6000,20220,15000,11000,233000,285087,
-10828,5604,11796,-10707,5395,21283,14000,11000,235000,285100,
-10980,5088,11788,-10910,5314,21433,14000,11000,236000,285102,
-11032,4852,11912,-11148,5133,21738,14000,11000,236000,285104,
-11124,3260,11668,-12017,4156,22820,13000,11000,238000,285117,
-11128,3180,11732,-12199,3919,23029,13000,11000,239000,285119,
-11080,2932,11680,-12359,3667,23156,13000,11000,239000,285122,
-11264,1328,11488,-13326,1350,24079,12000,11000,242000,285134,
-11284,1000,11332,-13462,756,24166,12000,11000,242000,285136,
-11056,-540,11120,-14062,-2812,25038,11000,10000,244000,285149,
-10872,-676,11172,-14062,-3431,25156,11000,10000,245000,285151,
-10800,-836,11196,-14186,-4231,25403,11000,10000,245000,285154,
-9388,-1712,11908,-14270,-7878,25901,10000,9000,247000,285166,
-8968,-1924,12116,-14355,-8625,26144,10000,8000,248000,285169,
-8744,-1984,12180,-14263,-9173,26184,9000,8000,248000,285171,
-6448,-3260,13372,-14241,-11766,26749,8000,7000,251000,285183,
-6092,-3200,13588,-14114,-11967,26744,8000,7000,251000,285186,
-3984,-3692,14684,-13929,-12999,27040,7000,5000,254000,285198,
-3604,-3812,15012,-13748,-12895,26982,7000,5000,254000,285201,
-3432,-3832,15252,-13733,-13043,27028,6000,4000,254000,285203,
-1428,-4412,16228,-13001,-12159,26905,5000,3000,257000,285215,
-1208,-4488,16556,-12873,-11933,26921,5000,3000,257000,285218,
-896,-4528,16644,-12589,-11483,26806,5000,3000,258000,285220,
220,-4532,17224,-11366,-8943,26473,4000,1000,260000,285233,
456,-4652,17432,-11015,-8297,26272,3000,1000,261000,285235,
400,-4660,17572,-10700,-7720,26224,3000,1000,261000,285237,
488,-4688,18264,-9053,-4721,25598,2000,0,264000,285250,
632,-4704,18400,-8816,-4253,25608,2000,0,264000,285252,
548,-4716,18700,-8480,-3769,25519,2000,0,264000,285254,
628,-5240,19488,-6870,-881,25030,1000,0,267000,285267,
760,-5392,19868,-6461,-225,25035,1000,0,267000,285269,
716,-5496,20052,-6098,387,25015,1000,0,268000,285271,
436,-5700,20548,-4086,3849,24733,0,0,270000,285284,
212,-5564,20632,-3721,4471,24647,0,0,271000,285286,
44,-5652,20748,-3408,5002,24659,0,1000,271000,285288,
-76,-5640,20904,-3027,5691,24568,0,1000,271000,285291,
-1144,-5568,21108,-1293,8145,24668,0,1000,274000,285303,
-1252,-5568,21236,-968,8588,24565,0,2000,274000,285305,
-1552,-5488,21328,-774,8886,24606,0,2000,275000,285308,
-1884,-5636,22048,645,10674,24644,0,3000,277000,285320,
-1872,-5724,21932,849,10947,24714,0,3000,277000,285323,
-1720,-5832,22024,1135,11313,24645,0,3000,278000,285325,
-2036,-5696,21624,2563,12999,24501,1000,4000,280000,285337,
-1968,-5704,21496,2782,13312,24541,1000,5000,281000,285340,
-1988,-5572,21548,3052,13573,24561,1000,5000,281000,285342,
-1776,-5396,20636,4274,15037,24544,1000,6000,283000,285354,
-1672,-5308,20432,4571,15321,24521,1000,6000,284000,285357,
-1720,-5348,20180,4727,15447,24444,1000,7000,284000,285359,
-2008,-5152,19256,5851,16972,24522,2000,8000,287000,285372,
-1952,-5092,19136,5927,17310,24460,2000,8000,287000,285374,
-1864,-4996,18952,6071,17695,24545,3000,9000,288000,285376,
-1664,-4736,18056,6784,19590,24517,4000,10000,290000,285389,
-1632,-4752,17940,6819,19889,24421,4000,11000,291000,285391,
-1784,-4528,17640,6927,20233,24434,4000,11000,291000,285394,
-2444,-3976,16668,6860,21082,24267,5000,13000,294000,285406,
-2516,-3932,16576,6824,21181,24277,5000,13000,294000,285408,
-2560,-3836,16408,6666,21257,24218,5000,14000,295000,285411,
-2388,-3540,15904,6020,21585,24209,7000,15000,297000,285423,
-2296,-3520,16032,5823,21712,24120,7000,16000,298000,285426,
-2380,-3496,15876,5716,21817,24146,7000,16000,298000,285428,
-1620,-3148,15380,4827,22532,23600,8000,18000,301000,285441,
-1544,-3080,15296,4698,22743,23536,8000,18000,301000,285443,
-1476,-3092,15192,4572,22806,23389,9000,18000,302000,285445,
-1600,-2488,14744,3903,23224,22483,10000,20000,304000,285458,
-1736,-2544,14500,3682,23175,22297,10000,20000,305000,285460,
-1860,-2416,14264,3500,23090,22144,10000,21000,305000,285463,
-2732,-2136,13688,2555,21295,21067,11000,22000,308000,285475,
-3060,-2120,13732,2451,20794,20850,12000,23000,308000,285477,
-3164,-2088,13596,2213,20191,20632,12000,23000,309000,285480,
-3800,-1920,13704,1198,15976,19460,13000,24000,311000,285492,
-4064,-2008,13640,941,15024,19357,13000,24000,312000,285495,
-4084,-1920,13820,786,14005,19081,13000,24000,312000,285497,
-4248,-2200,14180,-558,8028,18266,14000,25000,314000,285509,
-3856,-2240,14396,-764,6940,18033,14000,25000,314000,285512,
-2780,-2548,14540,-1543,1538,17165,14000,24000,316000,285524,
-2440,-2540,14568,-1629,727,16927,14000,24000,316000,285527,
-2040,-2592,14688,-1737,-184,16753,14000,24000,317000,285529,
-8,-2256,14496,-1872,-3385,15499,15000,23000,318000,285541,
464,-2104,14528,-1892,-3823,15332,15000,23000,318000,285544,
948,-2144,14552,-1825,-4041,15034,15000,23000,319000,285546,
2920,-2120,14536,-1640,-4804,13706,15000,22000,320000,285559,
3384,-2140,14404,-1547,-4644,13391,15000,22000,320000,285561,
3568,-1976,14472,-1548,-4619,13128,15000,22000,320000,285563,
4208,-1552,14432,-1250,-3686,11348,15000,21000,321000,285576,
4252,-1468,14228,-1287,-3571,11033,15000,21000,321000,285578,
4384,-1312,14332,-1223,-3331,10698,15000,20000,322000,285580,
4160,-1204,14332,-1424,-2297,9028,15000,20000,322000,285593,
4240,-1224,14384,-1404,-2087,8640,15000,20000,322000,285595,
3756,-1268,14088,-1781,-1179,6822,15000,19000,323000,285607,
3848,-1348,14128,-1834,-1011,6544,15000,19000,323000,285610,
3668,-1320,13964,-1916,-854,6231,15000,19000,323000,285612,
3584,-1240,13856,-2088,-229,4584,15000,19000,324000,285624,
3592,-1256,13688,-2184,-103,4241,15000,19000,324000,285627,
3468,-1248,13720,-2210,-66,3946,15000,19000,324000,285629,
2928,-1088,13760,-2516,158,2280,14000,18000,324000,285641,
2800,-1208,13796,-2555,121,2025,14000,18000,324000,285644,
2660,-1188,13992,-2605,125,1762,14000,18000,324000,285646,
1852,-1084,14028,-3036,-336,310,14000,18000,324000,285658,
1708,-1080,14068,-3125,-454,71,14000,18000,324000,285661,
1784,-1064,14060,-3198,-614,-156,14000,18000,324000,285663,
1184,-1064,14340,-3547,-1176,-1474,13000,18000,324000,285675,
1228,-1104,14224,-3601,-1287,-1693,13000,18000,324000,285678,
1060,-1144,14528,-3636,-1308,-1956,13000,18000,324000,285680,
736,-996,14636,-3905,-1588,-3141,12000,18000,323000,285693,
772,-956,14672,-3923,-1531,-3360,12000,17000,323000,285695,
768,-1000,14724,-4001,-1627,-3567,12000,17000,323000,285697,
508,-780,14948,-4154,-1578,-4577,12000,17000,323000,285710,
476,-784,14920,-4267,-1623,-4757,12000,17000,323000,285712,
556,-700,15088,-4255,-1595,-4903,11000,17000,322000,285714,
508,-632,15140,-4398,-1633,-5830,11000,17000,322000,285727,
528,-604,15156,-4322,-1551,-5981,11000,17000,322000,285729,
464,-648,15092,-4379,-1557,-6169,10000,17000,322000,285731,
68,-460,15404,-4239,-1669,-7077,10000,17000,321000,285744,
120,-400,15320,-4262,-1725,-7211,10000,17000,321000,285746,
-52,-444,15412,-4219,-1777,-7383,9000,17000,321000,285748,
-264,-340,15952,-4261,-2432,-8263,9000,17000,320000,285761,
-228,-332,15936,-4218,-2557,-8414,9000,17000,320000,285763,
-160,-244,16008,-4265,-2743,-8564,8000,17000,319000,285765,
-60,-236,16600,-4296,-3654,-9363,8000,16000,318000,285778,
-128,-308,16692,-4356,-3814,-9522,8000,16000,318000,285780,
28,-424,16808,-4369,-4022,-9691,7000,16000,318000,285782,
-4,-944,17276,-4431,-5269,-10612,7000,16000,317000,285795,
28,-1196,17244,-4427,-5554,-10802,6000,16000,317000,285797,
-132,-1292,17352,-4396,-5740,-10944,6000,15000,316000,285799,
-32,-2048,17568,-4405,-7361,-11856,5000,15000,315000,285812,
44,-2312,17812,-4399,-7707,-12036,5000,15000,315000,285814,
220,-2428,17776,-4358,-7886,-12162,5000,15000,315000,285816,
1036,-3248,17696,-3890,-8916,-13179,4000,14000,313000,285829,
1124,-3372,17804,-3802,-8989,-13328,4000,14000,313000,285831,
1560,-4236,18024,-2987,-9002,-14451,3000,13000,312000,285844,
1696,-4352,17948,-2926,-8961,-14639,3000,13000,311000,285846,
1700,-4376,17876,-2727,-8933,-14812,3000,12000,311000,285848,
1980,-4840,17992,-1915,-8357,-16015,3000,12000,309000,285861,
2048,-4832,18048,-1762,-8091,-16165,2000,11000,309000,285863,
2076,-5044,17936,-1635,-8030,-16421,2000,11000,309000,285865,
2148,-5640,17908,-719,-6776,-17534,2000,11000,307000,285878,
2256,-5688,17848,-541,-6668,-17831,2000,10000,307000,285880,
2236,-5656,17916,-383,-6380,-17984,2000,10000,306000,285882,
1568,-6200,17684,304,-5455,-19314,1000,10000,304000,285895,
1440,-6292,17508,443,-5278,-19457,1000,10000,304000,285897,
1220,-6424,17396,578,-5131,-19737,1000,10000,304000,285900,
272,-6580,16700,1130,-4567,-20657,1000,9000,302000,285912,
68,-6616,16788,1229,-4612,-20846,1000,9000,301000,285914,
-108,-6720,16712,1285,-4542,-20948,1000,9000,301000,285917,
-1160,-6844,16500,1242,-5191,-21668,0,8000,299000,285929,
-1352,-6880,16652,1232,-5459,-21842,0,8000,298000,285931,
-1388,-6868,16672,1151,-5633,-21882,0,8000,298000,285934,
-2008,-7368,16752,725,-7396,-22482,0,8000,296000,285946,
-1932,-7556,16876,638,-7774,-22598,0,7000,295000,285949,
-2056,-7592,16768,614,-8228,-22714,0,7000,295000,285951,
-1716,-8020,17304,85,-10245,-23288,0,6000,293000,285963,
-1424,-8296,17304,37,-10634,-23493,0,6000,292000,285966,
-1328,-8312,17380,-68,-10991,-23647,0,6000,292000,285968,
-240,-8820,17524,-288,-12258,-24812,-1000,5000,289000,285981,
88,-8808,17484,-378,-12427,-25113,-1000,4000,289000,285983,
316,-8744,17384,-289,-12422,-25294,-1000,4000,289000,285985,
1568,-8132,16660,27,-12288,-26830,-1000,3000,286000,285998,
1612,-7972,16680,195,-12143,-27030,-1000,3000,286000,286000,
1748,-7792,16600,206,-11978,-27366,-1000,2000,285000,286002,
2260,-7640,16776,365,-11870,-28539,-1000,1000,282000,286015,
2300,-7548,16828,306,-11918,-28911,-1000,1000,282000,286017,
2340,-7624,16956,350,-11787,-29083,-1000,1000,281000,286019,
2932,-8344,17616,419,-11502,-30784,-2000,0,278000,286032,
3048,-8376,17612,536,-11188,-30916,-2000,0,278000,286034,
3116,-8596,17668,542,-11121,-31337,-2000,0,277000,286036,
3020,-8744,18024,1346,-9753,-32512,-1000,-1000,274000,286049,
3080,-8804,18020,1504,-9487,-32768,-1000,-1000,274000,286051,
3196,-8748,17852,1717,-9170,-32768,-1000,-2000,273000,286053,
2788,-8288,17760,2051,-8229,-32768,-1000,-2000,270000,286066,
2672,-8288,17732,2186,-8057,-32768,-1000,-3000,269000,286068,
2236,-8216,17692,2227,-7973,-32768,-1000,-3000,269000,286071,
764,-8128,18164,2392,-7969,-32768,-1000,-4000,266000,286083,
628,-8120,18056,2238,-8031,-32768,-1000,-4000,265000,286085,
332,-8148,18116,2224,-7929,-32768,-1000,-4000,265000,286088,
-776,-8536,18504,2304,-7216,-32768,0,-5000,262000,286100,
-948,-8668,18556,2377,-7021,-32768,0,-5000,261000,286102,
-1204,-8716,18824,2474,-6722,-32768,0,-5000,260000,286105,
-2696,-9116,18956,2826,-5613,-32768,0,-5000,257000,286117,
-2956,-9144,18908,2937,-5411,-32768,0,-5000,257000,286120,
-3476,-9168,18964,2983,-5311,-32768,0,-6000,256000,286122,
-5304,-9152,19220,3542,-5486,-32768,0,-6000,253000,286134,
-5664,-9112,19296,3543,-5593,-32768,0,-6000,252000,286137,
-6148,-8976,19176,3654,-5664,-32768,0,-6000,252000,286139,
-6640,-8060,19300,4572,-5322,-32768,1000,-6000,249000,286151,
-6772,-7840,19164,4883,-5101,-32768,1000,-6000,248000,286154,
-6868,-7560,19080,5067,-4824,-32768,1000,-6000,247000,286156,
-6868,-6508,19096,6025,-2186,-32768,2000,-6000,244000,286169,
-6736,-6328,19100,6050,-1467,-32768,2000,-6000,244000,286171,
-6912,-5836,18848,6209,2734,-32768,3000,-6000,241000,286183,
-7032,-5716,18668,6229,3487,-32768,3000,-6000,240000,286186,
-7216,-5528,18796,6372,4377,-32768,3000,-6000,239000,286188,
-8504,-5108,18704,7759,8774,-31884,4000,-4000,236000,286201,
-8660,-5044,18516,8030,9558,-31465,4000,-4000,236000,286203,
-8976,-4816,18256,8324,10242,-31232,4000,-4000,235000,286205,
-10860,-4116,17076,9876,13258,-29663,5000,-2000,233000,286218,
-11264,-3904,16952,10217,13528,-29235,6000,-2000,232000,286220,
-11640,-3716,16732,10573,13991,-28972,6000,-1000,232000,286223,
-13564,-2296,14896,12017,14511,-26807,7000,0,229000,286235,
-13844,-2192,14680,12304,14502,-26455,7000,0,229000,286238,
-14124,-1832,14160,12404,14328,-25976,7000,0,228000,286240,
-15016,-44,11824,12907,12908,-23787,8000,2000,226000,286252,
-15160,248,11700,12892,12359,-23475,9000,2000,226000,286255,
-15316,472,11360,12880,11785,-23133,9000,3000,226000,286257,
-16200,2412,10236,11885,8276,-21187,10000,4000,224000,286269,
-16228,2728,10092,11750,7574,-20856,10000,4000,223000,286272,
-16144,3116,10080,11413,6798,-20472,10000,5000,223000,286274,
-15956,4500,9976,9970,3089,-18510,11000,6000,221000,286287,
-15860,4636,10108,9670,2417,-18206,11000,6000,221000,286289,
-14864,5696,10408,8508,-363,-16556,12000,6000,220000,286302,
-14620,5792,10408,8231,-750,-16265,12000,6000,219000,286304,
-14368,5988,10612,8039,-1099,-16036,12000,6000,219000,286306,
-12856,6964,11076,6910,-2192,-14552,13000,7000,218000,286319,
-12668,7028,11348,6804,-2295,-14327,13000,7000,217000,286321,
-12424,7092,11544,6591,-2338,-14085,13000,7000,217000,286323,
-11496,7652,11644,5999,-2048,-12785,13000,7000,216000,286336,
-11364,7888,11816,5865,-2028,-12591,14000,7000,216000,286338,
-11396,7844,11816,5820,-1905,-12269,14000,7000,215000,286340,
-11188,8380,11620,5272,-1451,-10673,14000,8000,214000,286353,
-11072,8588,11380,5235,-1425,-10400,14000,8000,214000,286355,
-10936,8680,11212,5080,-1300,-10089,14000,8000,214000,286358,
-10800,9464,10628,4402,-1179,-8698,15000,8000,213000,286370,
-10912,9540,10560,4240,-1295,-8487,15000,8000,213000,286373,
-11036,9648,10304,4060,-1253,-8247,15000,8000,213000,286375,
-11856,9996,9884,2965,-1977,-6943,15000,8000,212000,286388,
-11788,10076,9836,2732,-2226,-6707,15000,8000,212000,286390,
-11896,10440,10016,1722,-3554,-5338,15000,8000,211000,286402,
-11836,10492,10100,1440,-3865,-5102,16000,8000,211000,286405,
-11728,10360,10080,1272,-4120,-4833,16000,8000,211000,286407,
-11004,10112,10532,22,-5606,-3414,16000,8000,211000,286420,
-10780,9952,10448,-113,-5684,-3134,16000,8000,211000,286422,
-10640,9976,10524,-328,-5805,-2876,16000,8000,211000,286424,
-9064,9704,10920,-810,-6080,-1561,16000,8000,210000,286437,
-8904,9604,11004,-827,-5953,-1315,16000,8000,210000,286439,
-8464,9716,10868,-968,-5939,-1091,16000,7000,210000,286441,
-6756,9868,11112,-1307,-4899,-39,16000,7000,210000,286454,
-6452,9952,11260,-1347,-4736,101,16000,7000,210000,286456,
-6176,9988,11336,-1349,-4403,244,16000,7000,210000,286458,
-5328,9820,11592,-1346,-2880,687,16000,7000,210000,286471,
-5204,9984,11604,-1268,-2547,688,16000,7000,210000,286473,
-5268,9992,11724,-1306,-2295,780,16000,7000,210000,286475,
-5344,9912,11936,-1249,-859,1144,16000,7000,210000,286488,
-5380,9904,12156,-1234,-691,1230,16000,7000,210000,286490,
-5436,9840,12128,-1213,-566,1278,16000,7000,210000,286492,
-5760,9572,12300,-1308,-276,1674,16000,7000,210000,286505,
-5748,9452,12304,-1285,-261,1735,16000,7000,210000,286507,
-5852,9312,12212,-1353,-295,1786,16000,7000,211000,286509,
-5908,8920,12144,-1481,-648,2345,16000,7000,211000,286522,
-5896,8872,12020,-1475,-704,2479,16000,7000,211000,286524,
-5752,8772,12048,-1498,-739,2553,16000,7000,211000,286526,
-5364,8524,12212,-1622,-1265,3043,16000,7000,211000,286539,
-5380,8444,12364,-1655,-1378,3105,16000,7000,211000,286541,
-5372,8420,12156,-1697,-1533,3212,16000,7000,211000,286543,
-4756,7932,13112,-1785,-2265,3811,16000,6000,211000,286556,
-4588,7936,13204,-1772,-2521,3912,16000,6000,212000,286558,
-4484,7788,13292,-1777,-2582,4007,16000,6000,212000,286560,
-3252,7472,13984,-1643,-2961,4301,16000,6000,212000,286573,
-3008,7392,13944,-1544,-2736,4361,16000,6000,212000,286575,
-2680,7396,13940,-1545,-2704,4399,16000,6000,212000,286578,
-1272,7640,14268,-1233,-1614,4452,16000,5000,212000,286590,
-1144,7556,14476,-1257,-1452,4468,16000,5000,212000,286592,
-916,7604,14416,-1208,-1157,4421,16000,5000,213000,286595,
-412,7576,14488,-1170,-72,4305,16000,5000,213000,286607,
-252,7512,14456,-1082,194,4270,16000,5000,213000,286609,
-136,7444,14608,-1071,195,4211,16000,5000,213000,286612,
-620,7284,14536,-932,835,3891,16000,5000,213000,286624,
-728,7252,14680,-964,892,3880,16000,5000,214000,286626,
-604,7352,14596,-912,979,3866,16000,5000,214000,286629,
-1112,7104,15068,-1022,655,3560,16000,5000,214000,286641,
-1360,7068,14912,-1039,601,3500,16000,5000,214000,286643,
-1372,6860,14936,-1187,410,3480,16000,5000,214000,286646,
-1804,6476,15276,-1226,-414,3569,16000,5000,214000,286658,
-1732,6452,15112,-1189,-521,3533,16000,5000,214000,286660,
-1828,6328,15076,-1251,-776,3532,15000,5000,215000,286663,
-1596,5948,15292,-1389,-1874,3594,15000,5000,215000,286675,
-1380,5908,15200,-1344,-1922,3590,15000,5000,215000,286677,
