Ax,Ay,Az,Gx,Gy,Gz,Roll,Pitch,Yaw,Timestamp,Target
-4496,188,16212,-494,206,64,-5000,20000,103000,292651,
-4460,124,16132,-503,244,60,-5000,20000,103000,292653,
-4592,88,16164,-515,284,20,-5000,20000,103000,292656,
-4588,244,15920,-441,288,43,-5000,20000,103000,292658,
-4508,180,15612,-432,320,67,-5000,20000,103000,292674,
-4536,212,15676,-469,351,67,-5000,20000,103000,292677,
-4672,224,15660,-423,335,29,-5000,20000,103000,292679,
-4548,192,15696,-412,312,-23,-5000,20000,103000,292691,
-4608,180,15708,-395,272,-12,-5000,20000,103000,292694,
-4628,228,15676,-405,259,-11,-5000,20000,103000,292696,
-4672,192,15816,-362,247,-43,-5000,20000,103000,292709,
-4648,304,15792,-361,284,-25,-5000,20000,103000,292711,
-4848,268,15636,-409,260,-45,-5000,20000,103000,292714,
-4644,128,15588,-437,214,-66,-5000,20000,103000,292726,
-4612,184,15600,-432,249,-67,-5000,20000,103000,292728,
-4616,220,15616,-420,195,-79,-5000,20000,103000,292731,
-4580,232,15760,-431,220,-100,-5000,20000,103000,292743,
-4748,224,15664,-351,189,-83,-5000,20000,103000,292746,
-4752,224,15776,-433,218,-76,-5000,20000,103000,292748,
-4720,248,15556,-486,274,-38,-5000,20000,103000,292761,
-4696,240,15576,-490,264,-62,-5000,20000,103000,292763,
-4592,256,15616,-530,291,-75,-5000,20000,103000,292765,
-4572,192,15568,-533,294,-60,-5000,20000,103000,292778,
-4772,92,15352,-495,294,-66,-5000,20000,103000,292780,
-4696,140,15520,-488,237,-108,-5000,20000,103000,292783,
-4660,264,15448,-535,278,-67,-5000,20000,103000,292785,
-4760,308,15648,-486,249,-88,-5000,20000,103000,292798,
-4796,184,16072,-445,249,-117,-5000,20000,103000,292800,
-4792,212,15776,-439,301,-110,-5000,20000,103000,292803,
-5004,224,15592,-529,332,13,-5000,20000,103000,292815,
-4996,296,15724,-503,279,20,-5000,20000,103000,292818,
-5012,156,15752,-553,197,56,-5000,20000,103000,292820,
-5032,212,15692,-523,65,20,-5000,20000,103000,292833,
-4844,40,15560,-577,8,28,-5000,20000,103000,292835,
-4800,100,15616,-570,33,20,-5000,20000,103000,292838,
-4904,92,15556,-520,-29,9,-5000,20000,103000,292840,
-4568,128,15752,-545,-5,29,-5000,20000,103000,292853,
-4588,180,15704,-534,17,5,-5000,20000,103000,292855,
-4536,220,15756,-522,48,11,-5000,20000,103000,292858,
-4484,176,15908,-410,286,-26,-5000,20000,103000,292870,
-4520,192,15780,-427,300,-2,-5000,20000,103000,292873,
-4496,212,15616,-441,324,16,-5000,20000,103000,292875,
-4608,248,15708,-413,413,-23,-5000,20000,103000,292877,
-4588,292,15588,-445,454,-24,-5000,20000,103000,292890,
-4636,228,15672,-441,483,-41,-5000,20000,103000,292892,
-4736,316,15448,-452,423,-29,-5000,20000,103000,292895,
-4712,196,15528,-455,300,-96,-5000,20000,103000,292907,
-4620,168,15524,-545,253,-63,-5000,20000,103000,292910,
-4620,188,15604,-571,252,-86,-5000,20000,103000,292912,
-4568,196,15752,-556,205,-74,-5000,20000,103000,292925,
-4632,212,15684,-560,224,-59,-5000,20000,103000,292927,
-4612,248,15748,-510,269,-70,-5000,20000,103000,292929,
-4720,132,15588,-620,362,-32,-5000,20000,103000,292942,
-4804,300,15376,-608,403,-28,-5000,20000,103000,292944,
-4732,140,15412,-659,353,28,-5000,20000,103000,292947,
-4840,228,15400,-715,299,-69,-5000,20000,103000,292959,
-4864,240,15384,-699,249,-20,-5000,20000,103000,292962,
-4912,128,15376,-739,212,-37,-5000,20000,103000,292964,
-4696,12,15504,-747,24,-108,-6000,20000,103000,292977,
-4768,68,15624,-777,-2,-103,-6000,20000,103000,292979,
-4768,132,15644,-751,29,-131,-6000,20000,103000,292981,
-4764,168,15808,-732,-21,-99,-6000,20000,103000,292984,
-4612,176,15952,-677,177,-69,-6000,20000,103000,292996,
-4532,264,16124,-649,159,-69,-6000,20000,103000,292999,
-4704,200,16124,-640,223,-64,-6000,20000,103000,293001,
-4868,244,15948,-513,397,23,-6000,20000,103000,293014,
-4776,148,15992,-545,454,9,-6000,20000,103000,293016,
-4816,100,16012,-547,511,-1,-6000,20000,103000,293018,
-4944,-8,15952,-538,327,8,-6000,20000,103000,293031,
-4896,36,15580,-498,354,-29,-6000,20000,103000,293033,
-4896,24,15544,-540,229,-7,-6000,20000,103000,293036,
-4812,-16,15520,-524,220,-2,-6000,20000,103000,293038,
-4824,0,15664,-515,116,-13,-6000,20000,103000,293051,
-4564,-20,15668,-555,128,24,-6000,20000,103000,293053,
-4652,100,15596,-519,147,-27,-6000,20000,103000,293055,
-4620,160,15800,-460,242,18,-6000,20000,103000,293068,
-4592,176,15748,-467,312,2,-6000,20000,103000,293070,
-4720,212,15832,-462,326,10,-6000,20000,103000,293073,
-4720,340,15524,-574,476,-26,-6000,20000,103000,293085,
-4740,380,15564,-536,379,-16,-6000,20000,103000,293088,
-4844,188,15528,-571,385,-27,-6000,20000,103000,293090,
-5048,80,15500,-532,173,-94,-6000,20000,103000,293103,
-5048,12,15668,-572,88,-74,-6000,20000,103000,293105,
-5044,44,15612,-603,81,-106,-6000,20000,103000,293107,
-4904,32,15664,-565,-145,-38,-6000,20000,103000,293120,
-4896,-48,15836,-590,-113,-46,-6000,20000,103000,293122,
-4780,56,15824,-538,-153,-29,-6000,20000,103000,293125,
-4632,204,15920,-430,24,7,-6000,20000,103000,293137,
-4764,156,16072,-437,28,12,-6000,20000,103000,293140,
-4768,148,15872,-432,61,15,-6000,20000,103000,293142,
-4792,172,15956,-421,166,51,-6000,20000,103000,293145,
-4864,84,15684,-432,185,86,-6000,20000,103000,293157,
-4924,88,15512,-468,209,75,-6000,20000,103000,293159,
-4856,40,15476,-423,155,67,-6000,20000,103000,293162,
-4908,8,15572,-474,131,80,-6000,20000,103000,293175,
-4876,20,15484,-451,65,84,-6000,20000,103000,293177,
-4880,96,15456,-479,67,73,-6000,20000,103000,293179,
-4804,248,15476,-530,120,102,-6000,20000,103000,293182,
-4692,380,15524,-500,132,97,-6000,20000,103000,293194,
-4620,400,15524,-546,122,136,-6000,20000,103000,293197,
-4644,388,15452,-571,154,102,-6000,20000,103000,293199,
-4660,420,15428,-682,252,81,-6000,20000,103000,293212,
-4740,364,15352,-676,281,55,-6000,20000,103000,293214,
-4784,332,15544,-635,289,6,-6000,20000,103000,293216,
-4728,248,15252,-659,251,64,-6000,20000,103000,293219,
-4808,116,15588,-639,26,16,-6000,20000,103000,293231,
-4872,-64,15736,-690,-39,2,-6000,20000,103000,293234,
-4940,108,15568,-704,-41,4,-6000,20000,103000,293236,
-4840,-12,15924,-704,-263,102,-6000,20000,103000,293249,
-4880,76,15880,-708,-228,79,-6000,20000,103000,293251,
-4868,52,15812,-662,-254,73,-6000,20000,103000,293253,
-4516,20,15884,-691,-165,109,-6000,20000,104000,293266,
-4532,56,15984,-633,-157,109,-6000,20000,104000,293268,
-4492,108,15912,-668,-155,119,-6000,20000,104000,293271,
-4432,-16,15868,-588,56,69,-6000,20000,104000,293283,
-4340,-8,15716,-617,107,47,-6000,20000,104000,293286,
-4316,68,15700,-568,173,-2,-6000,20000,104000,293288,
-4440,36,15876,-544,177,22,-6000,20000,104000,293291,
-4452,-72,15924,-500,226,-78,-6000,20000,104000,293303,
-4476,-96,15892,-521,173,-74,-6000,20000,104000,293306,
-4492,-16,15924,-502,172,-84,-6000,20000,104000,293308,
-4396,-132,16012,-419,36,-186,-6000,20000,104000,293321,
-4388,-100,16124,-422,4,-193,-6000,20000,104000,293323,
-4400,-80,16104,-410,-4,-214,-6000,20000,104000,293325,
-4352,-300,16552,-267,-288,-305,-6000,20000,104000,293338,
-4268,-188,16500,-235,-374,-329,-6000,20000,104000,293340,
-4176,-248,16636,-191,-468,-346,-6000,20000,104000,293343,
-3880,-336,16876,-78,-873,-663,-6000,20000,103000,293355,
-3844,-520,16928,57,-1016,-725,-6000,20000,103000,293358,
-3852,-520,17096,53,-1109,-771,-6000,20000,103000,293360,
-3720,-804,17560,492,-1506,-1175,-6000,19000,103000,293373,
-3732,-768,17596,531,-1612,-1231,-6000,19000,103000,293375,
-3836,-992,17784,644,-1667,-1315,-6000,19000,103000,293377,
-3732,-1388,18668,1301,-2623,-1745,-6000,19000,103000,293390,
-3796,-1308,18740,1476,-2824,-1862,-6000,19000,103000,293392,
-3672,-1360,18760,1595,-3121,-2007,-6000,19000,103000,293395,
-3076,-1560,19464,2233,-4349,-2795,-6000,18000,103000,293407,
-2964,-1548,19728,2342,-4660,-2930,-5000,18000,103000,293410,
-2908,-1796,19896,2548,-4932,-3105,-5000,18000,103000,293412,
-2356,-1808,20056,3289,-6333,-3989,-5000,17000,102000,293425,
-2044,-1856,20120,3437,-6621,-4224,-5000,17000,102000,293427,
-1848,-1904,20364,3587,-6927,-4489,-5000,17000,102000,293430,
-856,-2300,20076,4548,-8531,-5785,-5000,16000,102000,293442,
-796,-2260,20240,4789,-8830,-6119,-5000,16000,102000,293445,
-376,-2548,20180,4991,-9152,-6401,-5000,16000,102000,293447,
312,-3120,20168,6310,-10666,-8167,-4000,15000,101000,293460,
504,-3204,20232,6483,-10913,-8484,-4000,14000,101000,293462,
564,-3080,20384,6700,-11131,-8856,-4000,14000,101000,293464,
1180,-3116,20348,7655,-11780,-10403,-4000,13000,100000,293477,
1400,-3064,20484,7814,-11797,-10668,-4000,12000,99000,293479,
1512,-2988,20600,8043,-11770,-10949,-4000,12000,99000,293482,
2200,-3264,21280,8754,-11027,-11385,-3000,11000,98000,293494,
2200,-3164,21380,8896,-10817,-11392,-3000,11000,98000,293497,
2676,-3252,21344,9022,-10490,-11447,-3000,11000,98000,293499,
2924,-3216,21288,10094,-8330,-12336,-2000,10000,97000,293512,
2908,-3236,21076,10304,-7937,-12540,-2000,9000,96000,293514,
2716,-3088,21108,10539,-7520,-12615,-2000,9000,96000,293516,
1480,-1888,19204,11683,-4884,-13841,-1000,8000,94000,293533,
1320,-1744,19024,11738,-4496,-13927,0,8000,94000,293535,
1268,-1664,18896,11846,-4186,-14023,0,8000,94000,293537,
108,-920,17280,12202,-2651,-13716,0,8000,93000,293550,
-32,-784,16960,12280,-2373,-13757,0,8000,92000,293552,
8,-656,16296,12333,-2192,-13731,0,8000,92000,293555,
-824,-144,14972,12124,-1049,-13843,1000,8000,91000,293567,
-864,140,14840,12106,-950,-13907,1000,8000,90000,293570,
-1048,208,14512,11971,-914,-13851,1000,8000,90000,293572,
-532,1252,12008,10696,-298,-14315,2000,8000,89000,293585,
-56,1452,11888,10345,-270,-14442,2000,8000,89000,293587,
-328,1596,11928,10138,-318,-14542,3000,8000,88000,293589,
336,1916,10024,9157,493,-14735,3000,8000,87000,293602,
268,1952,9900,9032,755,-14883,3000,8000,87000,293604,
52,1916,9820,8863,947,-14849,4000,8000,86000,293607,
-168,1872,10152,8692,1187,-14795,4000,8000,86000,293609,
-2804,1572,11836,8939,2483,-14335,4000,8000,85000,293622,
-3104,1504,12176,8970,2637,-14210,5000,8000,84000,293624,
-3692,1564,12632,9158,2747,-14126,5000,8000,84000,293626,
-5192,1488,14800,9444,2195,-13680,5000,9000,83000,293639,
-5336,1732,15264,9499,1933,-13740,6000,9000,83000,293641,
-5596,1756,15836,9534,1496,-13743,6000,9000,82000,293644,
-5496,2628,17040,9408,110,-14102,6000,9000,81000,293656,
-5328,2940,17100,9273,-124,-14049,6000,9000,81000,293659,
-5224,3064,17348,9240,-335,-14142,7000,9000,81000,293661,
-3768,3820,17208,8783,-957,-14615,7000,9000,79000,293674,
-3596,4100,17112,8681,-902,-14746,7000,9000,79000,293676,
-3396,3996,17008,8734,-973,-14957,7000,9000,79000,293679,
-4180,3340,16664,9136,-276,-15337,8000,10000,77000,293691,
-4320,3432,16536,9292,-73,-15321,8000,10000,77000,293694,
-4744,3044,16176,9353,129,-15173,8000,10000,76000,293696,
-6612,2864,13892,9140,290,-14359,9000,10000,75000,293708,
-6960,2872,13492,8996,87,-14133,9000,10000,75000,293711,
-6944,2848,13108,8897,-125,-13966,9000,10000,75000,293713,
-6628,3424,11728,8317,-2103,-13031,10000,10000,73000,293726,
-6548,3564,11620,8208,-2475,-13012,10000,10000,73000,293728,
-6488,3972,11708,8085,-2820,-12888,10000,10000,73000,293731,
-5972,4744,11920,7198,-3819,-12350,11000,10000,72000,293743,
-5824,4892,11988,7040,-3897,-12239,11000,10000,71000,293746,
-5772,4968,12036,6841,-3912,-11945,11000,10000,71000,293748,
-5296,5180,12972,6248,-3577,-11092,11000,10000,70000,293761,
-5264,5232,13120,6147,-3361,-10978,11000,10000,70000,293763,
-5264,5112,13256,6065,-3207,-10929,11000,10000,70000,293765,
-4588,5744,12028,4752,-1815,-10664,12000,10000,69000,293778,
-4232,5656,11996,4573,-1586,-10810,12000,10000,68000,293780,
-4064,5628,11636,4445,-1395,-10800,12000,10000,68000,293783,
-3928,5388,11008,3795,-262,-10740,12000,11000,67000,293795,
-4140,5468,10736,3610,-46,-10682,12000,11000,67000,293798,
-4260,5236,10852,3459,252,-10606,12000,11000,67000,293800,
-5756,5184,10488,2700,1321,-9765,12000,11000,66000,293813,
-5888,5116,10564,2466,1418,-9538,12000,11000,66000,293815,
-6364,5140,10560,2340,1577,-9347,12000,11000,66000,293818,
-7272,5132,11124,1414,1678,-8020,12000,12000,65000,293830,
-7364,5108,11308,1267,1699,-7880,12000,12000,65000,293832,
-7524,5028,11220,1147,1560,-7605,12000,12000,65000,293835,
-8280,5316,12348,437,1348,-6646,12000,12000,64000,293847,
-8404,5340,12508,343,1282,-6408,12000,12000,64000,293850,
-8536,5260,12612,219,1306,-6212,12000,12000,64000,293852,
-9040,5132,13196,-444,1419,-5052,12000,13000,63000,293865,
-9016,5196,13296,-593,1394,-4858,12000,13000,63000,293867,
-8960,5164,13188,-684,1434,-4718,12000,13000,63000,293870,
-8600,4892,13260,-1084,1239,-3780,12000,13000,63000,293882,
-8624,4984,13368,-1144,1254,-3666,12000,13000,63000,293884,
-8556,4932,13324,-1182,1164,-3536,12000,13000,63000,293887,
-8656,5064,13472,-1592,950,-2815,12000,14000,62000,293900,
-8736,5020,13528,-1666,838,-2636,12000,14000,62000,293902,
-8752,4944,13544,-1802,780,-2491,12000,14000,62000,293904,
-8732,4908,13800,-2278,478,-1315,12000,14000,62000,293917,
-8788,4816,13880,-2369,473,-1088,12000,14000,62000,293919,
-8656,4776,14044,-2439,432,-894,12000,14000,62000,293922,
-8308,4664,14024,-2728,484,264,11000,14000,62000,293934,
-8272,4680,13920,-2758,536,438,11000,14000,62000,293937,
-8272,4640,13924,-2789,566,668,11000,14000,62000,293939,
-8164,4800,14000,-3049,659,1694,11000,14000,62000,293952,
-8176,4736,13888,-3150,619,1899,11000,14000,62000,293954,
-8256,4748,13944,-3202,587,2053,11000,14000,63000,293956,
-7796,4616,14220,-3409,234,2952,11000,14000,63000,293969,
-7540,4552,14352,-3445,179,3055,11000,14000,63000,293971,
-7324,4632,14468,-3450,100,3167,11000,14000,63000,293974,
-7124,4324,15184,-3510,-57,3712,10000,14000,63000,293986,
-6956,4384,15144,-3504,-54,3795,10000,14000,63000,293989,
-6952,4420,15180,-3548,-89,3862,10000,14000,63000,293991,
-6956,4032,15596,-3513,23,4565,10000,14000,64000,294004,
-7016,3912,15636,-3532,24,4672,10000,14000,64000,294006,
-6928,3876,15688,-3543,43,4834,10000,14000,64000,294008,
-6860,3784,15460,-3471,-177,5398,10000,14000,65000,294021,
-6820,3804,15212,-3456,-216,5484,10000,14000,65000,294023,
-6784,3788,15220,-3460,-272,5544,10000,14000,65000,294026,
-6848,3616,15280,-3527,-602,5908,10000,14000,65000,294038,
-6892,3716,15252,-3466,-687,5997,10000,14000,66000,294041,
-6956,3552,15124,-3581,-784,6046,10000,14000,66000,294043,
-7264,3256,15608,-3550,-1150,6594,9000,14000,66000,294056,
-7504,3260,15680,-3567,-1195,6730,9000,14000,66000,294058,
-8108,2736,16300,-3469,-1531,7831,9000,14000,67000,294071,
-8028,2584,16164,-3579,-1525,8058,9000,14000,67000,294073,
-7908,2432,16476,-3581,-1508,8252,9000,14000,67000,294075,
-7068,2132,16880,-3384,-1712,8679,9000,13000,68000,294088,
-7064,2348,16812,-3373,-1648,8710,9000,13000,68000,294090,
-6976,2556,16920,-3284,-1591,8839,9000,13000,69000,294093,
-6988,2496,17228,-2904,-430,9239,9000,13000,69000,294105,
-6528,2736,17336,-2800,-269,9360,9000,13000,70000,294108,
-6320,2752,16976,-2847,72,9523,9000,13000,70000,294110,
-5312,3024,16708,-2721,1265,9921,9000,13000,71000,294123,
-5064,3024,16656,-2725,1535,9935,9000,13000,71000,294125,
-4848,3060,16608,-2606,1780,10075,9000,13000,71000,294128,
-3768,3304,15400,-2764,3621,10562,9000,13000,72000,294140,
-3744,3408,15128,-2780,4136,10623,9000,13000,72000,294143,
-3564,3452,14844,-2763,4446,10740,9000,13000,73000,294145,
-3644,3912,13340,-2874,6651,11356,9000,14000,74000,294158,
-3980,4016,13212,-2956,6954,11511,9000,14000,74000,294160,
-4048,4276,12916,-3067,7321,11643,9000,14000,74000,294162,
-5588,4660,11892,-3506,8316,12845,9000,15000,76000,294175,
-6120,4964,11636,-3655,8512,13133,9000,15000,76000,294177,
-6204,4904,11320,-3825,8580,13446,9000,15000,76000,294180,
-6968,5260,10804,-4769,8582,14343,9000,16000,78000,294193,
-7032,5452,10508,-5005,8227,14361,9000,16000,78000,294195,
-7412,5516,10556,-5248,8045,14620,9000,16000,79000,294197,
-7488,6004,10616,-6358,6835,15133,9000,16000,80000,294210,
-7268,5640,10440,-6632,6666,15379,9000,16000,81000,294212,
-7540,5616,10536,-6857,6470,15475,9000,16000,81000,294215,
-6852,5400,11632,-7889,4757,15602,9000,17000,83000,294227,
-6636,5716,11696,-7880,4644,15623,9000,17000,83000,294230,
-6336,5376,11832,-8105,4295,15831,9000,17000,83000,294232,
-5460,4244,12564,-8917,3208,15822,9000,17000,85000,294245,
-5364,4572,13332,-9020,3036,15541,8000,17000,85000,294247,
-5144,4352,13340,-9025,2926,15448,8000,17000,85000,294250,
-4368,4284,13712,-9976,3503,15844,8000,17000,87000,294262,
-3944,4232,13452,-10159,3868,16009,8000,17000,87000,294265,
-3480,4052,13704,-10157,4183,16102,8000,17000,88000,294267,
-3032,3476,13744,-10225,5778,15764,7000,17000,89000,294280,
-3292,3344,13752,-10202,6065,15775,7000,17000,90000,294282,
-3248,3128,13880,-10239,6357,15831,7000,18000,90000,294285,
-3580,2104,14652,-10423,7162,15607,7000,18000,92000,294297,
-3672,2072,14708,-10497,7112,15504,7000,18000,92000,294300,
-3676,1728,14952,-10550,7046,15454,7000,18000,92000,294302,
-3632,872,15732,-10919,5947,15108,6000,19000,94000,294315,
-3440,548,16032,-10986,5622,15089,6000,19000,94000,294317,
-3352,424,15992,-10986,5334,14999,6000,19000,95000,294319,
-3084,324,15620,-11461,3919,14579,5000,19000,96000,294332,
-2352,56,15776,-11433,3928,14662,5000,19000,96000,294334,
-2708,-184,15508,-11653,3650,14789,5000,19000,97000,294337,
-1532,-736,15452,-11535,3547,14498,4000,19000,98000,294349,
-1256,-680,15424,-11458,3275,14154,4000,19000,98000,294352,
-1520,-852,15312,-11433,3232,13881,4000,19000,99000,294354,
-2520,-1152,14644,-11464,2336,12653,3000,19000,100000,294367,
-2480,-1112,14832,-11456,2144,12618,3000,19000,100000,294369,
-3384,-1048,15260,-11524,562,12672,2000,19000,102000,294382,
-3348,-1176,15384,-11539,274,12690,2000,19000,102000,294384,
-3444,-1108,15824,-11465,-133,12707,2000,19000,102000,294387,
-3124,-1408,16636,-11450,-1868,12761,1000,19000,103000,294400,
-2888,-1504,16772,-11413,-2136,12753,1000,19000,104000,294402,
-2748,-1720,16736,-11479,-2286,12682,1000,19000,104000,294404,
-1344,-1448,17360,-11084,-2757,12067,0,18000,105000,294417,
-1160,-1508,17540,-10978,-2721,11853,0,18000,105000,294419,
-848,-1424,17616,-10836,-2753,11547,0,18000,105000,294422,
272,-1064,18560,-10084,-2793,10327,0,18000,107000,294435,
432,-972,18704,-9897,-2844,10094,0,18000,107000,294437,
