Ax,Ay,Az,Gx,Gy,Gz,Roll,Pitch,Yaw,Timestamp,Target
-1328,-5552,15556,-748,-422,553,-29000,6000,199000,246348,
-1288,-5532,15704,-713,-267,626,-29000,6000,199000,246361,
-1284,-5324,15768,-795,-305,577,-29000,6000,199000,246363,
-1156,-5408,15644,-725,-231,591,-29000,6000,199000,246365,
-1236,-5480,15732,-769,-191,603,-29000,6000,199000,246378,
-1184,-5480,15640,-644,-106,615,-29000,6000,199000,246380,
-1272,-5516,15708,-789,-160,615,-29000,6000,199000,246382,
-1200,-5472,15896,-691,-65,689,-29000,6000,199000,246395,
-1384,-5528,15768,-752,-84,723,-29000,6000,199000,246397,
-1280,-5480,15868,-678,-58,661,-29000,6000,199000,246399,
-1404,-5452,15768,-637,-33,687,-29000,6000,199000,246412,
-1360,-5556,15872,-701,-119,645,-29000,6000,199000,246414,
-1236,-5496,15704,-640,-69,687,-29000,6000,199000,246416,
-1296,-5436,15796,-661,-188,754,-29000,6000,199000,246429,
-1140,-5480,15724,-516,-115,801,-29000,6000,199000,246431,
-1376,-5556,15780,-665,-213,764,-29000,6000,19904,-483,
-2916,3148,15752,-349,242,-211,5000,11000,176000,249649,
-2628,3256,16128,-689,229,-284,5000,11000,177000,249501,
-2660,3184,15960,-583,314,-276,5000,11000,177000,249504,
-2548,3348,16060,-688,300,-308,5000,11000,17700,200000,
-1044,-5644,15804,28,-470,949,-28000,6000,200000,246568,
-1108,-5752,15696,-104,-530,913,-28000,6000,200000,246571,
-1232,-5704,15660,-3,-484,934,-28000,6000,200000,246573,
-1112,-5536,15484,-66,-570,926,-28000,6000,201000,246585,
-1132,-5520,15660,28,-570,912,-28000,6000,201000,246588,
-968,-5512,15596,-78,-616,906,-28000,6000,201000,246590,
-1144,-5524,15356,-52,-623,887,-28000,6000,201000,246602,
-1080,-5440,15552,-28,-574,933,-28000,6000,201000,246605,
-920,-5512,15564,-60,-608,879,-28000,6000,201000,246607,
-960,-5412,15488,58,-521,920,-28000,5000,201000,246620,
-872,-5348,15548,-70,-583,934,-28000,5000,201000,246622,
-1052,-5388,15300,70,-500,931,-28000,5000,201000,246624,
-872,-5184,15344,-66,-481,884,-28000,5000,201000,246636,
-944,-5304,15440,42,-406,849,-28000,5000,201000,246639,
-740,-5108,15444,-46,-433,870,-27000,5000,201000,246641,
-952,-5148,15428,-47,-319,747,-27000,5000,201000,246653,
-952,-5096,15308,-46,-313,749,-27000,5000,201000,246656,
-924,-5124,15268,-35,-256,741,-27000,5000,201000,246658,
-1124,-5108,15316,-41,-209,684,-27000,5000,201000,246670,
-1052,-5012,15144,-167,-236,677,-27000,5000,201000,246672,
-1156,-5032,15192,-59,-191,661,-27000,5000,201000,246675,
-996,-4944,14964,-183,-126,601,-27000,5000,201000,246687,
-900,-4940,15176,-61,-44,604,-27000,5000,201000,246689,
-844,-4836,14960,-176,-109,598,-27000,5000,201000,246692,
-1136,-4804,14984,-150,-1,604,-27000,5000,201000,246704,
-1056,-4748,14856,-243,56,648,-27000,5000,201000,246706,
-1112,-4716,14912,-173,63,602,-27000,5000,201000,246709,
-1028,-4612,15032,-292,264,534,-27000,6000,201000,246721,
-980,-4692,15056,-438,237,510,-27000,6000,201000,246723,
-920,-4620,14928,-363,299,502,-27000,6000,201000,246726,
-1136,-4748,14972,-589,297,471,-27000,6000,201000,246738,
-1180,-4804,14964,-465,317,435,-27000,6000,201000,246740,
-1232,-4724,14968,-624,296,440,-27000,6000,201000,246743,
-1060,-4524,14912,-707,270,342,-27000,6000,202000,246755,
-1080,-4572,14968,-715,227,348,-27000,6000,202000,246757,
-992,-4684,14892,-724,240,331,-27000,6000,202000,246760,
-1360,-4664,14884,-756,224,281,-27000,6000,202000,246772,
-1288,-4632,15024,-910,112,218,-27000,6000,202000,246774,
-1392,-4736,15000,-757,158,234,-27000,6000,202000,246777,
-1288,-4712,15084,-928,-47,224,-27000,6000,202000,246789,
-1188,-4608,15088,-865,6,272,-27000,6000,202000,246791,
-1188,-4748,15048,-967,-8,235,-27000,6000,202000,246794,
-1184,-4776,15120,-990,16,207,-27000,6000,202000,246806,
-1264,-4784,15308,-942,114,233,-27000,6000,202000,246808,
-1308,-4800,15208,-974,57,186,-27000,6000,202000,246811,
-1028,-4880,15132,-904,291,248,-27000,6000,202000,246823,
-992,-4808,15172,-994,267,272,-27000,6000,202000,246826,
-968,-4860,15192,-872,335,261,-27000,6000,202000,246828,
-1240,-5020,15368,-889,485,324,-27000,6000,202000,246840,
-1188,-5012,15336,-964,427,284,-27000,6000,202000,246842,
-1224,-4992,15256,-896,481,331,-27000,6000,202000,246845,
-1244,-5076,15308,-964,458,333,-27000,6000,202000,246857,
-1172,-4988,15348,-847,509,349,-27000,6000,202000,246860,
-1184,-5028,15312,-970,434,337,-27000,6000,202000,246862,
-1396,-5200,15340,-921,421,360,-27000,6000,202000,246874,
-1432,-5132,15436,-951,426,391,-27000,6000,202000,246876,
-1332,-5192,15296,-921,428,341,-27000,6000,202000,246879,
-1224,-5224,15348,-927,390,391,-27000,6000,202000,246891,
-1164,-5160,15380,-1055,350,376,-27000,6000,202000,246893,
-1132,-5212,15328,-963,393,380,-27000,6000,202000,246896,
-1436,-5340,15332,-1107,311,404,-27000,6000,202000,246908,
-1356,-5316,15440,-1044,342,381,-27000,6000,202000,246910,
-1392,-5400,15636,-1135,280,388,-27000,6000,202000,246912,
-1240,-5388,15468,-1120,160,370,-28000,6000,202000,246925,
-1164,-5316,15496,-1107,183,384,-28000,6000,202000,246927,
-1244,-5492,15644,-1140,134,373,-28000,6000,202000,246929,
-1344,-5564,15580,-1054,126,407,-28000,6000,202000,246942,
-1356,-5536,15512,-1177,-1,396,-28000,6000,202000,246944,
-1252,-5608,15544,-1039,65,411,-28000,6000,202000,246946,
-1220,-5572,15620,-1127,-18,415,-28000,6000,202000,246959,
-1368,-6376,16388,154,-1197,1720,-27000,6000,204000,247108,
-1172,-6420,16540,2,-1283,1747,-27000,6000,204000,247110,
-1392,-6376,16456,193,-1273,1801,-27000,6000,204000,247113,
-996,-6344,16596,182,-1457,1834,-27000,5000,205000,247125,
-996,-6152,16544,266,-1459,1861,-27000,5000,205000,247127,
-960,-6308,16740,234,-1508,1837,-27000,5000,205000,247130,
-1112,-6080,16740,348,-1704,1867,-26000,5000,205000,247142,
-1104,-6120,16676,444,-1697,1885,-26000,5000,205000,247144,
-1124,-6060,16712,425,-1779,1881,-26000,5000,205000,247147,
-796,-6012,16680,699,-1845,1922,-26000,5000,205000,247159,
-696,-6000,16644,572,-1939,1880,-26000,5000,205000,247161,
-696,-5996,16780,730,-1892,1938,-26000,5000,205000,247163,
-756,-5972,16652,821,-2005,1829,-26000,5000,206000,247176,
-752,-5920,16672,885,-1997,1779,-26000,5000,206000,247178,
-904,-5984,16880,826,-2027,1805,-26000,5000,206000,247180,
-604,-5800,16764,941,-2092,1734,-26000,5000,206000,247193,
-556,-5776,16656,978,-2075,1728,-26000,5000,206000,247195,
-656,-5776,16764,985,-2093,1685,-26000,5000,206000,247197,
-920,-5884,17056,1088,-2181,1615,-26000,5000,206000,247210,
-940,-5800,16992,938,-2231,1591,-26000,5000,206000,247212,
-1004,-5916,17084,1085,-2200,1577,-26000,5000,206000,247214,
-864,-5864,17344,970,-2495,1540,-25000,5000,207000,247227,
-12,-5536,17160,2882,-1918,1865,-23000,4000,208000,247310,
16,-5488,17312,2914,-1905,1791,-23000,4000,208000,247313,
44,-5472,17220,2940,-1864,1880,-23000,4000,208000,247315,
-88,-5360,17340,3026,-1907,1903,-23000,4000,209000,247327,
-180,-5408,17324,3182,-1842,1940,-23000,4000,209000,247330,
-180,-5336,17432,3068,-1901,1899,-23000,3000,209000,247332,
-128,-5176,17372,3201,-1838,1840,-22000,3000,209000,247345,
136,-4992,17476,3081,-1867,1836,-22000,3000,209000,247347,
148,-5064,17200,3220,-1815,1853,-22000,3000,209000,247349,
72,-4852,17344,3156,-1864,1759,-22000,3000,209000,247361,
-20,-4940,17216,3150,-1906,1735,-22000,3000,209000,247364,
-64,-4800,17192,3163,-1888,1770,-22000,3000,209000,247366,
-160,-4604,17168,3183,-2081,1707,-21000,3000,210000,247378,
-140,-4500,17184,3268,-2054,1736,-21000,3000,210000,247380,
-32,-4496,17240,3176,-2185,1690,-21000,3000,210000,247383,
192,-4372,17428,3316,-2396,1593,-21000,3000,210000,247395,
60,-4352,17412,3175,-2501,1573,-21000,3000,210000,247397,
12,-4340,17652,3333,-2481,1595,-21000,3000,210000,247400,
196,-4292,17812,3323,-2667,1478,-20000,3000,210000,247412,
224,-4364,17836,3251,-2766,1421,-20000,2000,210000,247414,
200,-4360,18012,3274,-2742,1414,-20000,2000,210000,247417,
528,-4088,18084,3333,-2890,1228,-20000,2000,210000,247429,
652,-4044,18212,3478,-2788,1247,-20000,2000,210000,247431,
1504,-1884,17780,5243,-1705,-1032,-12000,0,210000,247583,
1500,-2000,17764,5342,-1667,-1108,-12000,0,210000,247585,
1444,-1980,17760,5308,-1592,-1095,-12000,0,210000,247588,
1292,-1724,17504,5324,-1340,-1287,-12000,0,210000,247600,
1300,-1680,17536,5448,-1255,-1278,-12000,0,210000,247602,
1392,-1564,17424,5363,-1241,-1300,-12000,0,210000,247605,
1508,-1336,17464,5500,-878,-1382,-11000,0,210000,247617,
1440,-1356,17312,5344,-865,-1409,-11000,0,210000,247619,
1340,-1232,17156,5469,-759,-1410,-11000,0,210000,247621,
1236,-1156,17324,5287,-474,-1527,-10000,0,209000,247634,
1188,-1100,17304,5339,-397,-1596,-10000,0,209000,247636,
1332,-1096,17324,5258,-348,-1602,-10000,0,209000,247638,
1468,-924,17096,5228,41,-1819,-9000,0,209000,247651,
1404,-960,17172,5273,166,-1808,-9000,0,209000,247653,
1280,-1052,17144,5232,140,-1861,-9000,0,209000,247655,
1156,-912,17192,5235,216,-1840,-9000,0,209000,247657,
1120,-872,17012,5214,366,-1957,-9000,0,209000,247670,
1084,-756,16988,5340,422,-1960,-9000,0,209000,247672,
1100,-832,17052,5256,375,-2052,-8000,0,209000,247674,
996,-608,16888,5483,347,-2132,-8000,0,209000,247687,
844,-524,16956,5399,312,-2166,-8000,0,209000,247689,
1624,1408,15472,5837,502,-3637,-3000,-1000,206000,247790,
1616,1464,15524,5751,537,-3622,-2000,-1000,206000,247792,
1516,1464,15396,5764,531,-3717,-2000,-1000,206000,247795,
1616,1844,15432,5701,733,-3942,-2000,0,205000,247807,
1760,1908,15424,5509,685,-4018,-2000,0,205000,247809,
1920,1908,15348,5632,821,-4030,-1000,0,205000,247812,
1872,1908,15316,5443,817,-4148,-1000,0,205000,247814,
1848,2200,15424,5303,1142,-4471,-1000,0,205000,247826,
1700,2148,15272,5109,1108,-4560,-1000,0,205000,247829,
1816,2252,15320,5175,1201,-4625,-1000,0,204000,247831,
1656,2196,15240,4773,1318,-5014,0,0,204000,247843,
1776,2176,15300,4755,1320,-5177,0,0,204000,247846,
1664,2196,15268,4692,1328,-5151,0,0,204000,247848,
1464,2232,15308,4693,1352,-5274,0,0,204000,247850,
1236,2244,15272,4542,1245,-5538,0,0,203000,247863,
1256,2336,15176,4454,1140,-5619,0,0,203000,247865,
1236,2332,15144,4525,1143,-5596,0,0,203000,247867,
1352,2316,15212,4523,852,-5742,0,0,202000,247880,
1360,2352,15112,4693,880,-5764,0,0,202000,247882,
1452,2368,15192,4526,767,-5805,1000,0,202000,247884,
1568,2412,15100,4715,816,-5802,1000,0,202000,247886,
2124,2712,15080,4601,987,-5984,1000,0,202000,247899,
2240,2796,15128,4686,1085,-6032,1000,0,201000,247901,
2312,2856,15020,4543,1161,-6033,1000,0,201000,247903,
2644,3044,15032,4443,1746,-6315,2000,0,201000,247916,
2616,3020,14920,4477,1890,-6310,2000,0,201000,247918,
2664,3208,15016,4403,1935,-6405,2000,0,201000,247920,
2584,3116,15040,4365,2068,-6408,2000,0,200000,247922,
2504,3028,15136,4075,2667,-6815,2000,0,200000,247935,
2560,2992,14988,4167,2803,-6895,3000,0,200000,247937,
2360,2876,15032,3988,2809,-6973,3000,0,200000,247939,
1364,2344,15296,4031,2724,-7430,3000,0,199000,247952,
1300,2332,15084,3986,2653,-7427,3000,0,199000,247954,
1188,2304,15184,4074,2592,-7574,3000,0,199000,247956,
1068,1856,15496,4306,1948,-7974,4000,0,198000,247969,
1044,1948,15572,4318,1755,-8097,4000,0,198000,247971,
992,1964,15436,4405,1639,-8105,4000,0,198000,247973,
860,1904,15392,4411,1372,-8227,4000,0,197000,247975,
1308,2048,15280,4787,883,-8479,4000,0,197000,247988,
1592,2108,15184,4695,726,-8581,4000,0,197000,247990,
1884,2324,15324,4866,707,-8564,4000,0,196000,247992,
3012,2932,14776,5182,1006,-8795,5000,0,196000,248004,
3416,3096,14752,5379,1205,-8811,5000,0,195000,248007,
3596,3160,14528,5284,1346,-8864,5000,1000,195000,248009,
4264,3276,13992,5568,2778,-9298,6000,1000,194000,248021,
48,2572,14096,4389,4186,-11066,7000,3000,190000,248073,
64,2604,14044,4369,4023,-11035,7000,3000,190000,248075,
-24,2628,14004,4293,3801,-11190,8000,3000,190000,248078,
-460,2672,13760,3864,2639,-11741,8000,3000,189000,248090,
-548,2596,13992,3829,2440,-11898,8000,4000,189000,248092,
-796,2588,13800,3745,2115,-12016,8000,4000,188000,248095,
-1428,2776,13412,3548,855,-12482,8000,4000,187000,248107,
-1584,2776,13312,3363,488,-12513,8000,4000,187000,248109,
-1656,3000,13480,3437,283,-12470,8000,4000,187000,248112,
-2308,3696,13548,2817,-1364,-12410,9000,4000,186000,248124,
-2168,3692,13584,2767,-1645,-12499,9000,4000,185000,248126,
-2396,3776,13708,2548,-1916,-12393,9000,4000,185000,248129,
-1960,3860,13864,1704,-3168,-12926,9000,4000,184000,248141,
-2060,3748,14048,1621,-3250,-12939,9000,4000,184000,248143,
-1836,3688,14080,1380,-3458,-13161,9000,4000,183000,248146,
-1860,3276,14144,649,-3870,-13587,9000,4000,182000,248158,
-1960,3244,14352,354,-4003,-13632,9000,4000,182000,248160,
-2136,3036,14404,427,-3976,-13641,9000,4000,182000,248163,
-2060,2792,14256,-157,-4023,-13589,9000,4000,180000,248175,
-2020,2712,14092,-141,-3989,-13618,9000,4000,180000,248177,
-1972,2908,14236,-295,-3949,-13593,9000,4000,180000,248180,
-2016,2808,14184,-404,-3734,-13497,8000,3000,178000,248192,
-2720,3540,13280,-543,2139,-681,8000,8000,178000,248420,
-2640,3564,13220,-610,2100,-698,8000,8000,178000,248423,
-2768,3692,13088,-599,2067,-644,8000,8000,178000,248425,
-3176,4024,13308,-950,1619,-685,8000,8000,178000,248438,
-3228,4012,13368,-918,1598,-634,8000,8000,178000,248440,
-3304,4100,13340,-1092,1409,-698,8000,8000,178000,248442,
-3204,4320,14144,-1381,655,-859,8000,9000,178000,248454,
-3184,4352,14036,-1567,438,-928,8000,9000,178000,248457,
-3192,4360,14032,-1552,331,-941,8000,9000,178000,248459,
-3308,4136,14832,-2145,-484,-1148,8000,9000,178000,248471,
-3396,4124,14868,-2116,-593,-1235,8000,9000,178000,248473,
-3392,3964,14868,-2302,-713,-1254,8000,9000,178000,248476,
-3260,3952,14824,-2285,-1520,-1334,7000,8000,177000,248488,
-3056,3972,14936,-2244,-1555,-1245,7000,8000,177000,248490,
-2984,3916,14792,-2263,-1654,-1280,7000,8000,177000,248493,
-2456,4084,15188,-2122,-1818,-1112,7000,8000,177000,248505,
-2376,4096,15188,-2252,-1868,-1139,7000,8000,177000,248507,
-2540,3992,15260,-2134,-1779,-1058,7000,8000,177000,248510,
-2324,3968,15916,-2169,-1622,-941,7000,8000,177000,248522,
-2092,3948,15996,-2130,-1574,-950,7000,8000,177000,248524,
-2228,4008,16056,-2172,-1498,-867,7000,8000,177000,248527,
-1952,3940,16464,-2108,-1016,-703,7000,8000,177000,248539,
-2092,3884,16300,-2006,-852,-615,7000,8000,177000,248541,
-2232,3856,16408,-2063,-792,-568,7000,8000,177000,248543,
-2296,3656,16540,-1889,-147,-406,7000,8000,177000,248556,
-2292,3724,16444,-1913,-78,-375,6000,8000,177000,248558,
-2156,3652,16524,-1738,12,-325,6000,8000,177000,248560,
-2096,3580,16644,-1488,307,61,6000,8000,177000,248573,
-2120,3628,16736,-1519,366,100,6000,8000,177000,248575,
-2084,3708,16716,-1454,483,216,6000,8000,177000,248577,
-1652,3568,16884,-1306,972,321,6000,8000,177000,248590,
-1776,3592,16724,-1142,1107,307,6000,8000,177000,248592,
-1764,3580,16776,-1229,1150,277,6000,8000,177000,248594,
-1904,3368,16776,-999,1557,328,6000,8000,177000,248607,
-1724,3480,16624,-1020,1608,361,6000,8000,177000,248609,
-1832,3360,16680,-967,1642,358,6000,8000,177000,248611,
-1884,3280,16572,-696,1882,375,6000,8000,177000,248624,
-1912,3436,16384,-778,1858,369,6000,8000,177000,248626,
-2204,3124,16020,-421,485,-153,6000,9000,177000,248749,
-2268,3188,16080,-548,428,-151,6000,9000,177000,248751,
-2208,3196,16140,-440,531,-120,6000,9000,177000,248753,
-2056,3160,16092,-508,643,-174,6000,9000,177000,248766,
-2032,3208,15984,-380,714,-215,6000,9000,177000,248768,
-2204,3100,16024,-510,702,-207,6000,9000,177000,248770,
-2424,3076,15836,-440,723,-163,6000,9000,177000,248783,
-2528,3096,16076,-461,705,-108,6000,9000,177000,248785,
-2372,3140,15932,-420,650,-86,6000,9000,177000,248787,
-2268,3356,15840,-378,594,110,6000,9000,177000,248800,
-2204,3328,15904,-462,534,45,6000,9000,177000,248802,
-2204,3412,15892,-388,607,92,6000,9000,177000,248804,
-2160,3376,15884,-469,564,42,6000,9000,177000,248806,
-2540,3544,15604,-371,166,-119,5000,11000,176000,249702,
-2656,3356,15664,-482,179,-238,5000,11000,176000,249715,
-2864,3288,15644,-378,196,-246,5000,11000,176000,249717,
-2880,3232,15692,-469,145,-267,5000,11000,176000,249719,
-2700,3456,15508,-386,150,-154,5000,11000,176000,249732,
-2660,3372,15764,-404,149,-118,5000,11000,176000,249734,
-2744,3260,15672,-345,162,-158,5000,11000,176000,249736,
-3004,3420,15444,-248,38,-213,5000,11000,176000,249749,
-2912,3476,15696,-396,-35,-230,5000,11000,176000,249751,
-3068,3540,15664,-302,-24,-206,5000,11000,176000,249753,
-2848,3496,15800,-438,-191,-206,5000,11000,176000,249766,
-2740,3452,15796,-339,-165,-219,5000,11000,176000,249768,
-2760,3444,15568,-460,-220,-225,5000,11000,176000,249770,
-2548,3356,15624,-366,-21,-306,5000,11000,176000,249783,
-2492,3292,15488,-401,26,-230,5000,11000,176000,249785,
-2600,3244,15588,-313,84,-233,5000,11000,176000,249787,
-2244,3396,15576,-265,481,-66,5000,11000,176000,249800,
-2184,3488,15528,-317,499,-80,5000,11000,176000,249802,
-2080,3452,15376,-252,616,-59,5000,11000,176000,249804,
-2464,3628,15616,-317,857,-63,5000,11000,176000,249817,
-2524,3516,15556,-220,941,-58,5000,11000,176000,249819,
-2580,3580,15488,-347,902,-72,5000,11000,176000,249821,
-2976,3460,15524,-327,797,-207,5000,11000,176000,249834,
-3056,3548,15512,-357,733,-177,5000,11000,176000,249836,
-2968,3572,15612,-333,708,-234,5000,11000,176000,249838,
-3128,3472,15416,-327,384,-214,5000,11000,176000,249850,
-3100,3476,15432,-450,251,-261,5000,11000,176000,249853,
-3212,3444,15408,-325,229,-227,5000,11000,176000,249855,
-3076,3588,15404,-490,-164,-213,5000,11000,176000,249867,
-3084,3512,15364,-344,-172,-238,5000,11000,176000,249870,
-2888,3652,15488,-518,-244,-237,5000,11000,176000,249872,
-2864,3536,15380,-469,-352,-304,5000,11000,176000,249884,
-2696,3544,15512,-535,-367,-316,5000,11000,176000,249887,
-2744,3564,15564,-430,-348,-323,5000,11000,176000,249889,
-2884,3488,15640,-467,-342,-288,5000,11000,176000,249901,
-2884,3536,15716,-525,-410,-303,5000,11000,176000,249904,
-3028,3576,15624,-485,-356,-262,5000,11000,176000,249906,
-2812,3520,15812,-584,-386,-305,5000,11000,176000,249918,
-2712,3472,15720,-429,-340,-334,5000,11000,176000,249921,
-2856,3480,15940,-575,-443,-366,5000,11000,176000,249923,
-3252,3264,15756,-414,-476,-389,5000,11000,176000,249935,
-3088,3384,15832,-389,-431,-322,5000,11000,176000,249937,
-3200,3248,15616,-352,-509,-363,5000,11000,176000,249940,
-2988,3612,15624,-218,-509,-136,5000,11000,176000,249952,
-2864,3560,15664,-345,-585,-150,5000,11000,176000,249954,
-2872,3776,15508,-253,-517,-100,5000,11000,176000,249957,
-3192,3592,15632,-446,-709,-282,5000,11000,176000,249969,
-3328,3516,15604,-330,-712,-312,5000,11000,176000,249971,
-3320,3628,15740,-448,-847,-368,5000,11000,176000,249973,
-3744,3444,15744,-509,-1371,-458,5000,11000,176000,249986,
-3612,3456,15804,-647,-1508,-456,5000,11000,176000,249988,
-3684,3348,15788,-533,-1630,-497,5000,11000,176000,249990,
-3664,3440,15944,-684,-2430,-534,5000,10000,176000,250003,
-3744,3356,16008,-732,-2614,-597,5000,10000,176000,250005,
-3656,3532,15788,-745,-2658,-545,5000,10000,176000,250007,
-3396,3488,16176,-983,-3254,-763,5000,10000,176000,250019,
-3528,3540,16032,-869,-3258,-801,5000,10000,176000,250022,
-3416,3408,16320,-1022,-3407,-840,5000,10000,176000,250024,
-3116,3344,16340,-932,-3605,-890,5000,10000,176000,250036,
-3188,3096,16288,-978,-3631,-858,5000,10000,176000,250039,
-3064,3160,16268,-882,-3603,-845,5000,10000,176000,250041,
-2904,2884,16184,-680,-3359,-632,5000,9000,176000,250053,
-2712,2888,16244,-700,-3349,-634,5000,9000,176000,250055,
-2840,2892,16296,-576,-3245,-563,5000,9000,176000,250058,
-3216,3188,16348,-104,-864,269,5000,9000,176000,250111,
-3040,3296,16352,39,-704,300,5000,9000,176000,250113,
-3108,3312,16304,-119,-711,282,5000,9000,176000,250115,
-3564,3300,16028,5,-435,368,5000,9000,176000,250128,
-3604,3324,16044,-42,-409,455,5000,9000,176000,250130,
-3772,3324,15952,-6,-407,434,5000,9000,176000,250132,
-3792,3408,16104,-49,-414,518,5000,9000,176000,250135,
-3912,3272,15812,-3,-541,585,5000,9000,176000,250147,
-3940,3292,15672,106,-533,639,5000,9000,176000,250149,
-4012,3288,15760,85,-596,588,5000,9000,176000,250151,
-4340,3472,15596,207,-651,921,5000,9000,176000,250164,
-4280,3340,15596,49,-719,949,5000,9000,176000,250166,
-4212,3400,15644,163,-668,1003,5000,9000,176000,250168,
-4300,3396,15552,-4,-666,1092,5000,9000,176000,250181,
-4220,3376,15640,52,-628,1096,5000,9000,176000,250183,
-4336,3420,15592,-8,-650,1155,5000,9000,176000,250185,
-4604,3348,15364,-21,-696,1453,5000,9000,176000,250198,
-4868,3384,15288,39,-657,1516,5000,9000,176000,250200,
-4796,3444,15296,-21,-721,1576,5000,9000,176000,250202,
-4844,3308,15084,141,-595,1980,5000,9000,176000,250214,
-4816,3308,14980,1,-698,2068,5000,9000,177000,250217,
-4732,3424,14952,148,-584,2163,5000,9000,177000,250219,
-4040,3964,15392,-1661,1500,6705,5000,10000,186000,250391,
-4256,3944,15428,-1666,1470,6798,5000,10000,186000,250393,
-4216,3964,15548,-1678,1408,6903,5000,10000,186000,250395,
-3496,3980,15560,-1506,1254,7186,6000,10000,187000,250408,
-3560,3880,15396,-1560,1200,7180,6000,10000,187000,250410,
-3496,3848,15516,-1430,1258,7219,6000,10000,187000,250412,
-3364,3572,15340,-1338,1252,7271,6000,10000,188000,250425,
-3404,3576,15280,-1160,1303,7318,6000,10000,188000,250427,
-3264,3604,15252,-1250,1248,7302,6000,10000,188000,250429,
-3196,3496,15124,-1113,1270,7549,6000,10000,189000,250442,
-2952,3528,14912,-1079,1309,7614,6000,10000,189000,250444,
-2912,3512,14952,-1122,1309,7573,6000,10000,189000,250446,
-2716,3572,14796,-1098,1365,7610,6000,10000,190000,250459,
-2784,3532,14660,-1308,1352,7580,6000,10000,190000,250461,
-2760,3560,14528,-1183,1430,7622,6000,10000,190000,250463,
-2404,3288,14140,-1514,1557,7640,6000,10000,191000,250476,
-2292,3216,14128,-1438,1628,7647,6000,10000,191000,250478,
-2284,3104,13960,-1548,1644,7653,6000,10000,191000,250480,
-2176,2884,13616,-1666,1896,7770,6000,11000,192000,250493,
-2216,2840,13356,-1630,1969,7849,6000,11000,192000,250495,
-2120,2772,13432,-1689,1958,7850,6000,11000,192000,250497,
-2024,2488,12772,-1684,2445,8094,6000,11000,193000,250510,
-1768,2524,12716,-1808,2385,8102,6000,11000,193000,250512,
-1744,2504,12576,-1722,2441,8117,6000,11000,193000,250514,
-1796,2288,12212,-1942,2594,8316,6000,11000,194000,250526,
-1904,2312,12012,-1903,2665,8366,6000,11000,194000,250529,
-1960,2300,11948,-2008,2631,8409,6000,11000,194000,250531,
-1676,2224,11556,-2255,2640,8600,6000,11000,195000,250543,
-1708,2272,11556,-2235,2667,8674,6000,11000,195000,250546,
-1612,2180,11404,-2394,2623,8634,6000,11000,196000,250548,
-1612,2384,11112,-2668,2436,8750,6000,11000,196000,250560,
-1668,2376,11220,-2918,2272,8814,6000,11000,197000,250563,
-1680,2384,11268,-2863,2221,8855,6000,11000,197000,250565,
-1796,2100,11376,-3530,1607,8825,6000,11000,198000,250577,
-1552,2084,11392,-3598,1467,8823,6000,11000,198000,250579,
-1440,2052,11400,-3727,1275,8799,6000,11000,198000,250582,
-832,1936,11400,-4189,703,8796,5000,11000,199000,250594,
-908,1924,11456,-4188,712,8818,5000,11000,199000,250596,
-844,2012,11572,-4348,583,8819,5000,11000,199000,250598,
-356,2144,11344,-4647,179,8794,5000,11000,200000,250611,
-212,2184,11236,-4859,-9,8744,5000,11000,200000,250613,
-176,2228,11284,-4782,1,8754,5000,11000,200000,250615,
364,2148,11776,-5254,-657,8602,5000,11000,201000,250628,
404,2064,11636,-5222,-743,8619,5000,11000,201000,250630,
528,2136,11748,-5386,-869,8638,5000,11000,201000,250632,
1192,1796,11988,-5760,-1024,8485,4000,10000,202000,250645,
1192,1852,12024,-5774,-1006,8423,4000,10000,202000,250647,
1328,1728,11968,-5893,-1149,8360,4000,10000,202000,250649,
1688,1804,12448,-6106,-1196,8151,4000,10000,203000,250661,
2208,1688,12764,-6305,-1185,8093,4000,10000,203000,250664,
2252,1624,12520,-6211,-1073,8051,4000,10000,204000,250666,
3104,1516,12612,-6516,-878,7505,3000,10000,204000,250678,
3028,1584,12828,-6409,-805,7502,3000,10000,204000,250681,
3120,1660,12784,-6590,-786,7440,3000,10000,205000,250683,
3484,2080,13108,-6809,-343,7376,2000,9000,205000,250695,
3564,2052,13228,-6916,-340,7342,2000,9000,205000,250697,
3608,2100,13324,-6971,-304,7247,2000,9000,205000,250700,
3784,2268,14396,-7530,-297,6651,2000,9000,206000,250712,
3784,2184,14608,-7724,-360,6519,2000,9000,206000,250714,
3816,1976,14508,-7744,-348,6375,1000,9000,206000,250716,
4020,1560,15832,-8340,-634,5417,1000,9000,207000,250729,
4128,1456,16004,-8278,-589,5328,1000,9000,207000,250731,
4268,1256,16212,-8502,-680,5134,1000,9000,207000,250733,
5168,596,16800,-8712,-91,4261,0,9000,207000,250746,
5184,556,17004,-8714,-55,4065,0,9000,208000,250748,
4128,-1036,17544,-5889,8400,495,-4000,14000,208000,250849,
3800,-1116,17668,-5925,8286,264,-4000,14000,208000,250852,
3716,-1172,17644,-5977,8097,122,-4000,14000,208000,250854,
2908,-1216,18216,-6344,6636,-917,-5000,15000,208000,250867,
2572,-1068,18608,-6282,6322,-1043,-5000,15000,208000,250869,
2516,-1176,18668,-6484,5887,-1212,-5000,15000,207000,250871,
2272,-1324,19520,-6804,3705,-2308,-6000,15000,207000,250884,
2272,-1400,19684,-6935,3286,-2525,-6000,15000,207000,250886,
2352,-1468,19752,-6909,2907,-2795,-6000,15000,207000,250888,
2768,-1912,20364,-7100,1040,-3981,-7000,15000,207000,250900,
2880,-2092,20584,-7162,741,-4250,-7000,15000,207000,250903,
2836,-2160,20652,-7048,546,-4404,-7000,15000,207000,250905,
3180,-2816,20956,-6685,-745,-5345,-8000,15000,206000,250917,
3284,-3016,21180,-6440,-820,-5462,-8000,15000,206000,250920,
3488,-3056,21100,-6405,-1037,-5645,-8000,15000,206000,250922,
3688,-3304,21532,-5459,-1367,-6271,-9000,14000,205000,250934,
3708,-3272,21544,-5409,-1382,-6377,-9000,14000,205000,250937,
3640,-3512,22080,-4634,-1179,-6971,-10000,14000,204000,250949,
3536,-3536,22144,-4460,-1094,-7007,-10000,14000,204000,250951,
3668,-3604,22176,-4343,-1090,-7170,-10000,14000,204000,250953,
3672,-3800,22164,-3443,-370,-7705,-10000,13000,204000,250966,
3680,-3896,22272,-3441,-316,-7770,-10000,13000,203000,250968,
3676,-3952,22160,-3147,-102,-7825,-10000,13000,203000,250970,
-904,-4928,17460,2756,3263,-9994,-11000,14000,194000,251088,
-832,-4680,17412,2924,3282,-10028,-11000,14000,193000,251091,
-940,-4740,17252,2855,3221,-10024,-11000,14000,193000,251093,
-1496,-4640,16660,3041,3393,-10094,-11000,14000,192000,251106,
-1620,-4656,16604,3024,3469,-10018,-11000,14000,192000,251108,
-1504,-4532,16432,3083,3515,-10097,-11000,14000,192000,251110,
-1796,-4332,15772,3136,4023,-9960,-11000,14000,191000,251123,
-1860,-4332,15540,2977,4029,-9970,-11000,14000,190000,251125,
-2044,-4324,15516,3124,4190,-9874,-11000,14000,190000,251127,
-2256,-3992,14996,2976,4710,-9590,-11000,14000,189000,251139,
-2520,-4020,14728,3106,4843,-9561,-11000,14000,189000,251142,
-2892,-3712,14308,2925,5190,-9314,-11000,15000,188000,251154,
-3168,-3624,14364,2933,5265,-9317,-11000,15000,188000,251156,
-3128,-3576,14280,2873,5333,-9229,-11000,15000,188000,251159,
-3656,-3328,13864,2690,5670,-9067,-11000,15000,187000,251171,
-3680,-3260,13940,2834,5793,-9002,-11000,15000,187000,251173,
-3868,-3244,13904,2665,5797,-9028,-11000,15000,186000,251176,
-4340,-3028,13600,2703,6155,-9003,-11000,16000,185000,251188,
-4504,-3140,13432,2601,6106,-8943,-11000,16000,185000,251190,
-4332,-2972,13212,2743,6159,-9010,-11000,16000,185000,251193,
-4564,-2808,12956,2638,6408,-8956,-11000,16000,184000,251205,
-4668,-2656,12824,2600,6433,-8991,-11000,16000,184000,251207,
-5664,-2580,12732,2337,6610,-8905,-11000,17000,183000,251220,
-5916,-2560,12756,2119,6448,-8930,-11000,17000,183000,251222,
-6096,-2576,12772,2217,6443,-8944,-11000,17000,182000,251224,
-7496,-2268,12912,1712,5339,-9114,-11000,17000,181000,251237,
-7588,-2208,12980,1762,5192,-9189,-11000,17000,181000,251239,
-7724,-2128,12820,1634,4945,-9158,-11000,17000,181000,251241,
-8480,-2208,12860,1341,3449,-9311,-11000,18000,180000,251254,
-8656,-2064,12680,1096,3174,-9210,-11000,18000,180000,251256,
-8144,-1668,12564,1016,3151,-9188,-11000,18000,180000,251258,
-8336,-1848,12708,1097,1780,-9125,-11000,18000,179000,251271,
-8460,-1752,12764,911,1537,-9042,-11000,18000,179000,251273,
-7416,-1740,12472,618,1360,-8455,-12000,18000,178000,251285,
-7048,-1796,12580,485,1373,-8342,-12000,18000,178000,251288,
-7072,-1960,12412,493,1470,-8298,-12000,18000,178000,251290,
-6164,-1960,12164,229,2486,-7675,-12000,18000,177000,251302,
-6300,-1772,11968,89,2667,-7558,-12000,18000,177000,251305,
-6124,-1816,12164,137,2913,-7407,-12000,18000,176000,251307,
-6356,-1440,12012,-199,3989,-6785,-12000,18000,176000,251319,
-8544,-1536,11488,-1192,2812,-6783,-14000,19000,172000,251377,
-8584,-1580,11372,-1345,2635,-6801,-14000,19000,172000,251379,
-8760,-1592,11284,-1267,2527,-6793,-14000,19000,172000,251381,
-9232,-1380,11372,-1630,1830,-6603,-14000,20000,171000,251394,
-9264,-1428,11360,-1658,1690,-6606,-14000,20000,171000,251396,
-9204,-1468,11352,-1792,1632,-6506,-14000,20000,171000,251398,
-9308,-1508,11512,-2262,1094,-6447,-15000,20000,170000,251411,
-9332,-1588,11480,-2286,1129,-6343,-15000,20000,170000,251413,
-9228,-1692,11224,-2753,1050,-5938,-15000,20000,170000,251426,
-9264,-1548,11220,-2718,1134,-5808,-15000,20000,170000,251428,
-9100,-1452,11040,-2958,1097,-5701,-15000,20000,170000,251430,
-8508,-1468,10804,-3400,2039,-5318,-16000,20000,169000,251442,
-8448,-1508,10912,-3565,2241,-5207,-16000,20000,169000,251445,
-8704,-1512,10824,-3588,2528,-5242,-16000,20000,169000,251447,
-9568,-1172,10936,-4200,3533,-4730,-17000,20000,168000,251459,
-10072,-1264,11144,-4370,3695,-4643,-17000,20000,168000,251462,
-11092,-1440,11212,-4849,4145,-4047,-17000,21000,168000,251474,
-11192,-1452,11320,-5096,4013,-3980,-17000,21000,168000,251476,
-11248,-1236,11544,-5034,4040,-3862,-18000,21000,167000,251479,
-12568,-1292,12084,-5693,3349,-3096,-18000,21000,167000,251491,
-12676,-1284,11976,-5732,3178,-3043,-18000,21000,167000,251493,
-13068,-1548,12228,-5850,3026,-2885,-18000,21000,167000,251496,
-7796,-7380,17244,-7962,-4218,5027,-30000,18000,180000,251760,
-7760,-7332,17340,-7925,-4263,5022,-30000,18000,180000,251762,
-7472,-7404,17224,-7843,-4141,4982,-30000,18000,180000,251764,
-7604,-7328,17232,-7440,-4258,4907,-31000,18000,181000,251777,
-7572,-7220,17596,-7223,-4245,4977,-31000,18000,181000,251779,
-7800,-7224,17540,-7312,-4344,5028,-31000,18000,181000,251781,
-8144,-7340,17960,-6991,-4714,5122,-31000,18000,182000,251794,
-7964,-7516,18048,-6929,-4746,5107,-32000,18000,182000,251796,
-8200,-8112,18428,-6511,-5225,4987,-32000,18000,183000,251809,
-8108,-8212,18364,-6299,-5228,5093,-32000,18000,183000,251811,
-8148,-8392,18448,-6328,-5340,5075,-32000,18000,183000,251813,
-7836,-8984,18020,-5471,-5511,5608,-32000,17000,184000,251826,
-7836,-9036,18040,-5447,-5574,5684,-32000,17000,184000,251828,
-7904,-8948,18172,-5176,-5547,5880,-32000,17000,184000,251830,
-7200,-8880,17824,-4539,-5430,6709,-32000,17000,185000,251843,
-6944,-8840,17948,-4402,-5383,6841,-33000,17000,185000,251845,
-6192,-8880,17724,-3759,-4891,7538,-33000,17000,186000,251857,
-6200,-8800,17744,-3755,-4807,7630,-33000,17000,186000,251860,
-6380,-8700,17544,-3590,-5036,7675,-33000,17000,187000,251862,
-5164,-8952,17432,-3287,-3983,8366,-33000,17000,187000,251874,
-5024,-9068,17292,-3081,-3844,8440,-33000,17000,188000,251877,
-4656,-8924,17308,-3136,-3751,8487,-33000,17000,188000,251879,
-4096,-8972,17032,-2688,-3026,8802,-32000,18000,189000,251892,
-1672,-8716,15952,-1646,-2059,8205,-32000,18000,192000,251938,
-1648,-8756,15820,-1579,-2021,8194,-32000,18000,192000,251940,
-1388,-8704,15596,-1532,-2023,8093,-32000,18000,192000,251943,
-1028,-8556,15200,-1154,-1825,7730,-32000,19000,193000,251955,
-676,-8460,15116,-1239,-1912,7615,-32000,19000,193000,251957,
-652,-8476,15084,-1073,-1796,7562,-32000,19000,193000,251960,
-272,-8208,14856,-1052,-1749,7158,-32000,19000,194000,251972,
-204,-8176,14712,-923,-1704,7070,-32000,19000,194000,251974,
-304,-8288,14800,-1025,-1729,6969,-32000,19000,194000,251977,
104,-7940,14560,-983,-1730,6449,-31000,19000,195000,251989,
500,-7844,14444,-941,-1683,6400,-31000,19000,195000,251991,
892,-7788,14244,-1073,-1705,5791,-31000,19000,195000,252004,
1120,-7744,14236,-947,-1638,5717,-31000,19000,196000,252006,
1096,-7768,14320,-1096,-1736,5579,-31000,19000,196000,252008,
1084,-7688,14328,-1148,-1625,4979,-31000,19000,196000,252021,
1128,-7780,14236,-1279,-1648,4829,-31000,19000,196000,252023,
1160,-7712,14028,-1197,-1630,4733,-31000,19000,196000,252025,
1060,-7408,14188,-1306,-1787,4122,-31000,19000,197000,252038,
1040,-7504,14228,-1366,-1898,3917,-31000,19000,197000,252040,
980,-7368,14200,-1335,-1866,3916,-31000,19000,197000,252042,
896,-7444,14340,-1503,-2120,3241,-31000,19000,197000,252054,
-156,-7324,14716,-1397,-2977,393,-31000,16000,199000,252139,
-228,-7264,14656,-1380,-3001,279,-31000,16000,199000,252142,
-296,-7308,14664,-1362,-2970,282,-31000,16000,199000,252144,
-740,-7316,14788,-1351,-2918,-14,-31000,16000,199000,252156,
-904,-7332,14816,-1201,-2864,-28,-31000,16000,199000,252159,
-904,-7268,14760,-1318,-2928,-80,-31000,16000,199000,252161,
-1116,-7244,14880,-1064,-2801,-233,-31000,15000,199000,252173,
-1264,-7400,14724,-1153,-2817,-287,-31000,15000,199000,252176,
-1408,-7224,14672,-993,-2765,-268,-31000,15000,199000,252178,
-1664,-7176,14736,-969,-2551,-227,-31000,15000,199000,252190,
-1596,-7120,14804,-972,-2569,-309,-31000,15000,199000,252193,
-1776,-6992,14832,-770,-2220,-335,-31000,15000,199000,252205,
-1584,-6944,15016,-887,-2236,-313,-31000,15000,199000,252207,
-1612,-7000,14944,-747,-2114,-321,-31000,15000,199000,252210,
-1768,-6816,15172,-846,-1730,-385,-31000,14000,200000,252222,
-1856,-6828,15260,-671,-1610,-377,-31000,14000,200000,252224,
-1904,-6848,15232,-837,-1607,-418,-31000,14000,200000,252226,
-2168,-6832,15320,-741,-1224,-670,-32000,14000,200000,252239,
-2096,-6860,15212,-710,-1131,-668,-32000,14000,200000,252241,
-2276,-6944,15364,-685,-1119,-761,-32000,14000,200000,252243,
-2944,-7004,15316,-349,-1032,-770,-32000,14000,200000,252256,
-3844,-6292,14980,510,256,-481,-31000,14000,199000,252380,
-4084,-6292,15160,645,339,-483,-31000,14000,199000,252382,
-4020,-6324,15088,514,308,-441,-31000,14000,199000,252384,
-4572,-6144,15076,445,175,-422,-30000,14000,199000,252397,
-4640,-6176,15140,495,169,-373,-30000,14000,199000,252399,
-4716,-6228,15160,414,46,-406,-30000,14000,199000,252401,
-4864,-6132,15036,419,-312,-469,-30000,14000,199000,252414,
-4900,-6112,15060,270,-491,-485,-30000,14000,199000,252416,
-4784,-6288,15140,425,-534,-473,-30000,14000,199000,252418,
-4872,-6428,14908,346,-1139,-391,-30000,14000,199000,252431,
-4736,-6380,14844,433,-1209,-388,-30000,14000,199000,252433,
-4816,-6340,14692,396,-1293,-321,-30000,14000,199000,252435,
-4520,-6012,14660,437,-1424,-105,-30000,14000,199000,252448,
-4344,-6024,14588,542,-1344,-29,-30000,14000,199000,252450,
-4104,-5996,14648,449,-1399,-36,-30000,14000,199000,252452,
-3952,-5836,14636,553,-1009,148,-30000,13000,199000,252465,
-3680,-5816,14700,412,-970,175,-30000,13000,199000,252467,
-3808,-5992,14616,570,-823,224,-30000,13000,199000,252469,
-3604,-5864,14744,403,-242,347,-30000,13000,199000,252482,
-3628,-6008,14628,396,-186,357,-30000,13000,199000,252484,
-3416,-5972,14600,412,-45,391,-30000,13000,199000,252486,
-3812,-5856,14632,396,213,373,-30000,13000,199000,252499,
-4064,-5948,14596,518,246,391,-30000,13000,200000,252501,
-4080,-5788,14616,383,157,378,-30000,13000,200000,252503,
-4036,-5464,14236,386,-405,473,-29000,13000,200000,252532,
-3920,-5312,14480,454,-402,497,-29000,13000,200000,252535,
-3848,-5464,14428,258,-522,479,-29000,13000,200000,252537,
-4012,-5376,14548,58,-759,362,-29000,13000,200000,252549,
-4072,-5376,14504,27,-808,423,-29000,13000,200000,252552,
-4048,-5348,14572,26,-875,354,-29000,13000,200000,252554,
-3836,-5560,14512,-61,-1076,368,-29000,13000,200000,252566,
-3916,-5492,14664,-162,-1219,325,-29000,13000,200000,252569,
-3880,-5404,14608,-63,-1181,357,-29000,13000,200000,252571,
-3860,-5316,14572,-223,-1610,412,-29000,13000,200000,252583,
-4088,-5368,14556,-104,-1661,369,-29000,13000,200000,252586,
-3968,-5344,14588,-252,-1770,402,-29000,13000,200000,252588,
-4392,-5196,14660,-221,-2474,240,-29000,13000,200000,252600,
-4316,-5256,14712,-270,-2603,348,-29000,13000,200000,252603,
-4356,-5332,14628,-243,-2821,295,-29000,13000,200000,252605,
-4136,-5316,14828,-329,-3676,336,-29000,13000,201000,252617,
-4068,-5252,14848,-467,-3925,278,-29000,13000,201000,252620,
-4072,-5244,14796,-415,-3975,272,-29000,12000,201000,252622,
-3816,-5224,14804,-676,-4726,158,-29000,12000,201000,252634,
-3616,-5252,14664,-569,-4834,145,-29000,12000,201000,252637,
-3676,-5312,14880,-695,-5023,134,-29000,12000,201000,252639,
-3872,-5252,14828,-761,-5796,99,-29000,11000,201000,252651,
-3804,-5276,14912,-773,-5878,133,-29000,11000,201000,252654,
-3132,-5252,15044,-934,-6513,70,-29000,11000,202000,252666,
-2816,-5236,15072,-792,-6517,87,-29000,11000,202000,252668,
-2932,-5264,15012,-1002,-6635,19,-29000,11000,202000,252671,
-2392,-5468,15144,-900,-6716,-42,-29000,10000,202000,252683,
-2356,-5472,15060,-1016,-6710,-42,-29000,10000,202000,252685,
-2256,-5532,15116,-863,-6681,-34,-29000,10000,202000,252688,
-1584,-5464,15088,-801,-6300,123,-29000,9000,203000,252700,
-1432,-5564,15192,-805,-6213,86,-29000,9000,203000,252702,
-1348,-5544,15160,-771,-6047,155,-29000,9000,203000,252704,
-1024,-5580,15064,-706,-5215,220,-29000,9000,203000,252717,
-1096,-5640,15180,-553,-4980,267,-29000,9000,203000,252719,
-960,-5532,15136,-659,-4854,261,-29000,9000,203000,252721,
-740,-5600,15288,-489,-3887,396,-28000,8000,203000,252734,
-748,-5484,15272,-606,-3764,415,-28000,8000,203000,252736,
-564,-5520,15384,-457,-3524,447,-28000,8000,203000,252738,
-812,-5596,15256,-565,-2746,553,-28000,8000,204000,252751,
-720,-5684,15256,-572,-2690,528,-28000,8000,204000,252753,
-900,-5716,15428,-578,-2065,549,-28000,8000,204000,252767,
-1048,-5888,15312,-501,-1950,611,-28000,8000,204000,252770,
-1036,-5824,15464,-562,-1954,538,-28000,8000,204000,252772,
