Ax,Ay,Az,Gx,Gy,Gz,Roll,Pitch,Yaw,Timestamp,Target
-4804,3588,15188,-292,370,-322,4000,19000,297000,897776,
-4988,3512,15008,-172,527,-286,4000,19000,297000,897788,
-5072,3540,14952,-300,451,-301,4000,19000,297000,897791,
-5052,3580,15016,-185,544,-275,4000,19000,297000,897793,
-4904,3556,14868,-360,416,-215,4000,19000,297000,897805,
-4980,3540,15048,-232,414,-208,4000,19000,297000,897808,
-4956,3468,14924,-327,383,-157,4000,19000,297000,897810,
-5092,3528,15104,-283,296,-172,4000,19000,297000,897822,
-5144,3480,15088,-347,244,-121,4000,19000,297000,897825,
-4956,3492,15040,-274,303,-184,4000,19000,297000,897827,
-4872,3428,15000,-391,271,-72,4000,19000,297000,897839,
-4876,3476,14992,-345,286,-114,4000,19000,297000,897842,
-4888,3356,15064,-390,262,-87,4000,19000,297000,897844,
-4852,3408,14932,-418,353,-115,4000,19000,297000,897856,
-4880,3444,14936,-406,376,-86,4000,19000,297000,897859,
-4760,3444,15124,-392,370,-94,5000,19000,297000,897861,
-4900,3412,15,4488,15996,-389,719,125,8000,10000,
-2840,4648,15192,-708,105,-329,9000,9000,298000,900172,
-2788,4672,15208,-836,73,-354,9000,9000,298000,900175,
-2884,4372,15176,-785,-16,-482,9000,9000,298000,900155,
0,0,0,0,0,0,9000,9000,298000,900155,
-5040,3260,14984,-426,274,-93,5000,19000,297000,897908,
-4932,3324,14992,-574,191,-124,5000,19000,297000,897910,
-5140,3288,15056,-433,258,-105,5000,19000,297000,897912,
-4880,3320,14996,-530,241,-95,4000,19000,297000,897925,
-4704,3272,14912,-371,310,-62,4000,19000,297000,897927,
-4892,3264,14856,-512,246,-86,4000,19000,297000,897929,
-5152,3364,14980,-428,305,-126,4000,19000,297000,897942,
-5056,3412,15000,-466,311,-71,4000,19000,297000,897944,
-5040,3420,15024,-408,316,-86,5000,19000,297000,897946,
-4876,3628,15020,-451,334,-61,5000,19000,297000,897959,
-5088,3652,14940,-497,281,-132,5000,19000,297000,897961,
-4868,3656,15012,-485,313,-83,5000,19000,297000,897964,
-5068,3712,15112,-575,265,-93,5000,19000,297000,897976,
-5156,3572,14948,-456,319,-63,5000,19000,297000,897978,
-5128,3664,15076,-596,252,-69,5000,19000,297000,897981,
-5020,3724,14960,-495,310,-17,5000,19000,297000,897993,
-4932,3648,15076,-640,217,-29,5000,19000,297000,897995,
-4900,3604,15120,-489,299,-11,5000,19000,297000,897998,
-4996,3592,14892,-641,153,21,5000,19000,297000,898010,
-5192,3664,15020,-530,224,54,5000,19000,297000,898013,
-5132,3720,15056,-660,147,33,5000,19000,297000,898015,
-5168,3680,14932,-524,220,74,5000,19000,297000,898017,
-4920,3664,14960,-651,93,118,5000,19000,297000,898030,
-5064,3492,14916,-551,156,93,5000,19000,297000,898032,
-5084,3504,14844,-677,61,95,5000,19000,297000,898034,
-5068,3372,14616,-629,13,112,5000,19000,297000,898047,
-5008,3356,14364,-743,-12,112,5000,19000,297000,898049,
-4880,3464,14516,-611,-33,100,5000,19000,297000,898051,
-4952,3220,14868,-615,88,123,4000,19000,297000,898064,
-4992,3304,15192,-556,58,59,4000,19000,297000,898066,
-4752,3304,15132,-514,89,85,4000,19000,297000,898068,
-4916,3436,14668,-502,75,51,4000,19000,297000,898071,
-4844,3648,14672,-483,236,68,5000,19000,297000,898083,
-4980,3676,14908,-561,230,25,5000,19000,297000,898086,
-4844,3552,14908,-475,238,71,5000,19000,298000,898088,
-4948,3488,14884,-531,250,29,5000,19000,298000,898100,
-5044,3420,15004,-382,345,78,5000,20000,298000,898103,
-5064,3476,15156,-461,282,115,5000,20000,298000,898105,
-5088,3488,14972,-276,306,48,5000,20000,298000,898118,
-5108,3432,14936,-391,202,-22,5000,20000,298000,898120,
-4956,3508,14940,-214,281,-41,5000,20000,298000,898122,
-5124,3404,14892,-309,223,-87,5000,20000,298000,898135,
-5092,3468,14920,-174,257,-88,5000,20000,298000,898137,
-5216,3556,14924,-259,255,-56,5000,20000,298000,898139,
-4892,3684,15032,-168,363,-101,5000,20000,298000,898152,
-4852,3628,15024,-159,382,-88,5000,20000,298000,898154,
-4868,3668,15112,-123,432,-163,5000,20000,298000,898156,
-5220,3520,14856,-123,449,-140,5000,20000,298000,898169,
-5208,3512,14956,-168,430,-196,5000,20000,298000,898171,
-5124,3516,14932,-93,450,-152,5000,20000,298000,898173,
-5140,3616,14988,-196,360,-260,5000,20000,298000,898186,
-5100,3548,14884,-102,415,-228,5000,20000,298000,898188,
-5108,3544,15012,-217,359,-287,5000,20000,298000,898191,
-5344,3496,14972,-143,379,-314,5000,20000,298000,898203,
-5224,3540,15024,-305,301,-371,5000,20000,298000,898205,
-5300,3484,14964,-185,350,-366,5000,20000,298000,898208,
-4972,3380,14968,-366,261,-419,5000,20000,298000,898220,
-4960,3436,15204,-275,284,-455,5000,20000,298000,898223,
-5088,3456,15080,-411,268,-399,5000,20000,298000,898225,
-5160,3448,14960,-402,231,-443,5000,20000,298000,898237,
-5092,3412,15028,-481,239,-398,5000,20000,298000,898240,
-5192,3416,14992,-395,221,-415,5000,20000,298000,898242,
-4840,3504,15092,-560,173,-358,5000,20000,297000,898254,
-4800,3476,14992,-563,136,-381,5000,20000,297000,898257,
-4772,3512,15060,-617,166,-349,5000,20000,297000,898259,
-4956,3548,15036,-723,69,-322,5000,20000,297000,898271,
-5076,3568,15052,-619,145,-287,5000,20000,297000,898274,
-4896,3656,15220,-769,107,-309,5000,20000,297000,898276,
-4880,3800,15024,-746,40,-205,5000,20000,297000,898288,
-4984,3728,14912,-914,-49,-227,5000,20000,297000,898291,
-5088,3676,15108,-787,-22,-157,5000,20000,297000,898293,
-5096,3532,14916,-976,-177,-147,5000,20000,297000,898306,
-4952,3588,15036,-861,-162,-69,5000,20000,297000,898308,
-4876,3580,15044,-1017,-183,-116,5000,20000,297000,898310,
-5084,3648,15008,-904,-166,-5,5000,20000,297000,898323,
-4940,3612,14876,-1017,-188,28,5000,20000,297000,898325,
-5168,3560,14888,-915,-148,39,5000,20000,297000,898327,
-5096,3588,14884,-1020,-279,164,4000,20000,298000,898340,
-5032,3564,15024,-950,-297,114,4000,20000,298000,898342,
-5052,3512,14976,-1023,-342,148,4000,20000,298000,898344,
-5140,3268,14912,-934,-364,121,4000,20000,298000,898356,
-5248,3380,14904,-895,-336,139,4000,20000,298000,898359,
-5104,3248,15024,-915,-371,108,4000,20000,298000,898361,
-4932,3368,14892,-726,-227,111,4000,20000,298000,898373,
-5076,3332,14832,-851,-274,80,4000,20000,298000,898376,
-4840,3292,14836,-721,-174,111,4000,20000,298000,898378,
-5096,3448,15048,-710,-45,51,4000,19000,298000,898391,
-4980,3392,14908,-537,46,37,4000,19000,298000,898393,
-4908,3540,15036,-679,-9,5,4000,19000,298000,898395,
-5024,3476,15036,-515,97,20,4000,19000,298000,898398,
-4884,3508,14888,-484,194,-50,4000,19000,298000,898410,
-4936,3608,14948,-381,267,-98,4000,19000,298000,898412,
-4808,3548,14900,-455,283,-75,4000,19000,298000,898415,
-4996,3508,14864,-327,378,-203,4000,20000,298000,898427,
-5224,3564,14864,-293,466,-164,4000,20000,298000,898429,
-5136,3612,14812,-256,429,-225,4000,20000,298000,898432,
-5172,3520,14948,-132,570,-270,4000,20000,298000,898444,
-5180,3524,15008,-227,536,-320,4000,20000,298000,898446,
-5044,3524,15000,-131,600,-288,4000,20000,298000,898449,
-5080,3476,14944,-175,468,-300,4000,20000,298000,898461,
-5308,3380,15000,-32,503,-272,4000,20000,298000,898463,
-5220,3420,14996,-172,434,-290,4000,20000,298000,898466,
-5064,3472,14884,-29,327,-236,5000,20000,298000,898478,
-5132,3428,14872,-153,262,-211,5000,20000,298000,898481,
-5148,3496,15100,-27,294,-179,5000,20000,298000,898483,
-5140,3580,14948,-83,138,-82,5000,20000,298000,898495,
-5004,3520,14908,-137,122,-80,5000,20000,298000,898498,
-4952,3532,15000,-133,116,-37,5000,20000,298000,898500,
-4896,3492,15040,-220,82,-52,5000,20000,298000,898512,
-5024,3372,15128,-115,126,-15,5000,20000,298000,898515,
-4924,3412,15244,-198,83,-69,5000,20000,298000,898517,
-4828,3580,15008,-122,217,-7,5000,20000,298000,898529,
-4744,3624,15276,-303,161,-37,5000,20000,298000,898532,
-4740,3676,15084,-188,191,-14,5000,20000,298000,898534,
-5032,3508,15040,-346,235,8,5000,20000,298000,898546,
-5088,3592,15172,-258,279,-49,5000,20000,298000,898549,
-5024,3556,14944,-350,278,-57,5000,20000,298000,898551,
-5056,3692,15076,-409,253,-18,5000,20000,298000,898563,
-5080,3696,14940,-482,246,12,5000,20000,298000,898566,
-5220,3724,15036,-434,208,-10,5000,20000,298000,898568,
-5444,3556,14960,-579,20,72,5000,20000,298000,898580,
-5332,3632,14940,-669,-87,40,5000,20000,298000,898583,
-5360,3624,15004,-600,-82,85,5000,20000,298000,898585,
-5424,3696,15068,-646,-145,63,5000,20000,298000,898587,
-5272,3704,14964,-689,-269,116,5000,20000,298000,898600,
-5224,3764,14980,-795,-346,69,5000,20000,298000,898602,
-5064,3688,15068,-721,-331,135,5000,20000,298000,898605,
-4964,3692,14860,-869,-480,101,5000,20000,298000,898617,
-5152,3624,14980,-731,-386,79,5000,20000,298000,898619,
-5048,3588,14976,-865,-435,83,5000,20000,298000,898622,
-4992,3612,15020,-708,-265,90,5000,20000,298000,898634,
-4752,3584,15004,-815,-301,31,5000,20000,298000,898636,
-4908,3552,14876,-730,-207,112,5000,20000,298000,898639,
-5128,3560,15072,-825,-253,111,5000,19000,298000,898651,
-5232,3424,15032,-709,-201,173,5000,19000,298000,898653,
-5120,3404,15048,-838,-305,147,5000,19000,298000,898656,
-5196,3440,15060,-728,-408,119,5000,19000,298000,898668,
-5040,3320,14952,-816,-450,156,5000,19000,298000,898670,
-5172,3284,14996,-728,-397,127,5000,19000,298000,898673,
-4908,3452,14912,-817,-431,129,5000,19000,298000,898685,
-5044,3360,14992,-835,-438,121,5000,19000,298000,898687,
-4864,3428,14864,-859,-439,136,5000,19000,298000,898690,
-5180,3548,15080,-965,-709,193,5000,19000,298000,898702,
-5264,3568,15200,-931,-710,238,5000,19000,298000,898705,
-5340,3560,15188,-996,-797,212,5000,19000,298000,898707,
-5084,3828,15320,-1044,-1072,298,4000,19000,298000,898719,
-5128,3836,15256,-1186,-1188,265,4000,19000,298000,898722,
-5240,3764,15020,-1144,-1207,311,4000,19000,298000,898724,
-5456,3808,15140,-1421,-1718,406,4000,19000,298000,898736,
-5448,3928,15020,-1328,-1798,462,4000,19000,298000,898739,
-5420,3932,15152,-1444,-1932,473,4000,19000,298000,898741,
-5016,3772,15128,-1468,-2370,673,4000,19000,298000,898753,
-4988,3728,14940,-1629,-2505,719,4000,19000,298000,898756,
-4992,3604,15064,-1523,-2501,798,4000,19000,298000,898758,
-5068,3492,15072,-1720,-3016,1046,4000,18000,298000,898770,
-4804,3556,15132,-1615,-3033,1111,4000,18000,298000,898773,
-4616,3456,14932,-1753,-3130,1133,4000,18000,298000,898775,
-4428,3396,15204,-1690,-3260,1277,4000,18000,299000,898787,
-4380,3272,15380,-1778,-3285,1363,4000,18000,299000,898790,
-4576,3252,15144,-1734,-3300,1370,4000,18000,299000,898792,
-4464,3320,15232,-1882,-3513,1599,4000,17000,299000,898805,
-4332,3336,15280,-1933,-3558,1564,4000,17000,299000,898807,
-4428,3300,15176,-1950,-3534,1590,4000,17000,299000,898809,
-4276,3280,15624,-2088,-3469,1629,4000,17000,299000,898822,
-4292,3256,15604,-2033,-3356,1663,4000,17000,299000,898824,
-3956,3456,15500,-2133,-3385,1624,4000,17000,299000,898826,
-3136,3984,15808,-2085,-2997,1571,4000,16000,299000,898839,
-3424,4112,15660,-2258,-2968,1513,4000,16000,299000,898841,
-3264,4240,15720,-2166,-2773,1570,4000,16000,299000,898844,
-3668,4488,16220,-2629,-2307,1814,4000,16000,299000,898856,
-3864,4388,16332,-2665,-2367,1802,3000,16000,299000,898858,
-3912,4252,16284,-2817,-2465,1842,3000,16000,299000,898861,
-3876,4196,16800,-3308,-3347,1683,3000,15000,300000,898873,
-3776,4220,16792,-3341,-3440,1703,3000,15000,300000,898876,
-3652,4168,16948,-3398,-3649,1613,3000,15000,300000,898878,
-3604,4444,16716,-3653,-4717,1475,3000,15000,300000,898890,
-3808,4496,16660,-3817,-4945,1451,3000,15000,300000,898893,
-3852,4432,16888,-3818,-5112,1455,3000,15000,300000,898895,
-4044,5020,17316,-4417,-6695,1526,3000,14000,300000,898908,
-3944,4908,17424,-4385,-6952,1597,2000,14000,300000,898910,
-4160,4908,17560,-4628,-7382,1582,2000,14000,300000,898912,
-3684,4720,18596,-4824,-9569,1444,2000,13000,300000,898925,
-3688,4652,18760,-4997,-10023,1367,2000,13000,300000,898927,
-3636,4508,18732,-4944,-10182,1368,2000,12000,300000,898929,
-1256,4044,19436,-4819,-6180,838,1000,12000,300000,898942,
-544,4088,19616,-4504,-5421,658,1000,12000,300000,898944,
92,3996,19680,-4405,-4954,507,1000,12000,300000,898946,
-1424,3904,20440,-3864,-2641,431,1000,11000,300000,898959,
-1628,3952,20472,-3908,-2196,563,1000,11000,300000,898961,
-1556,4048,20072,-3828,-1773,567,1000,11000,300000,898963,
516,5016,19620,-3744,-1554,-528,1000,11000,300000,898975,
584,4944,19972,-3721,-1593,-850,1000,11000,300000,898978,
608,5056,19944,-3629,-1511,-1127,1000,11000,300000,898980,
1632,5900,20040,-3061,-4508,-2331,0,10000,300000,898992,
1868,5900,19800,-3023,-4865,-2517,0,10000,300000,898995,
2184,5720,19360,-3174,-5267,-2737,0,10000,300000,898997,
-448,4988,18300,-2461,-4766,-2932,0,10000,300000,899009,
-508,-1148,18588,174,-8861,-6148,0,5000,296000,899082,
-544,-1304,18832,555,-8254,-6030,0,4000,296000,899084,
-716,-1632,18916,733,-7715,-6042,0,4000,296000,899086,
-892,-1748,18844,1166,-7062,-5879,0,4000,296000,899089,
-2080,-2328,18296,2270,-3848,-5143,0,4000,295000,899101,
-2336,-2356,18044,2647,-3154,-4935,0,4000,295000,899104,
-2412,-2484,17884,2688,-2602,-4756,0,4000,295000,899106,
-3180,-2232,16492,3705,53,-3902,0,4000,295000,899118,
-3132,-2148,16236,3784,441,-3723,0,4000,295000,899121,
-3080,-2052,15876,4029,842,-3606,0,4000,295000,899123,
-3016,-1392,14644,4443,2265,-2740,0,4000,294000,899135,
-3092,-1380,14408,4547,2466,-2708,1000,4000,294000,899138,
-3056,-1168,14104,4515,2618,-2528,1000,4000,294000,899140,
-3084,-736,13436,4879,3546,-1896,1000,4000,294000,899153,
-3044,-628,13604,4968,3658,-1733,1000,5000,294000,899155,
-3244,-552,13444,4956,3649,-1653,1000,5000,294000,899157,
-3660,52,13324,5117,3546,-935,2000,5000,294000,899170,
-3836,28,13136,5001,3368,-821,2000,5000,294000,899172,
-3432,388,13232,5125,3315,-657,2000,5000,294000,899174,
-3088,1284,13424,4857,2628,-245,2000,5000,294000,899187,
-3044,1608,13456,4959,2600,-176,2000,6000,294000,899189,
-2992,1620,13424,4765,2441,-181,3000,6000,294000,899191,
-2848,2340,13428,4542,2157,-36,3000,6000,294000,899204,
-2680,2500,13596,4315,2014,6,3000,6000,294000,899206,
-2728,2504,13408,4353,1965,28,3000,6000,294000,899209,
-2680,2692,13432,4114,1842,69,3000,6000,294000,899211,
-1896,3088,13800,3690,1286,208,4000,6000,294000,899223,
-1692,3144,13692,3526,1192,256,4000,6000,294000,899226,
-1624,3168,13988,3509,1107,239,4000,6000,294000,899228,
-1300,3500,14292,3119,1222,389,4000,6000,294000,899240,
-1364,3452,14324,3026,1160,370,4000,6000,294000,899243,
-1284,3552,14456,2976,1136,467,4000,6000,294000,899245,
-1468,3508,14204,2546,1051,750,5000,6000,294000,899257,
-1340,3580,14092,2543,1110,794,5000,6000,294000,899260,
-1424,3568,13864,2335,981,773,5000,6000,294000,899262,
-1300,3356,13820,2123,703,682,5000,6000,294000,899274,
-1200,3340,13812,1970,620,635,5000,6000,294000,899277,
-1304,3332,13628,2080,650,660,5000,6000,294000,899279,
-1892,3044,13996,1930,170,805,5000,6000,294000,899291,
-1964,3024,14092,2040,172,836,5000,6000,294000,899293,
-2012,2984,14164,1911,-29,841,5000,6000,294000,899296,
-1904,2912,14600,1980,-730,740,6000,6000,295000,899308,
-1860,2840,14508,1854,-814,699,6000,6000,295000,899310,
-1804,2860,14744,2007,-804,684,6000,6000,295000,899313,
-1424,2740,15004,2008,-712,648,6000,6000,295000,899325,
-1512,2692,15092,2129,-578,634,6000,6000,295000,899328,
-1496,2584,14980,2045,-459,723,6000,6000,295000,899330,
-1220,2524,14920,2253,364,890,6000,6000,295000,899342,
-1108,2592,14764,2362,567,977,6000,6000,295000,899345,
-1244,2464,14900,2368,701,1000,6000,6000,295000,899347,
-1712,2784,14576,2611,1623,1450,7000,6000,295000,899360,
-1724,3016,14396,2471,1661,1492,7000,6000,295000,899362,
-1644,3124,14444,2577,1817,1584,7000,6000,295000,899364,
-1568,3888,14304,2305,1983,1679,7000,7000,295000,899377,
-1612,4004,14208,2377,2081,1693,7000,7000,295000,899379,
-1588,4116,14288,2152,2017,1680,7000,7000,295000,899381,
-1728,4492,13788,1917,1741,1625,7000,7000,295000,899394,
-1700,4632,13756,1780,1629,1638,7000,7000,296000,899396,
-1768,4456,15996,-444,712,144,8000,10000,298000,900366,
-2024,4832,15872,-287,893,165,8000,10000,298000,900378,
-2156,4904,15600,-300,893,189,8000,10000,298000,900380,
-1928,4904,15728,-230,929,164,8000,10000,298000,900383,
-1740,5028,15404,-158,961,204,8000,10000,298000,900395,
-2032,4992,15424,-248,891,148,8000,10000,298000,900397,
-1960,5104,15452,-183,927,152,8000,10000,298000,900400,
-2020,5288,15880,-246,701,136,9000,10000,298000,900412,
-1964,5448,15712,-119,719,147,9000,10000,298000,900415,
-2028,5356,15872,-266,608,136,9000,10000,298000,900417,
-1964,5552,15896,-191,480,120,9000,10000,298000,900429,
-2000,5540,15828,-320,401,111,9000,10000,298000,900432,
-1804,5596,15780,-179,402,82,9000,10000,298000,900434,
-2028,5428,15576,-336,248,-7,9000,10000,298000,900446,
-1908,5448,15408,-266,279,-5,9000,10000,298000,900449,
-2208,5356,15656,-364,270,-16,9000,10000,298000,900451,
-2360,5052,15296,-294,370,-54,9000,10000,298000,900463,
-2420,5020,15348,-296,378,-20,9000,10000,298000,900466,
-2336,5056,15280,-266,374,-80,9000,10000,298000,900468,
-2260,4860,15208,-203,282,-193,9000,10000,298000,900480,
-2332,4716,15016,-268,208,-259,9000,10000,298000,900483,
-2416,4740,15128,-223,271,-227,9000,10000,298000,900485,
-2512,4464,15196,-226,329,-268,9000,10000,298000,900497,
-2348,4472,15128,-127,394,-237,9000,10000,298000,900500,
-2440,4448,15072,-193,330,-287,9000,10000,298000,900502,
-2644,4416,14908,-120,365,-172,9000,10000,298000,900515,
-2852,4384,14852,-249,273,-200,9000,10000,298000,900517,
-2736,4320,14952,-142,279,-186,9000,10000,298000,900519,
-2948,4080,15048,-371,38,-216,9000,10000,298000,900532,
-2932,3972,15016,-221,98,-238,9000,10000,298000,900534,
-2920,3948,14916,-383,10,-239,9000,10000,298000,900536,
-2636,3804,15004,-308,162,-186,9000,10000,298000,900549,
-2548,3996,14992,-406,160,-145,9000,10000,298000,900551,
-2536,3828,14972,-284,224,-147,9000,10000,298000,900553,
-2696,4140,14716,-396,266,-17,9000,10000,298000,900566,
-2684,4140,14868,-348,299,-41,9000,10000,298000,900568,
-2656,4280,14852,-446,300,-13,9000,10000,298000,900570,
-2604,4292,14712,-612,281,16,9000,10000,298000,900583,
-2628,4280,14648,-609,289,108,9000,10000,298000,900585,
-2748,4296,14732,-630,247,59,9000,10000,298000,900588,
-2728,4404,14952,-682,68,175,9000,10000,298000,900600,
-2720,4360,14904,-774,-24,140,9000,10000,298000,900602,
-2556,4336,15024,-734,-13,211,9000,10000,298000,900604,
-2300,4516,15248,-806,-272,206,9000,10000,298000,900617,
-2400,4584,15320,-683,-232,215,9000,10000,298000,900619,
-2488,4576,15308,-810,-291,225,9000,10000,298000,900622,
-2312,4648,15124,-707,-178,246,9000,10000,298000,900634,
-2212,4712,15148,-827,-216,280,9000,10000,298000,900636,
-2136,4700,15176,-680,-159,291,9000,10000,298000,900639,
-2316,4584,15208,-763,-303,368,9000,10000,298000,900651,
-2472,4640,15100,-698,-308,335,9000,10000,298000,900654,
-2268,4660,15132,-779,-320,366,9000,10000,298000,900656,
-2232,4712,14988,-771,-256,312,9000,10000,298000,900668,
-2208,4736,14992,-788,-220,365,9000,10000,298000,900671,
-2388,4728,14852,-745,-221,340,9000,10000,298000,900673,
-2748,4372,15004,-811,-431,474,9000,10000,298000,900685,
-2800,4448,14872,-899,-500,427,9000,10000,298000,900688,
-2800,4220,14976,-818,-518,518,9000,10000,298000,900690,
-2464,4000,14892,-883,-833,499,9000,10000,298000,900703,
-2460,3852,15044,-743,-777,542,9000,10000,298000,900705,
-2408,3860,15048,-849,-872,531,9000,10000,298000,900707,
-2336,3776,15080,-660,-947,781,9000,10000,298000,900720,
-2192,3884,15240,-812,-1039,817,9000,10000,298000,900722,
-2356,3864,15216,-679,-1008,879,9000,10000,298000,900724,
-2012,4268,15184,-984,-1229,1208,8000,9000,298000,900737,
-1912,4168,15092,-940,-1249,1277,8000,9000,298000,900739,
-1820,4144,15224,-1115,-1366,1327,8000,9000,299000,900741,
-2164,4068,15068,-1403,-1927,1580,8000,9000,299000,900754,
-2268,4120,15016,-1551,-2075,1688,8000,9000,299000,900756,
-2208,4024,15248,-1549,-2264,1721,8000,9000,299000,900759,
-1708,3880,15652,-2051,-3426,1924,8000,9000,299000,900771,
-1608,3944,15612,-2146,-3645,1886,8000,9000,299000,900774,
-1460,4056,15736,-2203,-3785,1908,8000,9000,299000,900776,
-696,4008,16140,-2557,-4593,1779,8000,8000,299000,900788,
-588,3964,16332,-2489,-4643,1812,8000,8000,299000,900791,
-424,3912,16348,-2643,-4812,1797,8000,8000,299000,900793,
120,4080,17004,-2690,-5293,1877,8000,7000,299000,900806,
208,3844,17204,-2859,-5473,1868,8000,7000,299000,900808,
452,3816,17272,-2761,-5507,1834,8000,7000,299000,900810,
1100,3420,17872,-2971,-6002,1479,7000,6000,299000,900823,
1316,3352,18176,-2833,-5951,1392,7000,6000,299000,900825,
1420,3268,18244,-2919,-6058,1318,7000,6000,299000,900827,
1488,3260,18860,-2633,-6279,949,7000,5000,299000,900840,
2764,3176,19192,-2582,-6579,932,7000,5000,299000,900842,
2804,3176,19288,-2378,-6634,815,7000,5000,299000,900844,
3800,2856,19744,-2027,-6079,79,7000,5000,299000,900857,
4016,2956,19880,-1905,-6188,-88,7000,4000,299000,900859,
4176,2904,19704,-1768,-6194,-219,7000,4000,299000,900861,
5556,2872,20280,-1225,-6271,-1173,7000,4000,299000,900874,
5612,2812,20228,-1076,-6205,-1298,7000,3000,299000,900876,
5756,2804,20180,-1031,-6245,-1564,7000,3000,299000,900879,
6448,3008,20664,-424,-6395,-2354,6000,3000,299000,900891,
6620,3048,20780,-502,-6620,-2547,6000,2000,299000,900893,
6896,2996,20884,-320,-6639,-2657,6000,2000,298000,900896,
7664,2908,21232,1,-7363,-3615,6000,2000,298000,900908,
7836,2804,21304,224,-7452,-3843,6000,1000,298000,900910,
7844,2780,21448,185,-7619,-4054,6000,1000,298000,900913,
8896,2144,21320,798,-8394,-5531,6000,0,297000,900925,
9064,2108,21160,810,-8497,-5765,6000,0,297000,900927,
9252,1776,21092,1034,-8558,-6046,7000,0,297000,900930,
9456,1652,21328,1003,-8636,-6332,7000,0,297000,900932,
10336,1008,21128,1679,-9127,-8195,7000,0,296000,900945,
10756,892,20940,1773,-9099,-8466,7000,0,296000,900947,
10656,740,21008,1868,-9214,-8928,7000,0,296000,900949,
11300,84,20944,2506,-9158,-10733,7000,-1000,295000,900962,
11424,-60,20840,2589,-9155,-11147,7000,-1000,294000,900964,
11640,-152,20944,2724,-9052,-11536,7000,-2000,294000,900966,
12328,-292,20568,3235,-7992,-13605,7000,-2000,293000,900979,
12248,-344,20536,3454,-7593,-13945,7000,-3000,292000,900981,
12076,-312,20376,3404,-7259,-14356,8000,-3000,292000,900984,
11708,-816,19628,3869,-5463,-16281,8000,-3000,291000,900996,
11568,-888,19508,3795,-5163,-16542,8000,-3000,290000,900998,
11180,-1036,19260,3919,-4805,-16899,8000,-3000,290000,901001,
10224,-1556,19128,4027,-3200,-18454,9000,-3000,288000,901013,
9900,-1692,19008,4089,-3018,-18847,9000,-3000,288000,901016,
9836,-1708,19024,4125,-2770,-19013,9000,-3000,287000,901018,
8232,-2404,19304,4522,-2384,-20291,9000,-3000,285000,901031,
7708,-2540,19384,4718,-2259,-20422,9000,-3000,285000,901033,
7568,-2632,19232,4681,-2218,-20706,9000,-3000,285000,901035,
6320,-3068,19000,5251,-1917,-21614,10000,-3000,283000,901048,
6184,-3100,18764,5211,-1977,-21865,10000,-3000,282000,901050,
5840,-3128,18828,5428,-1884,-22030,10000,-3000,282000,901052,
3936,-3356,18800,5865,-2037,-22809,11000,-3000,280000,901065,
3780,-3412,18848,6099,-2078,-22994,11000,-3000,279000,901067,
2520,-3224,18772,6594,-2684,-23676,11000,-3000,277000,901080,
2296,-3144,18768,6801,-2792,-23914,12000,-3000,277000,901082,
1992,-3120,18724,6844,-2927,-23950,12000,-3000,276000,901084,
1128,-2496,18468,7455,-3843,-24763,12000,-3000,274000,901097,
1044,-2492,18280,7513,-3910,-24762,13000,-3000,273000,901099,
1172,-2268,18240,7648,-4018,-24985,13000,-3000,273000,901101,
-28,-1696,17588,8011,-4327,-25233,13000,-3000,270000,901114,
-252,-1688,17544,8019,-4428,-25381,14000,-2000,270000,901116,
-504,-1692,17476,8063,-4429,-25272,14000,-2000,270000,901119,
-1840,-1068,16624,8023,-4691,-25444,14000,-2000,267000,901131,
-1912,-940,16872,8115,-4604,-25426,15000,-2000,267000,901133,
-2272,-872,16840,7998,-4645,-25553,15000,-2000,266000,901136,
-2468,-708,17392,8243,-4320,-25884,16000,-2000,264000,901148,
-2528,-620,17368,8087,-4310,-25906,16000,-2000,263000,901151,
-3420,-1024,17544,8420,-3035,-26155,16000,-1000,261000,901163,
-3348,-1044,17604,8406,-2650,-26028,17000,-1000,260000,901166,
-3412,-1196,17584,8608,-2284,-26197,17000,-1000,260000,901168,
-4204,-1388,16768,9311,-688,-26267,18000,0,257000,901181,
-4372,-1288,16496,9411,-380,-26410,18000,0,257000,901183,
-4600,-1260,16436,9528,93,-26250,18000,0,256000,901185,
-5680,-804,15576,10169,2352,-26149,19000,0,254000,901198,
-6040,-668,15556,10373,2651,-25992,19000,1000,254000,901200,
-6100,-508,15104,10440,2844,-26036,19000,1000,253000,901202,
-8076,268,13596,11147,3797,-25224,20000,2000,251000,901215,
-3816,732,13376,11058,4151,-25982,20000,2000,251000,901217,
-8736,468,12576,11137,5296,-25886,20000,3000,250000,901220,
-10368,1492,12236,10769,2896,-23948,21000,4000,248000,901232,
-10280,1872,10916,10739,3023,-23914,21000,4000,248000,901234,
-10612,1876,10640,10449,3003,-23688,21000,4000,248000,901237,
-11196,2360,9936,9935,2180,-23308,22000,6000,246000,901249,
-11556,2408,9924,9705,2163,-22982,22000,6000,245000,901252,
-11864,2440,9984,9706,2049,-22933,22000,6000,245000,901254,
-13580,2112,9504,9128,1793,-21406,23000,7000,243000,901266,
-14020,2100,9528,9008,1724,-21213,23000,8000,243000,901269,
-14252,1980,9528,8997,1686,-20772,23000,8000,242000,901271,
-15352,2348,9392,8751,1473,-18867,24000,9000,241000,901284,
-15236,2292,8672,8867,1526,-18505,24000,9000,240000,901286,
-15288,2472,8828,8683,1285,-18248,24000,9000,240000,901288,
-16328,3204,8672,8513,405,-16774,24000,10000,239000,901301,
-16372,3368,8644,8247,145,-16432,25000,11000,238000,901303,
-16324,3576,8560,8304,-21,-16145,25000,11000,238000,901305,
-16828,4572,8396,7670,-186,-14201,25000,12000,237000,901318,
-16944,4676,8100,7634,-208,-13888,25000,12000,237000,901320,
-16988,4856,7888,7513,-288,-13456,25000,12000,236000,901323,
-17604,5400,7396,7211,-966,-11513,26000,13000,235000,901335,
-17592,5636,6132,7193,-1008,-10695,26000,13000,235000,901338,
-19848,5628,5432,6679,-728,-10023,26000,13000,235000,901340,
-18760,6256,5808,6152,-2598,-7991,26000,13000,234000,901353,
-18660,6568,5172,5782,-2804,-7564,27000,13000,234000,901355,
-18852,6736,5148,5728,-2982,-7202,27000,13000,234000,901357,
-18536,7036,5224,4511,-4434,-5370,27000,14000,233000,901370,
-18460,7048,5052,4425,-4618,-5079,27000,14000,233000,901372,
-18168,7108,5116,4085,-4801,-4701,27000,14000,233000,901374,
-17076,7332,5928,3540,-4834,-2962,27000,14000,233000,901387,
-16884,7300,5856,3509,-4722,-2589,27000,14000,233000,901389,
-16880,7288,5972,3450,-4606,-2317,27000,14000,232000,901392,
-16880,7628,5972,3248,-3730,-487,28000,14000,232000,901404,
-16776,7904,6008,3089,-3643,-184,28000,14000,232000,901406,
-16876,7960,5936,3122,-3483,133,28000,13000,232000,901409,
-16608,8728,5788,2510,-3009,1693,28000,13000,232000,901421,
-16584,8920,5820,2580,-2843,1937,28000,13000,232000,901424,
-16456,9100,5824,2302,-2771,2152,28000,13000,232000,901426,
-16368,9580,5864,1781,-2225,3397,29000,13000,232000,901439,
-16176,9792,5620,1517,-2107,3624,29000,13000,232000,901441,
-16180,9876,5380,1508,-1910,3871,29000,13000,233000,901443,
-15612,10376,5500,706,-1194,5028,29000,13000,233000,901456,
-15500,10504,5380,584,-1091,5207,29000,13000,233000,901458,
-15428,10584,5352,384,-958,5409,29000,13000,233000,901460,
-15264,10932,5880,-370,-162,6428,29000,13000,234000,901473,
-15224,10908,6116,-448,-4,6607,29000,13000,234000,901475,
-15084,10992,6128,-533,91,6752,29000,13000,234000,901478,
-15252,11028,7160,-973,453,7815,30000,13000,235000,901490,
-15276,11012,7428,-1143,486,8016,30000,13000,235000,901492,
-15212,11012,7684,-1136,614,8228,30000,13000,235000,901495,
-15424,10908,8076,-1646,971,9261,30000,13000,236000,901507,
-15324,10836,8048,-1555,1121,9481,30000,13000,236000,901510,
-15380,10700,8176,-1730,1114,9628,30000,13000,236000,901512,
-15340,10560,8272,-1910,1453,10684,30000,12000,237000,901524,
-15476,10504,8172,-2062,1435,10835,30000,12000,237000,901527,
-15416,10372,8092,-2046,1486,11059,30000,12000,237000,901529,
-14884,9868,8300,-2629,1362,12059,30000,12000,239000,901542,
-14804,9936,8292,-2619,1407,12260,30000,12000,239000,901544,
-14816,10020,8232,-2779,1398,12447,30000,12000,239000,901546,
-13764,9684,8304,-3294,1986,13286,30000,12000,240000,901559,
-13724,9512,8412,-3328,2156,13443,30000,12000,240000,901561,
-13560,9156,8708,-3752,2780,14619,30000,11000,242000,901574,
-13596,9040,8832,-3701,2992,14858,30000,11000,242000,901576,
-13256,9044,8948,-3901,3014,15038,30000,11000,242000,901579,
-12716,8656,9792,-4248,3571,16158,30000,11000,244000,901591,
-12696,8576,9708,-4420,3566,16307,30000,11000,244000,901593,
-12684,8412,9840,-4453,3661,16518,30000,11000,245000,901596,
-12280,7588,10508,-4932,3856,17321,30000,11000,246000,901608,
-11900,7268,10708,-5064,3925,17495,30000,10000,246000,901611,
-11808,7144,10724,-5086,3996,17625,30000,10000,247000,901613,
-11104,6260,11256,-5460,4368,18545,30000,10000,249000,901625,
-10964,5992,11348,-5404,4519,18710,30000,10000,249000,901628,
-10828,5956,11572,-5527,4575,18882,30000,10000,249000,901630,
-9908,5400,12008,-5472,5147,19685,29000,10000,251000,901642,
-9532,5276,11828,-5636,5176,19796,29000,9000,251000,901645,
-9400,5224,12080,-5514,5337,19917,29000,9000,252000,901647,
-8384,4864,11972,-5769,5533,20447,29000,9000,254000,901660,
-8152,4800,11968,-5699,5647,20640,29000,9000,254000,901662,
-8008,4684,11988,-5880,5641,20674,29000,9000,255000,901664,
-7176,4076,12044,-6108,5642,21208,29000,9000,257000,901677,
-6988,4012,12080,-6266,5551,21256,29000,8000,257000,901679,
-6988,3948,12200,-6243,5558,21348,29000,8000,257000,901681,
-6004,3312,12500,-6585,5247,21698,28000,8000,259000,901694,
-5892,3172,12508,-6689,5138,21804,28000,8000,260000,901696,
-5732,3072,12656,-6663,5152,21839,28000,8000,260000,901699,
-4908,2644,12936,-7001,4980,22075,28000,7000,262000,901711,
-4580,2536,13064,-6902,5008,22084,27000,7000,263000,901714,
-4568,2344,13068,-7056,4903,22133,27000,7000,263000,901716,
-3268,2040,13872,-7139,4782,22152,27000,6000,265000,901729,
-2992,1892,14144,-7315,4726,22126,27000,6000,266000,901731,
-2636,1876,14312,-7172,4791,22128,27000,6000,266000,901733,
5508,-332,11048,-7458,4950,20064,26000,6000,268000,901746,
-3508,1980,18756,-6880,6391,21511,26000,6000,268000,901748,
-488,1744,17928,-6767,5919,21123,26000,6000,269000,901750,
1460,2456,16944,-5877,6181,20670,25000,5000,271000,901763,
1572,2584,16976,-5806,6484,20592,25000,5000,271000,901765,
1940,2676,16768,-5705,6847,20614,25000,5000,271000,901767,
2432,3376,16512,-5356,7995,19824,25000,5000,274000,901780,
2448,3412,16260,-5398,8101,19683,25000,5000,274000,901782,
2664,3416,16196,-5339,8197,19447,25000,5000,274000,901785,
2800,3264,15436,-5588,8800,18482,24000,5000,276000,901797,
2772,3132,15396,-5512,8946,18304,24000,5000,277000,901799,
2692,3032,14956,-5666,9040,18173,24000,5000,277000,901802,
2032,2800,14928,-5844,9016,17685,23000,5000,279000,901814,
2112,2868,14920,-6064,8815,17620,23000,5000,279000,901817,
2008,2992,14832,-6012,8702,17604,23000,5000,280000,901819,
1864,3168,15312,-6566,7418,17323,23000,5000,281000,901831,
1904,3332,15312,-6515,7223,17304,23000,5000,282000,901834,
1960,3320,15308,-6751,6945,17218,23000,5000,282000,901836,
2412,3264,16688,-7078,5785,16647,22000,4000,284000,901849,
2420,3104,16920,-7259,5546,16466,22000,4000,284000,901851,
2536,3132,17184,-7184,5464,16339,22000,4000,284000,901853,
3880,2148,18624,-7083,5392,15464,21000,4000,286000,901866,
4124,2000,18692,-6986,5517,15297,21000,4000,286000,901868,
4448,1844,18800,-6919,5672,15047,21000,4000,286000,901870,
5632,1544,19228,-5994,6871,13631,20000,4000,288000,901883,
5796,1712,19012,-5803,7126,13397,20000,4000,288000,901885,
5768,1768,18956,-5668,7298,13222,20000,4000,288000,901887,
6248,2808,18284,-4805,8453,12138,20000,4000,290000,901900,
6084,2908,18220,-4799,8456,12041,20000,4000,290000,901902,
6056,3208,18116,-4568,8442,11891,20000,4000,290000,901904,
5268,3820,17408,-4430,8460,11331,19000,5000,292000,901917,
5200,3908,17240,-4284,8497,11290,19000,5000,292000,901919,
4880,3996,17288,-4441,8368,11136,19000,5000,292000,901922,
4132,4100,17324,-4383,7561,10548,19000,5000,293000,901934,
3840,4036,17252,-4507,7241,10475,19000,5000,293000,901936,
3856,4144,17492,-4399,7054,10407,19000,5000,294000,901939,
3464,3680,17824,-4653,5711,10047,18000,5000,295000,901951,
3580,3664,18196,-4510,5594,9987,18000,5000,295000,901954,
3736,3696,18256,-4615,5315,9838,18000,5000,295000,901956,
4564,3148,19204,-4262,4722,9217,18000,5000,296000,901968,
4928,2992,19340,-4157,4723,9051,18000,5000,296000,901971,
5016,2896,19248,-4068,4722,8879,18000,5000,297000,901973,
5504,3004,19332,-3312,5205,7992,17000,5000,297000,901985,
5692,2928,19312,-3295,5313,7875,17000,5000,298000,901988,
5608,2980,19168,-3104,5493,7717,17000,5000,298000,901990,
5576,3972,18400,-2724,6303,6981,17000,6000,299000,902003,
5436,4120,18152,-2567,6500,6928,17000,6000,299000,902005,
5408,4228,18104,-2657,6514,6734,17000,6000,299000,902007,
4656,5044,17472,-2460,6782,5979,17000,6000,300000,902020,
4648,5092,17340,-2563,6746,5816,17000,6000,300000,902022,
4608,5248,17356,-2453,6817,5700,17000,6000,300000,902024,
3744,5176,17168,-2558,6356,5120,16000,7000,300000,902037,
3632,5076,17096,-2500,6247,5011,16000,7000,301000,902039,
3456,5152,17188,-2600,6137,4948,16000,7000,301000,902042,
3016,5204,17528,-2472,5657,4425,16000,7000,301000,902054,
3044,5076,17508,-2438,5546,4290,16000,7000,301000,902056,
2960,5168,17484,-2338,5445,4154,16000,7000,301000,902059,
2708,5508,17240,-2229,4968,3502,16000,7000,302000,902071,
2760,5708,17124,-2255,4855,3402,16000,7000,302000,902073,
2800,5748,16884,-2258,4797,3324,16000,7000,302000,902076,
2260,5960,16584,-2410,4321,2882,16000,8000,303000,902088,
1796,5948,16504,-2325,4241,2894,16000,8000,303000,902091,
1840,5888,16292,-2485,4064,2838,16000,8000,303000,902093,
1192,5824,16300,-2620,3202,2910,16000,8000,303000,902105,
1220,5944,16316,-2809,2975,2907,16000,8000,303000,902108,
1272,5916,16592,-2720,2878,2953,16000,8000,303000,902110,
1264,5472,17340,-2925,2013,2966,15000,8000,303000,902122,
1384,5528,17532,-2776,1932,2983,15000,8000,304000,902125,
1396,5420,17528,-2882,1776,2963,15000,8000,304000,902127,
1416,4656,17580,-2513,1648,3062,15000,8000,304000,902140,
1408,4624,17576,-2567,1604,3077,15000,8000,304000,902142,
1324,4508,17644,-2356,1644,3064,15000,8000,304000,902144,
1936,4196,17504,-1971,1672,2749,15000,8000,304000,902157,
2032,4172,17324,-1843,1751,2644,15000,8000,304000,902159,
2164,4028,17420,-1801,1828,2555,15000,8000,304000,902161,
2004,3912,16872,-1272,2159,2009,15000,8000,305000,902174,
1964,3956,16748,-1093,2320,1970,15000,8000,305000,902176,
2008,4084,16656,-1075,2346,1851,15000,8000,305000,902178,
1920,4436,15932,-604,2812,1491,15000,8000,305000,902191,
1956,4328,15744,-667,2808,1376,15000,8000,305000,902193,
1540,4452,15792,-513,2921,1338,15000,8000,305000,902196,
844,4796,15704,-466,2852,1131,15000,8000,305000,902208,
916,4900,15672,-339,2861,1132,15000,8000,305000,902210,
784,4928,15720,-458,2754,1090,15000,8000,305000,902213,
836,5168,15848,-339,2505,907,15000,9000,305000,902225,
724,5180,15812,-452,2376,894,15000,9000,305000,902227,
748,5188,15640,-353,2371,858,15000,9000,306000,902230,
436,5096,15640,-548,2045,667,15000,9000,306000,902242,
384,5124,15560,-505,2037,606,15000,9000,306000,902244,
396,5068,15544,-578,1964,582,15000,9000,306000,902247,
276,5280,15448,-624,1688,347,15000,9000,306000,902259,
316,5488,15368,-627,1668,383,15000,9000,306000,902262,
248,5460,15348,-648,1617,347,15000,9000,306000,902264,
140,5648,15056,-723,1462,118,15000,9000,306000,902276,
124,5688,15080,-805,1370,51,15000,9000,306000,902279,
92,5604,15088,-768,1391,58,15000,9000,306000,902281,
284,5660,15060,-840,1305,-40,15000,9000,306000,902283,
180,5480,15312,-765,1210,-110,14000,9000,306000,902296,
-36,5388,15060,-905,1100,-161,14000,9000,306000,902298,
-96,5324,15208,-817,1157,-129,14000,9000,306000,902300,
-224,5256,15280,-827,1227,-275,14000,9000,306000,902313,
-276,5340,15424,-689,1297,-295,14000,9000,306000,902315,
-396,5240,15360,-783,1250,-337,14000,9000,306000,902317,
-568,5220,15404,-553,1267,-472,14000,9000,306000,902330,
-628,5124,15388,-593,1268,-440,14000,9000,306000,902332,
-488,5164,15232,-476,1317,-430,14000,9000,306000,902335,
-812,5204,15132,-390,1362,-387,14000,9000,306000,902347,
-948,5224,15196,-404,1273,-421,14000,9000,306000,902349,
-924,5268,15104,-349,1255,-386,14000,9000,306000,902352,
-976,5500,15276,-291,935,-414,14000,9000,306000,902364,
-756,5756,15380,-108,969,-380,14000,9000,306000,902367,
-888,5792,15324,-214,873,-389,14000,9000,306000,902369,
-684,6336,15364,-4,822,-282,14000,9000,306000,902381,
-832,6324,15636,-153,766,-243,14000,9000,306000,902384,
-660,6528,15400,8,808,-200,14000,9000,306000,902386,
-772,6472,15468,-149,771,-238,14000,9000,306000,902388,
-976,6528,15548,21,939,-320,14000,10000,306000,902401,
-888,6452,15556,-81,906,-344,14000,10000,306000,902403,
-720,6608,15460,65,987,-400,14000,10000,306000,902405,
-476,6636,15580,60,1234,-619,15000,10000,306000,902418,
-388,6596,15692,86,1299,-714,15000,10000,306000,902420,
-520,6604,15540,112,1392,-743,15000,10000,306000,902422,
-724,6984,15132,179,2030,-894,15000,10000,306000,902435,
-788,7024,15260,307,2190,-842,15000,10000,306000,902437,
-780,7072,15116,216,2239,-914,15000,10000,306000,902440,
-1120,7248,14836,290,2543,-1013,15000,10000,306000,902452,
-1400,7248,14824,149,2476,-1097,15000,10000,306000,902454,
-1272,7204,14860,236,2484,-1110,15000,10000,306000,902457,
-1776,7088,14928,-23,2102,-1253,15000,10000,306000,902469,
-1700,7196,14860,113,2090,-1272,15000,10000,306000,902471,
-1820,7056,14884,-79,1917,-1255,15000,10000,306000,902474,
-1724,7164,14868,-101,1511,-1313,15000,11000,306000,902486,
-1880,7276,14872,-205,1417,-1264,15000,11000,306000,902489,
-1816,7252,14608,-153,1358,-1282,15000,11000,306000,902491,
-2120,6836,14832,-410,855,-1252,15000,11000,306000,902503,
-2216,6744,14848,-487,734,-1296,15000,11000,306000,902506,
-2168,6632,14720,-494,743,-1262,15000,11000,305000,902508,
-1968,6148,14552,-735,643,-1218,15000,11000,305000,902521,
-1896,6088,14668,-639,736,-1179,15000,11000,305000,902523,
-1984,5856,14660,-702,695,-1197,15000,11000,305000,902525,
-2120,5660,14536,-591,1017,-1023,15000,11000,305000,902538,
-2076,5732,14380,-727,1001,-1003,15000,11000,305000,902540,
-2000,5692,14192,-639,1093,-1015,15000,11000,305000,902542,
-2036,5584,14436,-796,1161,-978,15000,11000,305000,902555,
-2076,5540,14436,-682,1240,-998,15000,11000,305000,902557,
-2224,5500,14624,-792,1209,-966,15000,11000,305000,902559,
-2480,5432,14248,-833,1619,-897,15000,11000,305000,902572,
-2520,5344,14192,-863,1700,-827,15000,11000,305000,902574,
-2452,5232,14216,-838,1722,-834,15000,11000,305000,902577,
-2768,5096,14276,-800,1540,-567,15000,11000,305000,902589,
-2780,5088,14108,-907,1376,-564,15000,12000,305000,902592,
-2816,5100,14116,-831,1380,-469,15000,12000,305000,902594,
-3236,5028,14316,-1038,811,-345,14000,12000,305000,902606,
-3104,4936,14292,-933,767,-288,14000,12000,305000,902609,
-3072,5104,14304,-1103,586,-362,14000,12000,305000,902611,
-2816,5316,14320,-1064,136,-238,14000,12000,305000,902624,
-2840,5384,14380,-1222,23,-216,14000,12000,305000,902626,
-2860,5324,14380,-1103,18,-166,14000,12000,305000,902628,
-2632,5688,14480,-1293,-30,-22,14000,12000,305000,902641,
-2512,5744,14640,-1296,-30,-69,14000,12000,305000,902643,
-2276,5760,14676,-1358,-17,-76,14000,12000,305000,902645,
-1864,5868,14872,-1440,211,-208,14000,12000,305000,902658,
-1828,5744,14928,-1327,347,-184,14000,12000,305000,902660,
-1756,5864,14996,-1400,362,-233,14000,12000,305000,902662,
-1888,5968,15228,-1213,812,-342,14000,12000,305000,902675,
-1808,6136,15088,-1281,786,-356,14000,12000,305000,902677,
-1900,6228,15132,-1188,928,-348,14000,12000,305000,902680,
-2096,6368,15324,-1147,872,-481,14000,12000,305000,902692,
-1984,6380,15340,-992,883,-474,14000,12000,305000,902694,
-2124,6448,15456,-1117,767,-499,14000,12000,305000,902697,
-2116,6444,15552,-923,489,-381,14000,12000,305000,902709,
-2248,6480,15344,-1017,412,-403,14000,12000,305000,902712,
-2284,6504,15488,-874,400,-367,14000,12000,305000,902714,
-1792,6500,15364,-894,135,-342,14000,12000,305000,902726,
-1824,6488,15288,-795,115,-362,14000,12000,305000,902729,
-1812,6328,15388,-876,42,-362,14000,12000,305000,902731,
-1824,6244,15376,-723,111,-409,14000,12000,305000,902744,
-1836,6264,15340,-696,167,-389,14000,12000,305000,902746,
-1708,6256,15344,-632,211,-411,14000,12000,305000,902748,
-1364,6324,15360,-460,495,-362,14000,12000,305000,902761,
-1532,6228,15436,-479,526,-374,14000,12000,305000,902763,
-1628,6324,15540,-427,642,-341,14000,12000,305000,902765,
-1584,6192,15420,-331,924,-478,14000,12000,305000,902778,
-1572,6232,15380,-199,1083,-459,14000,12000,305000,902780,
-1724,6044,15280,-266,1062,-508,14000,12000,305000,902782,
-1844,6012,15188,-33,1434,-527,14000,12000,305000,902795,
-1944,5904,15280,-155,1401,-536,14000,12000,305000,902797,
-1852,5968,15236,-14,1521,-557,14000,12000,305000,902800,
-2064,6064,15148,29,1503,-631,14000,12000,305000,902812,
-2104,6036,15200,195,1554,-621,14000,12000,305000,902814,
-2320,6048,15220,91,1496,-628,14000,12000,305000,902817,
-2496,6224,15016,310,1468,-626,14000,12000,305000,902829,
-2328,6380,15008,136,1351,-663,14000,12000,305000,902831,
-2448,6352,14992,266,1378,-630,14000,12000,305000,902834,
-2616,6472,14668,49,1041,-681,14000,12000,305000,902846,
-2812,6400,14588,116,991,-707,14000,12000,305000,902849,
-2812,6420,14660,3,907,-704,14000,12000,305000,902851,
-2936,6160,14616,-64,636,-748,14000,13000,305000,902863,
-2892,6116,14676,-80,574,-680,14000,13000,305000,902866,
-2956,6060,14716,-82,566,-667,14000,13000,305000,902868,
-2744,6172,14580,-116,586,-501,14000,13000,305000,902880,
-2720,6196,14812,-234,587,-535,14000,13000,305000,902883,
