Ax,Ay,Az,Gx,Gy,Gz,Roll,Pitch,Yaw,Timestamp,Target
-4268,-3144,15736,-315,-130,-157,-19000,14000,251000,678448,
-4156,-3184,15720,-352,-124,-88,-19000,14000,251000,678450,
-4188,-3104,15700,-275,-175,-114,-19000,14000,251000,678452,
-3828,-2840,15892,-227,-291,-13,-19000,14000,251000,678465,
-4156,-2788,16016,-330,-366,-47,-19000,14000,251000,678467,
-3940,-2760,15876,-229,-283,5,-19000,14000,251000,678469,
-3820,-3036,15708,-347,-233,-17,-19000,14000,251000,678482,
-3768,-2956,15636,-165,-136,-22,-19000,14000,251000,678484,
-3756,-2992,15696,-299,-145,-36,-19000,14000,251000,678486,
-3472,-2692,15540,-56,226,-28,-19000,14000,251000,678499,
-3500,-2744,15332,-133,243,17,-19000,14000,251000,678501,
-3424,-2644,15352,-37,307,-16,-18000,14000,251000,678504,
-3980,-2832,15184,-51,367,-56,-18000,14000,251000,678516,
-4128,-2896,15360,-131,261,-103,-18000,14000,251000,678518,
-4128,-2848,15236,-39,256,-68,-18000,14000,251000,678521,
-3932,-2644,15368,-202,-86,-112,-18000,14000,251000,678533,
-3840,-2676,15312,-80,-105,-108,-18000,14000,251000,678535,
-4028,-2720,15344,-224,-179,-123,-18000,14000,251000,678538,
-4108,-2724,15232,-291,-501,-73,-18000,14000,251000,678550,
-4148,-2768,15220,-403,-575,-26,-18000,14000,251000,678552,
-4092,-2700,15404,-342,-567,-38,-18000,14000,251000,678555,
-3600,-2652,15440,-478,-573,-87,-18000,14000,251000,678567,
-3680,-2700,15372,-578,-582,-144,-18000,14000,251000,678570,
-3768,-2720,15392,-518,-538,-113,-18000,14000,251000,678572,
-3484,-2784,15236,-693,-303,-165,-18000,14000,251000,678584,
-3476,-2856,15264,-551,-183,-138,-18000,14000,251000,678587,
-3420,-2696,15400,-716,-168,-166,-18000,14000,251000,678589,
-3360,-2720,15244,-642,268,-268,-18000,14000,251000,678601,
-3444,-2804,15356,-721,308,-303,-18000,14000,251000,678604,
-3552,-2868,15500,-614,436,-334,-18000,14000,251000,678606,
-3828,-3124,15288,-676,499,-406,-18000,14000,251000,678618,
-3844,-3116,15424,-669,437,-444,-18000,14000,251000,678620,
-3856,-3168,15392,-682,450,-415,-18000,14000,251000,678623,
-4056,-2912,15536,-721,225,-374,-18000,14000,251000,678635,
-4040,-2864,15508,-627,240,-369,-18000,14000,251000,678638,
-4128,-3032,15324,-734,145,-381,-18000,14000,251000,678640,
-4120,-3044,15500,-642,77,-295,-18000,14000,251000,678652,
-4012,-3016,15552,-799,52,-269,-18000,14000,251000,678655,
-3920,-2980,15672,-641,111,-255,-18000,14000,251000,678657,
-3592,-2804,15976,-766,328,-166,-19000,14000,251000,678669,
-3680,-2856,15972,-710,379,-237,-19000,14000,251000,678672,
-3528,-2812,16064,-760,433,-168,-19000,14000,251000,678674,
-3884,-3020,15948,-678,660,-206,-19000,14000,251000,678686,
-3820,-3020,15792,-561,746,-170,-19000,14000,251000,678689,
-3940,-3120,15888,-617,710,-202,-19000,14000,251000,678691,
-4004,-2956,15688,-310,673,-151,-19000,14000,251000,678703,
-4060,-3020,15644,-462,566,-168,-19000,14000,251000,678706,
-4072,-2672,15736,-331,312,-87,-19000,14000,251000,678718,
-4040,-2676,15508,-387,244,-50,-19000,14000,251000,678720,
-4024,-2632,15692,-319,175,-74,-19000,14000,251000,678723,
-3652,-2460,15936,-468,-82,-76,-18000,14000,251000,678735,
-3712,-2508,16004,-538,-131,-168,-18000,14000,251000,678737,
-3628,-2428,16024,-538,-101,-162,-18000,14000,251000,678739,
-3544,-2840,15792,-669,23,-333,-18000,14000,251000,678752,
-3456,-2788,15864,-542,96,-336,-18000,14000,251000,678754,
-3492,-2816,15764,-686,101,-424,-19000,14000,251000,678757,
-3516,-2996,15852,-574,425,-604,-19000,14000,251000,678769,
-3468,-3000,15676,-692,439,-629,-19000,14000,250000,678771,
-3472,-2920,15776,-569,538,-660,-19000,14000,250000,678774,
-3400,-2896,15648,-698,922,-722,-19000,14000,250000,678786,
-3376,-2864,15760,-607,1017,-763,-19000,14000,250000,678788,
-3672,-2792,15824,-724,1025,-763,-19000,14000,250000,678791,
-4012,-2804,15836,-729,1093,-819,-19000,14000,250000,678803,
-4008,-2896,15864,-715,1092,-756,-19000,14000,250000,678806,
-4084,-2940,15852,-750,1041,-819,-19000,14000,250000,678808,
-4328,-3080,15712,-745,719,-737,-19000,14000,250000,678820,
-4556,-3132,15856,-854,500,-753,-19000,14000,250000,678823,
-4392,-3160,15860,-772,447,-712,-19000,14000,250000,678825,
-4544,-3276,15772,-824,-143,-602,-19000,14000,250000,678837,
-4536,-3208,15664,-686,-146,-529,-19000,14000,250000,678840,
-4720,-3380,15564,-810,-324,-467,-19000,14000,250000,678842,
-4512,-3392,15684,-597,-612,-218,-19000,14000,250000,678854,
-4484,-3228,15644,-702,-651,-180,-19000,14000,250000,678857,
-4372,-3292,15624,-531,-625,-125,-19000,14000,250000,678859,
-4304,-3128,15700,-517,-674,103,-19000,14000,250000,678872,
-4232,-3108,15708,-402,-642,133,-19000,14000,250000,678874,
-4072,-3012,15780,-470,-660,194,-19000,14000,250000,678876,
-3804,-2848,15676,-313,-345,241,-19000,14000,250000,678889,
-3680,-2856,15724,-253,-223,323,-19000,14000,250000,678891,
-3772,-2908,15636,-220,-215,311,-19000,14000,250000,678893,
-3824,-3044,15488,-1,128,390,-19000,14000,250000,678906,
-3908,-2968,15256,-140,109,383,-19000,14000,250000,678908,
-3836,-3020,15432,9,226,385,-19000,14000,250000,678910,
-3808,-2812,15144,-81,302,291,-19000,14000,250000,678923,
-3800,-2832,15232,5,348,269,-19000,14000,250000,678925,
-3900,-2820,15332,-57,306,278,-19000,14000,250000,678927,
-4044,-2848,15232,-181,171,238,-19000,14000,250000,678940,
-4156,-2904,15032,-172,163,276,-19000,14000,250000,678942,
-4028,-2936,15200,-238,53,246,-19000,14000,250000,678944,
-3876,-2696,15196,-294,-169,266,-18000,14000,250000,678957,
-3940,-2624,15272,-457,-302,256,-18000,14000,250000,678959,
-3936,-2516,15296,-381,-277,263,-18000,14000,250000,678962,
-3948,-2628,15480,-691,-486,182,-18000,14000,250000,678974,
-3828,-2648,15448,-616,-509,116,-18000,14000,250000,678976,
-3684,-2660,15484,-738,-528,114,-18000,14000,251000,678979,
-3204,-2744,15528,-775,-361,-82,-18000,14000,251000,678991,
-3240,-2768,15468,-731,-255,-58,-18000,14000,251000,678994,
-3192,-2692,15544,-782,-208,-149,-18000,14000,251000,678996,
-3416,-2596,15640,-647,202,-205,-18000,14000,251000,679008,
-3344,-2668,15752,-790,186,-251,-19000,14000,251000,679011,
-3544,-2480,15712,-682,299,-243,-19000,14000,251000,679013,
-3180,-2368,16200,-827,223,-450,-19000,14000,250000,679025,
-3220,-2200,16140,-694,279,-499,-19000,14000,250000,679028,
-3016,-2232,16128,-842,234,-577,-19000,14000,250000,679030,
-3084,-2292,16476,-803,257,-831,-19000,14000,250000,679042,
-3140,-2300,16468,-847,246,-828,-19000,14000,250000,679045,
-3484,-2380,16436,-785,200,-912,-19000,14000,250000,679047,
-3972,-2940,16432,-760,-48,-879,-19000,14000,250000,679059,
-3860,-2992,16408,-876,-191,-940,-19000,14000,250000,679062,
-3804,-2988,16364,-726,-155,-963,-19000,14000,250000,679064,
-3852,-3220,16276,-767,-275,-1185,-19000,14000,250000,679077,
-3972,-3352,16340,-606,-200,-1168,-19000,14000,250000,679079,
-3956,-3412,16404,-722,-214,-1114,-19000,14000,250000,679081,
-3988,-3500,16356,-464,202,-788,-19000,14000,250000,679094,
-3936,-3468,16196,-486,295,-709,-19000,14000,250000,679096,
-4368,-3596,15940,-315,537,-434,-19000,14000,250000,679108,
-4360,-3512,15876,-168,634,-338,-19000,14000,250000,679111,
-4572,-3704,15824,-279,591,-331,-19000,14000,250000,679113,
-4660,-3796,15584,31,590,-26,-19000,14000,250000,679125,
-4744,-3744,15356,-89,519,-4,-19000,14000,250000,679128,
-4656,-3668,15340,88,512,80,-19000,14000,250000,679130,
-4464,-3516,15316,36,227,325,-19000,14000,250000,679142,
-4360,-3468,15464,143,238,351,-19000,14000,250000,679145,
-4568,-3392,15412,25,117,421,-19000,14000,250000,679147,
-4460,-3188,15308,42,-174,546,-19000,14000,250000,679159,
-4420,-3108,15404,65,-189,604,-19000,14000,250000,679162,
-4324,-3020,15340,40,-308,567,-19000,14000,250000,679164,
-4048,-2900,15176,69,-490,591,-18000,14000,250000,679176,
-3956,-2764,15116,-84,-573,572,-18000,14000,250000,679178,
-3948,-2876,14940,8,-530,584,-18000,14000,250000,679181,
-3808,-2900,14908,-202,-540,568,-18000,14000,250000,679193,
-3876,-2916,14936,-71,-453,555,-18000,14000,250000,679196,
-3584,-2936,14728,-224,-479,543,-18000,14000,250000,679198,
-3352,-2560,14872,-236,-209,438,-18000,14000,250000,679210,
-3456,-2612,14912,-384,-173,436,-18000,14000,250000,679213,
-3160,-2600,15052,-288,-112,418,-18000,14000,250000,679215,
-3332,-2580,15088,-532,237,262,-18000,14000,250000,679227,
-3188,-2480,15096,-487,310,194,-18000,14000,250000,679230,
-3276,-2636,15168,-586,347,181,-18000,14000,250000,679232,
-3300,-2720,15120,-709,537,-17,-18000,14000,250000,679244,
-3280,-2708,15168,-661,580,-26,-18000,14000,250000,679247,
-3260,-2752,14980,-729,547,-87,-18000,14000,250000,679249,
-3636,-2568,15252,-741,506,-271,-18000,14000,250000,679261,
-3656,-2552,15140,-913,368,-299,-18000,14000,250000,679264,
-3812,-2520,15196,-807,414,-298,-18000,14000,250000,679266,
-3660,-2536,15540,-1106,162,-414,-18000,14000,250000,679278,
-3584,-2608,15444,-1092,107,-459,-18000,14000,250000,679281,
-3504,-2680,15520,-1137,67,-471,-18000,14000,250000,679283,
-3480,-2612,15696,-1229,-47,-567,-18000,14000,250000,679295,
-3528,-2804,15840,-1162,19,-512,-19000,14000,250000,679298,
-3488,-2744,15680,-1209,-18,-558,-19000,14000,250000,679300,
-3672,-3072,15776,-1020,167,-595,-19000,14000,250000,679313,
-3500,-2992,15788,-1146,155,-619,-19000,14000,250000,679315,
-3584,-3020,15616,-1001,237,-593,-19000,14000,250000,679317,
-3536,-2900,15712,-1040,466,-581,-19000,14000,250000,679330,
-3772,-3060,15804,-915,577,-609,-19000,14000,250000,679332,
-3740,-3020,15884,-1018,592,-604,-19000,14000,250000,679334,
-3696,-3116,16000,-881,872,-575,-19000,14000,250000,679347,
-3672,-3088,15872,-789,932,-499,-19000,14000,250000,679349,
-3896,-3164,15764,-818,875,-544,-19000,14000,250000,679351,
-4244,-2936,15760,-598,738,-357,-19000,14000,250000,679364,
-4116,-3052,15888,-751,618,-344,-19000,14000,250000,679366,
-4180,-2868,16052,-617,596,-278,-19000,14000,250000,679368,
-4284,-3028,15976,-695,49,-141,-19000,14000,250000,679381,
-4312,-2920,16000,-547,-21,-104,-19000,14000,250000,679383,
-4428,-3008,15964,-684,-196,-117,-19000,14000,250000,679385,
-4052,-3012,15896,-575,-608,-30,-19000,14000,250000,679398,
-4000,-3076,15896,-529,-618,34,-19000,14000,250000,679400,
-3896,-3056,15960,-496,-633,-6,-19000,14000,250000,679402,
-3532,-3220,15656,-271,-351,64,-19000,14000,250000,679415,
-3444,-3208,15572,-370,-348,46,-19000,14000,250000,679417,
-3568,-3060,15704,-203,-158,53,-19000,14000,250000,679419,
-3488,-3112,15596,-217,393,21,-19000,14000,250000,679432,
-3264,-3044,15552,-122,556,-1,-19000,14000,250000,679434,
-3416,-3116,15608,-200,607,63,-19000,14000,250000,679436,
-3824,-3260,15176,-135,956,74,-19000,14000,250000,679449,
-4068,-3284,15120,-119,1000,144,-19000,14000,250000,679451,
-3980,-3168,15292,-121,939,70,-19000,14000,250000,679453,
-3896,-2532,15388,-278,536,136,-19000,14000,250000,679466,
-4024,-2600,15380,-437,389,58,-19000,14000,250000,679468,
-3840,-2528,15620,-373,375,67,-19000,14000,250000,679470,
-4232,-3148,15432,-675,-228,-22,-19000,14000,250000,679483,
-4320,-3036,15464,-586,-289,-21,-19000,14000,250000,679485,
-4108,-3072,15284,-742,-419,-3,-19000,14000,250000,679488,
-3524,-2988,15140,-737,-732,-184,-19000,14000,250000,679500,
-3448,-2992,15264,-784,-729,-229,-19000,14000,250000,679502,
-3428,-2924,15332,-731,-670,-260,-19000,14000,250000,679505,
-3588,-3120,15184,-760,-257,-286,-19000,14000,250000,679517,
-3596,-3184,15100,-806,-210,-327,-19000,14000,250000,679519,
-3548,-3160,15088,-751,-58,-286,-19000,14000,250000,679522,
-2856,-2984,15156,-759,540,-396,-19000,14000,250000,679534,
-2876,-2900,15276,-615,765,-396,-19000,14000,250000,679536,
-2856,-2856,15148,-721,820,-414,-19000,14000,250000,679539,
-3468,-2920,14928,-659,1540,-429,-19000,14000,250000,679551,
-3548,-2928,14948,-706,1552,-379,-19000,14000,250000,679554,
-3732,-3012,14868,-641,1570,-417,-19000,14000,250000,679556,
-4068,-2844,14828,-772,1128,-381,-19000,14000,250000,679568,
-4040,-2756,14784,-835,977,-468,-19000,14000,250000,679571,
-4232,-2868,15028,-909,317,-470,-19000,14000,250000,679583,
-4248,-2828,14952,-1064,110,-518,-19000,14000,250000,679586,
-4224,-3036,14896,-970,30,-473,-19000,14000,250000,679588,
-4200,-3144,14712,-1235,-613,-349,-19000,14000,250000,679600,
-4156,-3156,14700,-1199,-649,-345,-19000,14000,250000,679603,
-3896,-3160,14768,-1287,-702,-293,-19000,14000,250000,679605,
-3596,-3064,14988,-1336,-600,-391,-19000,14000,250000,679617,
-3636,-3060,14856,-1386,-500,-358,-19000,14000,250000,679620,
-3552,-3068,14980,-1315,-366,-425,-19000,14000,250000,679622,
-3092,-3024,15128,-1358,569,-363,-19000,14000,250000,679634,
-3196,-2880,15124,-1458,711,-412,-19000,14000,250000,679637,
-3160,-2980,15032,-1346,941,-374,-19000,14000,250000,679639,
-3584,-2984,15088,-1459,1613,-423,-19000,14000,250000,679651,
-3924,-2920,15080,-1314,1730,-428,-19000,14000,250000,679654,
-4248,-3004,15528,-1399,1666,-209,-20000,15000,250000,679666,
-4616,-2904,15400,-1412,1440,-181,-20000,15000,250000,679668,
-4492,-3044,15516,-1406,1197,-105,-20000,15000,250000,679671,
-5184,-2852,15904,-1572,-60,-287,-20000,15000,250000,679683,
-5380,-3152,15916,-1465,-289,-398,-20000,15000,250000,679686,
-5284,-3100,15888,-1558,-609,-485,-20000,15000,250000,679688,
-4908,-3340,16024,-1505,-1591,-362,-20000,14000,250000,679700,
-4724,-3276,15908,-1570,-1672,-281,-20000,14000,250000,679703,
-4432,-3276,15860,-1478,-1686,-265,-20000,14000,250000,679705,
-3736,-3344,15672,-1378,-1255,-216,-20000,14000,250000,679717,
-3600,-3348,15708,-1386,-1124,-268,-20000,14000,250000,679720,
-3440,-3372,15968,-1104,-17,-79,-20000,14000,250000,679732,
-3656,-3420,15944,-1205,78,-67,-20000,14000,250000,679734,
-3508,-3332,15936,-1054,302,18,-20000,14000,250000,679737,
-3852,-3204,16048,-1041,802,21,-20000,14000,250000,679749,
-3916,-3240,15988,-884,866,27,-20000,14000,250000,679751,
-4188,-3120,15976,-1043,789,16,-20000,14000,250000,679754,
-4488,-3144,16240,-990,381,-54,-20000,14000,250000,679766,
-4504,-3188,16172,-1017,302,-11,-20000,14000,250000,679768,
-4508,-3168,16256,-1001,167,-58,-20000,14000,250000,679771,
-4356,-3284,16084,-973,-485,-55,-20000,14000,250000,679783,
-4456,-3304,16240,-1079,-622,-155,-20000,14000,250000,679785,
-4444,-3276,16236,-957,-626,-101,-20000,14000,250000,679788,
-4212,-3392,16136,-1038,-838,-156,-20000,14000,250000,679800,
-4068,-3484,16292,-908,-773,-182,-20000,14000,250000,679802,
-3828,-3492,16220,-1041,-764,-166,-20000,14000,250000,679805,
-3604,-3496,16252,-827,-265,-129,-20000,14000,250000,679817,
-3664,-3556,16124,-839,-152,-58,-20000,14000,250000,679819,
-3644,-3416,16144,-729,-43,-84,-20000,14000,250000,679822,
-3976,-3552,15952,-584,577,106,-20000,14000,250000,679834,
-3900,-3492,16040,-579,611,109,-20000,14000,250000,679836,
-3948,-3488,16036,-553,675,148,-20000,14000,250000,679839,
-4084,-3416,16032,-520,644,140,-20000,14000,250000,679851,
-4116,-3372,16012,-360,658,197,-20000,14000,250000,679854,
-4068,-3416,16120,-483,528,162,-20000,14000,250000,679856,
-4200,-3452,16220,-335,273,196,-20000,14000,250000,679868,
-4248,-3588,16164,-464,124,194,-20000,14000,250000,679871,
-4264,-3612,16064,-309,143,182,-20000,14000,250000,679873,
-4004,-3588,15812,-406,-301,234,-20000,14000,250000,679885,
-3924,-3536,15600,-355,-328,218,-20000,14000,250000,679888,
-3800,-3464,15612,-407,-385,252,-20000,14000,250000,679890,
-3852,-3456,15352,-378,-492,227,-20000,14000,250000,679902,
-3960,-3484,15460,-316,-436,289,-20000,14000,250000,679905,
-3868,-3460,15480,-406,-488,253,-20000,14000,250000,679907,
-3508,-3508,15340,-246,-261,331,-20000,14000,250000,679920,
-3448,-3420,15300,-412,-252,362,-20000,14000,250000,679922,
-3420,-3536,15280,-271,-162,372,-20000,14000,250000,679924,
-3544,-3376,15016,-364,-40,422,-20000,14000,250000,679937,
-3516,-3196,15024,-318,-64,360,-20000,14000,250000,679939,
-3420,-3224,15228,-386,-77,400,-20000,14000,250000,679941,
-3304,-3104,15020,-513,-110,233,-20000,14000,250000,679954,
-3396,-3032,15084,-491,-78,209,-20000,14000,250000,679956,
-3552,-3240,14844,-519,-136,138,-20000,14000,250000,679958,
-3628,-3448,14676,-529,-270,24,-20000,14000,250000,679970,
-3544,-3416,14644,-654,-383,-51,-20000,14000,250000,679973,
-3528,-3408,14616,-540,-361,-39,-20000,14000,250000,679975,
-3616,-3320,14380,-805,-587,-155,-20000,14000,250000,679987,
-3576,-3324,14288,-718,-574,-136,-20000,14000,250000,679990,
-3524,-3200,14460,-879,-634,-118,-20000,14000,250000,679992,
-3300,-3336,14352,-924,-680,-189,-20000,14000,250000,680004,
-3456,-3408,14372,-988,-647,-117,-20000,14000,250000,680007,
-3816,-3592,14020,-1178,-768,-99,-20000,14000,250000,680019,
-3868,-3540,13904,-1123,-732,-60,-20000,14000,250000,680021,
-3872,-3600,13792,-1251,-850,-97,-20000,14000,250000,680024,
-3720,-3708,13520,-1272,-997,-32,-20000,14000,250000,680036,
-3800,-3688,13532,-1420,-1084,-42,-20000,14000,250000,680038,
-3900,-3744,13376,-1327,-1047,-1,-20000,14000,250000,680041,
-3952,-3916,13236,-1593,-1265,130,-20000,14000,250000,680053,
-3960,-3956,13300,-1459,-1247,188,-20000,14000,250000,680055,
-2920,-3652,14772,-3189,-2243,844,-22000,12000,252000,680143,
-2984,-3616,14872,-3204,-2306,765,-22000,12000,252000,680145,
-3040,-3576,14856,-3228,-2263,755,-22000,12000,252000,680147,
-2944,-3576,15860,-3388,-2048,789,-22000,12000,252000,680160,
-2912,-3476,15752,-3293,-1981,858,-22000,12000,252000,680162,
-2840,-3552,16168,-3426,-1993,802,-22000,12000,252000,680164,
-2820,-3668,16300,-3350,-1889,574,-23000,12000,252000,680177,
-2980,-3604,16452,-3490,-1953,521,-23000,12000,252000,680179,
-2988,-3528,16596,-3366,-1961,466,-23000,12000,252000,680181,
-3104,-3572,17724,-3598,-2361,229,-23000,12000,252000,680194,
-3052,-3652,18088,-3605,-2387,135,-23000,12000,252000,680196,
-3260,-3876,18360,-3639,-2383,129,-23000,11000,252000,680199,
-3012,-4492,19148,-3563,-2313,-27,-23000,11000,252000,680211,
-2904,-4472,19284,-3394,-2214,4,-23000,11000,252000,680213,
-2904,-4384,19680,-3161,-1888,-80,-24000,11000,252000,680226,
-2744,-4256,19788,-2955,-1765,-121,-24000,11000,252000,680228,
-2932,-4336,19800,-2993,-1736,-136,-24000,11000,252000,680230,
-3340,-3880,20768,-2616,-1440,-189,-24000,11000,253000,680243,
-3356,-3784,21064,-2522,-1383,-201,-24000,11000,253000,680245,
-3184,-3776,21380,-2449,-1390,-302,-24000,11000,253000,680248,
-3184,-4132,22228,-1928,-1232,-662,-24000,11000,253000,680260,
-3136,-4152,22436,-1860,-1261,-775,-24000,11000,253000,680263,
-3252,-4304,22372,-1655,-1207,-857,-24000,11000,253000,680266,
-3468,-4528,22400,-1116,-1067,-1068,-24000,10000,253000,680278,
-3528,-4464,22336,-1001,-1089,-1177,-24000,10000,253000,680281,
-3740,-4464,22356,-824,-1050,-1156,-24000,10000,253000,680283,
-3720,-4476,23464,-285,-1121,-1505,-24000,10000,252000,680296,
-3572,-4480,23532,-24,-1008,-1561,-24000,10000,252000,680298,
-3652,-4784,24724,609,-797,-1828,-24000,10000,252000,680310,
-3660,-4660,25024,835,-736,-1815,-24000,10000,252000,680313,
-3664,-4620,25052,898,-757,-1802,-24000,10000,252000,680315,
-3984,-4236,26228,1643,-919,-1626,-24000,10000,252000,680328,
-3912,-4272,26280,1849,-950,-1571,-24000,10000,252000,680330,
-4052,-4232,26552,1905,-1077,-1611,-23000,10000,252000,680332,
-4488,-4372,27528,2789,-1539,-1773,-23000,10000,252000,680345,
-4468,-4348,27748,2791,-1724,-1819,-23000,9000,252000,680347,
-4396,-4408,27880,3078,-1765,-1811,-23000,9000,252000,680349,
-4240,-5008,28912,3927,-2350,-1897,-23000,9000,252000,680362,
-4340,-5284,29144,4306,-2455,-1906,-22000,9000,252000,680364,
-5416,-5740,29908,5612,-3341,-1766,-22000,9000,252000,680377,
-5296,-5864,30196,5922,-3457,-1789,-22000,9000,252000,680379,
-5276,-5892,30332,6171,-3515,-1710,-22000,9000,252000,680381,
-4928,-6808,30596,7962,-3570,-1612,-21000,8000,252000,680394,
-5084,-6816,30432,8403,-3422,-1432,-21000,8000,252000,680396,
-5284,-7136,30548,8669,-3352,-1340,-21000,8000,252000,680398,
-4864,-6916,30684,10791,-2539,-343,-19000,8000,252000,680411,
-4800,-6768,30780,11019,-2429,-172,-19000,8000,252000,680413,
-4696,-6672,30964,11524,-2210,39,-19000,8000,252000,680415,
-4472,-7188,30876,13382,-1021,827,-18000,8000,252000,680428,
-4636,-7204,31132,13798,-903,909,-17000,8000,252000,680430,
-4940,-7404,31064,14093,-752,1133,-17000,8000,252000,680432,
-5176,-7380,30692,16012,-96,2181,-16000,8000,252000,680445,
-4912,-7536,30624,16461,82,2334,-15000,8000,252000,680447,
-4688,-7932,28832,18235,397,2857,-14000,8000,253000,680459,
-5064,-8072,28408,18723,366,3027,-13000,8000,253000,680462,
-5268,-8024,28288,18843,279,3244,-13000,8000,253000,680464,
-5088,-7340,26944,20240,-416,4160,-11000,8000,253000,680476,
-4936,-7184,26624,20455,-570,4198,-11000,8000,253000,680479,
-4588,-7116,26488,20708,-829,4142,-10000,8000,253000,680481,
-4172,-7160,25068,21826,-1268,4118,-8000,8000,254000,680494,
-4120,-7232,24844,21842,-1377,4152,-8000,8000,254000,680496,
-4020,-7352,24648,22167,-1346,4233,-7000,8000,254000,680498,
-3172,-8076,22460,22909,-1142,4643,-5000,8000,254000,680511,
-2904,-7996,22068,23269,-1021,4763,-5000,8000,254000,680513,
-2836,-7952,21748,23188,-940,4829,-4000,8000,255000,680515,
-1972,-6980,20676,23985,450,5046,-2000,8000,255000,680528,
-1884,-6672,20480,23998,663,5118,-2000,8000,255000,680530,
-1980,-6536,20408,24191,778,5129,-1000,8000,255000,680532,
-2608,-6148,19032,24536,959,5457,0,8000,256000,680545,
-2796,-6184,18672,24542,892,5481,1000,8000,256000,680547,
-2916,-6208,18552,24593,875,5500,1000,8000,256000,680549,
-3124,-5800,16632,24740,366,5327,3000,8000,256000,680562,
-3124,-5796,16608,24860,334,5357,4000,8000,256000,680564,
-2996,-5532,16272,24736,177,5316,4000,8000,257000,680566,
-2012,-4436,15168,24785,-317,5275,6000,8000,257000,680579,
-1896,-4328,15160,24582,-434,5252,7000,8000,257000,680581,
-1856,-4208,14940,24723,-515,5239,7000,8000,257000,680583,
-1608,-4556,14028,24403,-688,5101,10000,8000,258000,680596,
-1456,-4600,14024,24438,-655,5015,10000,8000,258000,680598,
-1268,-4620,13868,24407,-590,5018,10000,8000,258000,680600,
-692,-3588,12712,24420,-116,4715,13000,8000,258000,680613,
-720,-3392,12616,24570,96,4685,13000,8000,258000,680615,
-532,-3208,12260,24405,189,4618,13000,8000,258000,680617,
-1344,-2840,11276,24449,1218,4544,16000,8000,259000,680630,
-1260,-2928,11088,24216,1376,4666,16000,8000,259000,680632,
-1060,-2728,10616,24345,1695,4718,16000,8000,259000,680634,
-636,-2340,9988,24022,2773,4884,19000,8000,259000,680647,
-788,-2076,10032,24181,2983,4887,19000,8000,260000,680649,
-504,-1756,9792,24017,3110,4896,19000,8000,260000,680651,
-512,-1296,8764,24094,3800,5019,22000,8000,260000,680664,
-824,-1372,8608,23973,3915,5069,22000,8000,260000,680666,
-856,-1316,8372,24042,3998,5092,22000,8000,260000,680668,
-628,-1060,7392,24031,4825,5393,25000,8000,261000,680681,
-584,-964,7060,24007,4888,5379,25000,8000,261000,680683,
-352,-908,6852,24058,5114,5475,25000,8000,261000,680685,
-352,-476,5880,24126,6527,5962,28000,8000,262000,680698,
-48,-336,5532,24355,6932,6106,28000,8000,262000,680700,
-332,-296,5220,24232,7139,6192,28000,9000,262000,680702,
-436,588,3548,24446,8971,7227,31000,9000,263000,680715,
-816,832,3896,24272,8968,7441,31000,9000,264000,680717,
-796,1156,3804,24558,8869,7653,32000,9000,264000,680719,
-1076,2860,2836,24296,9038,8749,34000,9000,265000,680732,
-1488,3088,2640,24244,8968,8926,35000,9000,265000,680734,
-1640,3356,2404,24109,8897,9082,35000,9000,265000,680736,
-2316,3984,1004,23458,7859,9844,38000,10000,267000,680749,
-2224,4096,908,23196,7523,9980,38000,10000,267000,680751,
-1268,5680,-332,22232,7037,10409,39000,10000,267000,680753,
-2552,4936,-1528,22349,4736,10954,42000,9000,268000,680766,
-2352,5252,-1692,21647,3549,10867,42000,9000,268000,680768,
-1900,5080,-1404,21664,2927,10832,42000,9000,269000,680770,
-836,6292,-2252,20327,689,11031,45000,9000,270000,680783,
-900,6428,-2184,20073,157,11083,45000,8000,270000,680785,
-732,6780,-2136,19857,-416,11133,46000,8000,270000,680787,
316,8332,-2800,18403,-2334,11311,48000,7000,270000,680800,
500,8532,-2852,18225,-2517,11300,48000,7000,271000,680802,
720,8820,-3088,17825,-2868,11218,49000,7000,271000,680804,
1468,9504,-3924,15872,-3605,10682,50000,6000,271000,680817,
1640,9216,-4292,15289,-3740,10548,51000,6000,271000,680819,
1196,8988,-4580,15106,-3973,10386,51000,5000,271000,680821,
2384,10476,-6624,14127,-4141,9774,53000,4000,272000,680834,
3108,11012,-6868,13531,-4317,9534,53000,4000,272000,680836,
3180,11092,-6712,12886,-4479,9352,53000,4000,272000,680838,
3568,13252,-6552,11251,-4867,8902,55000,3000,272000,680851,
3796,13588,-6820,10893,-4814,8813,55000,3000,272000,680853,
3916,14096,-6696,10270,-4932,8629,55000,3000,272000,680855,
4284,14628,-6880,8195,-5562,7943,56000,2000,272000,680868,
4580,14636,-7080,7464,-5658,7624,57000,1000,272000,680870,
5284,14976,-6908,7171,-5585,7421,57000,1000,272000,680872,
5476,15340,-7524,5190,-5785,5976,58000,0,272000,680885,
5612,15240,-7580,4863,-5826,5767,58000,0,272000,680887,
5512,15284,-7768,4286,-5843,5594,58000,0,272000,680889,
6700,14884,-7768,2384,-5073,4136,58000,0,271000,680902,
6744,14776,-7788,2103,-4848,3843,58000,0,271000,680904,
6972,14560,-7720,1781,-4697,3455,58000,0,271000,680906,
7008,13676,-7924,146,-3077,1828,59000,0,271000,680919,
6932,13616,-8080,-312,-2839,1546,59000,0,271000,680921,
6808,13520,-7956,-503,-2458,1339,59000,-1000,271000,680923,
6964,13492,-8196,-2287,-1173,192,59000,-1000,271000,680936,
7132,13620,-8088,-2513,-847,-24,59000,-1000,271000,680938,
7180,13716,-8228,-2987,-590,-248,59000,-1000,271000,680940,
7148,13832,-7848,-4580,1049,-1329,59000,-1000,271000,680953,
7092,13644,-7664,-4856,1277,-1436,59000,-1000,271000,680955,
6764,13660,-7624,-5080,1408,-1619,59000,-1000,271000,680957,
5500,13340,-7276,-6669,1978,-2367,58000,-1000,271000,680970,
5420,13324,-7304,-7022,1995,-2524,58000,-1000,271000,680972,
5360,13284,-7404,-7259,2025,-2625,58000,-1000,271000,680974,
4920,12944,-7024,-9142,1871,-3681,58000,0,271000,680987,
4896,12796,-6848,-9308,1880,-3871,58000,0,271000,680989,
4864,12724,-6804,-9769,1701,-4135,57000,0,271000,680991,
4328,11996,-6132,-11291,1864,-5119,57000,0,271000,681004,
4272,11704,-5980,-11705,1906,-5266,56000,0,271000,681006,
3988,11332,-5632,-11887,2026,-5349,56000,0,271000,681008,
3772,10904,-5036,-13311,2429,-5654,55000,0,271000,681021,
3532,10908,-4872,-13505,2490,-5786,55000,0,271000,681023,
3616,10860,-4536,-13754,2470,-5811,55000,0,271000,681025,
2984,10736,-3732,-15098,2399,-6222,54000,1000,270000,681038,
2912,10568,-3616,-15262,2410,-6230,54000,1000,270000,681040,
2480,10328,-3284,-15595,2368,-6364,53000,1000,270000,681042,
1624,9212,-2400,-16497,2398,-6621,52000,1000,270000,681055,
1544,9092,-2248,-16757,2342,-6713,52000,1000,270000,681057,
1472,9020,-1988,-16829,2390,-6689,52000,2000,270000,681059,
1440,9000,-576,-17818,1946,-6868,50000,2000,270000,681072,
1620,9076,-432,-17695,1861,-6867,50000,2000,270000,681074,
1340,9108,32,-17995,1726,-6914,50000,2000,270000,681076,
516,9368,1140,-18868,1336,-6983,48000,3000,269000,681089,
328,9400,1388,-19094,1071,-6977,48000,3000,269000,681091,
96,9156,1524,-19155,929,-6960,47000,3000,269000,681093,
-836,7516,2972,-20606,-623,-7284,45000,4000,269000,681106,
-1348,8000,3012,-21081,-656,-7351,45000,4000,269000,681108,
-1420,7236,3164,-21342,-731,-7265,45000,4000,269000,681110,
-1360,5000,5212,-22301,-2181,-7580,43000,4000,268000,681122,
-932,4964,5356,-22426,-1783,-7546,42000,4000,268000,681125,
-636,4628,5960,-22686,-1751,-7563,42000,4000,268000,681127,
1232,3996,8224,-22489,-1148,-6878,40000,5000,267000,681140,
1196,3904,8472,-22602,-615,-6743,39000,5000,267000,681142,
1120,3604,9080,-22283,-16,-6555,39000,5000,267000,681144,
76,2584,9572,-21404,3387,-5941,36000,5000,267000,681156,
-484,2460,9600,-21192,4043,-5882,36000,5000,267000,681159,
-1072,3336,9712,-21138,4422,-5790,36000,5000,267000,681161,
-3272,2476,9376,-20564,6518,-4607,34000,6000,267000,681173,
-3376,1892,9628,-20521,6773,-4575,33000,6000,267000,681176,
-3476,2316,9936,-20610,7161,-4595,33000,7000,267000,681178,
-3544,1592,13140,-19950,7261,-4782,31000,7000,267000,681191,
-4868,1668,13772,-19455,5316,-4692,30000,8000,267000,681193,
-3256,1536,12772,-19312,4367,-5042,30000,8000,267000,681195,
-3400,1704,12352,-18793,3402,-5498,28000,8000,266000,681208,
-3544,1364,12764,-18927,3587,-5428,28000,8000,266000,681210,
-3472,1492,13428,-18721,3357,-5304,27000,9000,266000,681212,
-4216,1512,11788,-18633,2819,-4640,25000,9000,266000,681225,
-4308,1664,11640,-18577,2688,-4500,25000,9000,266000,681227,
-4776,1912,11440,-18784,2403,-4412,25000,9000,266000,681229,
-3956,3316,12184,-19676,1186,-4464,23000,10000,265000,681242,
-3568,3504,12396,-20002,882,-4644,22000,10000,265000,681244,
-2788,3488,12420,-20047,680,-4816,22000,10000,265000,681246,
-2228,2664,13316,-20946,-356,-5359,20000,10000,265000,681259,
-2184,2512,13312,-21055,-461,-5348,19000,10000,265000,681261,
-2296,2000,13812,-21950,-1477,-4658,17000,10000,264000,681273,
-2000,2092,13924,-22223,-1738,-4690,17000,10000,264000,681276,
-1968,2068,14212,-22272,-1942,-4683,16000,10000,264000,681278,
-1752,2168,15720,-23184,-2833,-5370,14000,10000,263000,681290,
-1604,1996,16056,-23139,-2852,-5498,13000,10000,263000,681293,
-1784,1668,16612,-23345,-3003,-5657,13000,10000,263000,681295,
-2096,460,17616,-23374,-2970,-5897,11000,9000,262000,681308,
-1916,260,17792,-23364,-2901,-5906,10000,9000,262000,681310,
-1812,-48,17780,-23218,-2708,-5942,10000,9000,262000,681312,
-1488,-1448,17168,-22751,-1370,-6132,7000,9000,262000,681325,
-1628,-1724,16756,-22680,-1175,-6257,7000,9000,261000,681327,
-3004,-1756,16196,-22387,-517,-5735,5000,9000,261000,681339,
-2788,-1740,16292,-22552,-461,-5700,4000,9000,261000,681342,
-2700,-1648,16400,-22419,-316,-5576,4000,9000,261000,681344,
-1368,-1784,19684,-22440,-289,-5925,2000,9000,260000,681356,
-1256,-1932,20136,-22237,-214,-5984,1000,9000,260000,681359,
-1380,-2000,20856,-22252,-253,-6062,1000,9000,260000,681361,
-2628,-1848,23144,-21548,-262,-6047,-1000,9000,259000,681374,
-2892,-1916,23324,-21366,-305,-5973,-1000,9000,259000,681376,
-2920,-1960,23320,-21266,-331,-6046,-1000,9000,259000,681378,
-4216,-3236,23236,-20313,-639,-6271,-3000,9000,258000,681391,
-4488,-3460,22976,-20209,-799,-6437,-4000,9000,258000,681393,
-4620,-3556,22768,-19957,-893,-6486,-4000,9000,258000,681395,
-3324,-2468,22868,-19079,-930,-6752,-6000,9000,258000,681408,
-2888,-2372,23084,-18789,-672,-6727,-6000,9000,257000,681410,
-1716,-2980,22432,-17927,842,-6318,-8000,9000,257000,681422,
-1860,-3432,22276,-17632,1192,-6101,-9000,9000,257000,681425,
-2428,-4060,22392,-17683,1399,-5893,-9000,9000,257000,681427,
-3776,-5804,23116,-16531,1775,-5043,-11000,9000,256000,681440,
-3776,-5928,23160,-16324,1761,-4997,-11000,9000,256000,681442,
-3884,-6116,23060,-16117,1718,-4998,-11000,9000,256000,681444,
-4704,-5768,22876,-15128,1561,-4905,-13000,9000,255000,681457,
-5032,-5652,23052,-15112,1383,-4824,-13000,9000,255000,681459,
-5024,-5236,23212,-14911,1207,-4599,-13000,9000,255000,681461,
-4036,-3996,24488,-14396,-128,-4087,-15000,9000,255000,681474,
-3640,-4072,24692,-14130,-265,-4150,-15000,9000,255000,681476,
-3288,-4316,25004,-13437,-763,-4211,-16000,9000,254000,681489,
-3636,-4496,24696,-13270,-880,-4172,-17000,9000,254000,681491,
-3932,-4560,24736,-13191,-981,-4049,-17000,9000,254000,681493,
-4148,-5020,25612,-12557,-1809,-3726,-18000,8000,254000,681506,
-4016,-5136,25712,-12302,-1862,-3744,-18000,8000,254000,681508,
-4080,-5328,25660,-12186,-1983,-3822,-18000,8000,254000,681510,
-4156,-5572,25416,-10806,-2141,-3970,-19000,8000,254000,681523,
-4076,-5640,25028,-10725,-2141,-3854,-20000,8000,254000,681525,
-3652,-6352,25012,-9169,-1412,-3043,-20000,8000,253000,681538,
-3404,-6388,24760,-8927,-1054,-2872,-21000,8000,253000,681540,
-3068,-6572,24468,-8614,-629,-2751,-21000,8000,253000,681542,
-2016,-6688,24276,-6892,1793,-1970,-21000,8000,253000,681555,
-2092,-6624,24000,-6727,2169,-1851,-22000,8000,253000,681557,
-2056,-6540,23996,-6316,2658,-1639,-22000,8000,253000,681559,
-3036,-5952,23296,-4955,4372,-548,-22000,8000,253000,681572,
-3440,-5852,22828,-4588,4595,-381,-22000,8000,253000,681574,
-3540,-5692,22652,-4580,4688,-233,-22000,8000,253000,681576,
-4852,-4956,22352,-3795,4199,211,-23000,9000,253000,681589,
-5020,-4780,22188,-3804,3766,271,-23000,9000,253000,681591,
-5364,-4932,22040,-3717,3237,294,-23000,9000,253000,681593,
-5460,-5216,22168,-3627,407,184,-23000,9000,253000,681606,
-5228,-5304,22200,-3568,-196,43,-23000,9000,253000,681608,
-4864,-5252,21980,-3485,-615,3,-23000,9000,253000,681610,
-3512,-4816,21356,-3238,-2288,-34,-23000,9000,253000,681623,
-2788,-4580,21404,-3047,-2264,98,-23000,9000,253000,681625,
-2648,-4608,21304,-3117,-2368,120,-23000,8000,253000,681627,
-1796,-4348,20776,-2614,-2007,294,-24000,8000,253000,681640,
-1760,-4588,20596,-2624,-1894,272,-24000,8000,253000,681642,
-2056,-5348,19876,-2083,-573,11,-24000,8000,253000,681655,
-2004,-5336,19896,-1901,-308,40,-24000,8000,253000,681657,
-2268,-5400,19740,-1834,-172,20,-24000,8000,253000,681659,
-2072,-5144,19064,-1052,762,112,-24000,8000,253000,681672,
-2220,-5180,18840,-1083,765,77,-24000,8000,253000,681674,
-2252,-5196,18716,-843,926,84,-24000,8000,253000,681676,
-3328,-4980,17912,-423,753,170,-24000,8000,253000,681689,
-3540,-4920,17784,-261,677,289,-24000,8000,253000,681691,
-3904,-4836,17724,-355,418,392,-24000,8000,253000,681693,
-3880,-4504,17428,-313,-1238,814,-24000,8000,253000,681706,
-3936,-4428,17560,-347,-1591,842,-24000,8000,253000,681708,
-3572,-4260,17724,-366,-1944,827,-24000,8000,253000,681710,
-1400,-4668,18376,-424,-2456,433,-24000,8000,253000,681723,
-952,-4848,18352,-491,-2442,297,-24000,8000,253000,681725,
-828,-5060,18124,-362,-2148,280,-24000,8000,253000,681727,
-340,-5740,17452,-38,184,542,-24000,8000,253000,681740,
-160,-5700,17204,201,739,615,-24000,8000,253000,681742,
-4,-5700,16964,148,1144,690,-24000,8000,253000,681744,
-1072,-4644,15092,638,3652,771,-24000,8000,253000,681757,
-1608,-4412,14732,555,3951,805,-24000,8000,253000,681759,
-2132,-4216,14612,572,4228,796,-24000,8000,253000,681762,
-2752,-4244,15112,432,4374,534,-23000,9000,253000,681774,
-2804,-4348,15180,386,4220,396,-23000,9000,253000,681776,
-2896,-4280,15140,368,4031,338,-23000,9000,253000,681779,
-3748,-4444,15488,313,2420,404,-23000,9000,253000,681791,
-3784,-4488,15364,338,2091,516,-23000,9000,253000,681793,
-3732,-4420,15536,259,1665,548,-23000,9000,253000,681795,
-3204,-3928,14972,216,-200,749,-23000,9000,253000,681808,
-2988,-3820,14880,22,-510,713,-23000,9000,253000,681810,
-2836,-3668,15188,130,-715,731,-23000,9000,253000,681812,
-2036,-3480,14788,-257,-1285,671,-23000,9000,253000,681825,
-1940,-3436,14832,-191,-1184,671,-23000,9000,253000,681827,
-1912,-3432,14932,-390,-1103,688,-23000,9000,253000,681829,
-1404,-3236,15064,-673,-334,769,-23000,9000,253000,681842,
-1372,-3264,15128,-750,-225,811,-23000,9000,253000,681844,
-1352,-3344,15268,-783,-144,772,-23000,9000,253000,681846,
-1468,-3532,15760,-925,512,303,-23000,9000,253000,681859,
-1476,-3516,15824,-980,553,152,-23000,9000,253000,681861,
-1524,-3564,15796,-963,696,142,-23000,9000,253000,681863,
-2196,-3900,15748,-1046,758,-140,-23000,9000,253000,681876,
-2452,-3972,15740,-893,792,-132,-23000,9000,253000,681878,
-2540,-4084,15680,-1042,723,-200,-23000,9000,253000,681881,
-2696,-4304,15276,-792,546,-461,-23000,9000,253000,681893,
-2596,-4188,15244,-852,478,-494,-23000,9000,253000,681895,
-2392,-4296,15320,-708,454,-522,-23000,9000,253000,681898,
-2016,-3940,15372,-647,487,-413,-23000,9000,253000,681910,
-2172,-3924,15452,-692,453,-387,-23000,9000,253000,681912,
-2132,-3924,15476,-652,519,-314,-23000,9000,253000,681915,
-2024,-4144,15952,-697,697,-136,-23000,9000,253000,681927,
-2012,-4156,15736,-558,782,-105,-23000,9000,253000,681929,
-2124,-4172,15656,-691,744,-125,-23000,9000,253000,681932,
-2604,-4596,15688,-602,647,-85,-23000,9000,253000,681944,
-2676,-4728,15584,-754,514,-28,-23000,9000,253000,681947,
-2780,-4700,15408,-643,493,-30,-23000,9000,253000,681949,
-2584,-4800,15516,-834,157,-18,-23000,9000,253000,681961,
-2344,-4648,15416,-851,146,-123,-23000,9000,253000,681964,
-2488,-4636,15424,-877,123,-100,-23000,9000,253000,681966,
-2452,-4628,15188,-1003,206,-75,-23000,9000,253000,681978,
-2376,-4640,15300,-875,310,3,-23000,9000,253000,681981,
-2236,-4624,15280,-1025,282,-23,-23000,9000,253000,681983,
-1980,-4332,15592,-894,495,-41,-23000,10000,253000,681995,
-1952,-4476,15680,-1028,420,-61,-23000,10000,253000,681998,
-2200,-4492,15692,-882,440,-70,-23000,10000,253000,682000,
-2800,-4860,15840,-967,258,-88,-24000,10000,253000,682012,
-2916,-4920,15856,-875,208,-134,-24000,10000,253000,682015,
-2780,-4944,15856,-937,92,-101,-24000,10000,253000,682017,
-2820,-4388,15768,-903,-468,-99,-24000,9000,253000,682029,
-2660,-4328,15804,-792,-475,-63,-24000,9000,253000,682032,
-2800,-4256,15760,-889,-645,-88,-24000,9000,253000,682034,
-2492,-4056,16128,-857,-726,-129,-24000,9000,253000,682046,
-2368,-4144,16316,-977,-784,-133,-24000,9000,253000,682049,
-2388,-4228,16292,-862,-726,-146,-24000,9000,253000,682051,
-1724,-4632,16372,-799,-32,-90,-24000,9000,253000,682064,
-1560,-4704,16460,-774,110,-159,-24000,9000,253000,682066,
-1520,-4756,16400,-670,328,-120,-24000,9000,253000,682068,
-1688,-4668,15820,-436,1476,-157,-24000,9000,253000,682081,
-1812,-4664,15544,-292,1656,-99,-24000,9000,253000,682083,
-2052,-4584,15520,-329,1732,-133,-24000,9000,253000,682085,
-2660,-4124,15628,-128,1901,-22,-24000,10000,253000,682098,
-2760,-4076,15832,-254,1855,-51,-24000,10000,253000,682100,
-2716,-3980,15952,-130,1856,-44,-24000,10000,253000,682102,
-2936,-4204,15980,-342,1307,-214,-24000,10000,253000,682115,
-2948,-4120,16036,-323,1179,-245,-24000,10000,253000,682117,
-3088,-4248,16060,-386,1022,-208,-24000,10000,253000,682119,
-2972,-4260,15860,-531,81,-159,-24000,10000,253000,682132,
-3100,-4224,15752,-524,-38,-122,-24000,10000,253000,682134,
-2912,-4228,15812,-516,-162,-129,-24000,10000,253000,682136,
-2356,-4256,15988,-624,269,-316,-24000,10000,253000,682149,
-2228,-4200,16016,-739,317,-429,-24000,10000,253000,682151,
-2200,-4136,16196,-643,509,-381,-24000,10000,253000,682153,
-2328,-3920,15824,-745,1318,-399,-24000,10000,253000,682166,
-2324,-4052,15860,-629,1510,-433,-24000,10000,253000,682168,
-2472,-4064,15932,-736,1572,-444,-24000,10000,253000,682171,
-3096,-4408,16076,-564,1921,-664,-24000,10000,253000,682183,
-3156,-4512,16112,-531,1963,-624,-24000,10000,253000,682185,
