Ax,Ay,Az,Gx,Gy,Gz,Roll,Pitch,Yaw,Timestamp,Target
12,-1576,16824,-376,332,123,-12000,3000,275000,359240,
-60,-1560,16624,-301,347,121,-12000,3000,275000,359242,
-348,-1628,16676,-368,430,149,-12000,3000,275000,359255,
-424,-1576,16552,-337,404,161,-12000,3000,275000,359257,
-412,-1704,16508,-377,345,196,-12000,3000,275000,359260,
-632,-1748,16648,-312,97,226,-12000,3000,275000,359272,
-528,-1804,16660,-366,58,246,-12000,3000,275000,359275,
-540,-1744,16548,-377,8,257,-12000,3000,275000,359277,
-224,-1488,16712,-404,-221,236,-12000,3000,276000,359290,
-64,-1508,16536,-390,-220,206,-12000,3000,276000,359292,
40,-1476,16516,-365,-212,231,-12000,3000,276000,359294,
-16,-1532,16668,-382,-7,228,-12000,3000,276000,359307,
4,-1464,16568,-322,-17,256,-12000,3000,276000,359309,
-64,-1540,16660,-363,17,267,-12000,3000,276000,359312,
-80,-1580,16616,-347,35,221,-12000,3000,276000,359324,
-152,-1408,16632,-378,29,266,-12000,3000,276000,359327,
-144,-1572,16652,-388,70,203,-12000,3000,276000,359329,
88,-1376,16580,-432,74,152,-12000,3000,276000,359342,
120,-1344,16732,-383,112,141,-12000,3000,276000,359344,
80,-1364,16792,-414,77,122,-12000,3000,276000,359347,
140,-1456,16800,-403,114,101,-12000,3000,276000,359349,
268,-1444,16768,-409,125,19,-12000,3000,276000,359362,
192,-1464,16796,-413,160,4,-12000,3000,276000,359364,
112,-1480,16808,-357,186,-14,-12000,3000,276000,359367,
-52,-1524,16668,-368,257,-30,-12000,3000,276000,359379,
-64,-1504,16688,-337,294,-46,-12000,3000,276000,359382,
4,-1428,16604,-326,254,-25,-12000,3000,276000,359384,
-92,-1408,16548,-323,285,-31,-12000,3000,276000,359386,
-8,-1276,16644,-340,274,-14,-12000,3000,276000,359399,
-140,-1332,16552,-378,267,-26,-12000,3000,276000,359402,
-88,-1364,16592,-378,290,-52,-12000,3000,276000,359404,
-96,-1452,16524,-390,213,-14,-12000,3000,276000,359417,
-264,-1444,16632,-417,224,-49,-12000,3000,276000,359419,
-280,-1460,16588,-402,178,-4,-12000,3000,276000,359421,
-328,-1520,16620,-476,93,31,-12000,3000,276000,359434,
-292,-1624,16588,-448,35,70,-12000,3000,276000,359437,
-304,-1600,16848,-450,28,82,-12000,3000,276000,359439,
-400,-1700,16564,-415,46,56,-12000,3000,276000,359441,
-280,-1676,16516,-411,-57,109,-12000,3000,276000,359454,
-232,-1684,16640,-395,-5,72,-12000,3000,276000,359456,
-196,-1572,16616,-384,-35,119,-12000,3000,276000,359459,
0,-1416,16700,-375,112,92,-12000,3000,276000,359471,
100,-1452,16704,-411,114,121,-12000,3000,276000,359474,
156,-1372,16768,-427,171,77,-12000,3000,276000,359476,
36,-1364,16760,-373,238,75,-12000,3000,276000,359479,
236,-1476,16768,-375,425,31,-12000,3000,276000,359491,
264,-1392,16704,-369,478,9,-12000,3000,276000,359494,
240,-1284,16708,-369,457,42,-12000,3000,276000,359496,
-244,-1284,16588,-387,533,42,-12000,3000,276000,359509,
-28,-1336,16500,-389,463,61,-12000,3000,276000,359511,
-200,-1424,16536,-401,451,94,-12000,3000,276000,359513,
-368,-1492,16588,-452,199,117,-12000,3000,276000,359526,
-384,-1472,16508,-444,192,108,-12000,3000,276000,359528,
-296,-1464,16548,-425,164,67,-12000,3000,276000,359531,
-216,-1424,16556,-412,10,90,-12000,3000,276000,359543,
-276,-1288,16364,-399,14,63,-12000,3000,276000,359546,
-60,-1320,16580,-417,-28,90,-12000,3000,276000,359548,
-240,-1280,16392,-460,-43,72,-12000,3000,276000,359551,
4,-1224,16488,-487,36,1,-12000,3000,276000,359563,
-96,-1316,16544,-517,26,18,-12000,3000,276000,359566,
-8,-1412,16524,-501,85,-13,-12000,3000,276000,359568,
-144,-1544,16760,-517,266,-56,-12000,3000,276000,359581,
-116,-1500,16644,-465,289,-27,-12000,3000,276000,359583,
-96,-1420,16540,-492,323,-14,-12000,3000,276000,359586,
-188,-1644,16736,-466,357,38,-12000,3000,276000,359598,
-240,-1600,16732,-518,352,20,-12000,3000,276000,359601,
-212,-1556,16600,-522,387,32,-12000,3000,276000,359603,
-440,-1504,16560,-535,277,49,-12000,3000,276000,359616,
-436,-1448,16560,-506,236,68,-12000,3000,276000,359618,
-440,-1476,16472,-535,175,123,-12000,3000,276000,359621,
-412,-1504,16600,-501,-18,173,-12000,3000,276000,359633,
-496,-1488,16556,-558,-41,225,-12000,3000,276000,359636,
-416,-1588,16608,-556,-8,158,-12000,3000,276000,359638,
-64,-1520,16552,-567,39,168,-12000,3000,276000,359651,
76,-1580,16652,-567,113,148,-12000,3000,276000,359653,
-28,-1548,16600,-528,91,182,-12000,3000,276000,359655,
-76,-1472,16668,-559,147,194,-12000,3000,276000,359658,
128,-1504,16708,-502,315,154,-12000,3000,276000,359670,
-48,-1552,16664,-531,361,143,-12000,3000,276000,359673,
12,-1532,16748,-518,416,112,-12000,3000,276000,359675,
-260,-1564,16640,-550,360,108,-12000,3000,276000,359688,
-188,-1512,16692,-534,375,73,-12000,3000,276000,359690,
-288,-1544,16632,-472,316,63,-12000,3000,276000,359693,
-192,-1284,16724,-538,226,12,-12000,3000,276000,359706,
-228,-1468,16752,-510,169,16,-12000,3000,276000,359708,
-92,-1484,16656,-536,161,32,-12000,3000,276000,359710,
-148,-1392,16684,-492,196,-4,-12000,3000,276000,359713,
-120,-1192,16592,-538,208,0,-12000,3000,276000,359725,
-264,-1428,16584,-509,212,-30,-12000,3000,276000,359728,
-168,-1448,16572,-520,164,12,-12000,3000,276000,359730,
-284,-1472,16748,-478,232,62,-12000,3000,276000,359743,
-268,-1552,16912,-509,209,93,-12000,3000,276000,359745,
-216,-1548,16684,-521,233,65,-12000,3000,276000,359748,
-116,-1544,16672,-497,252,83,-12000,3000,276000,359761,
-204,-1436,16616,-505,283,110,-12000,3000,276000,359763,
-84,-1496,16724,-459,262,91,-12000,3000,276000,359765,
-180,-1324,16716,-555,293,158,-12000,3000,276000,359778,
-208,-1440,16652,-531,267,159,-12000,3000,276000,359781,
-328,-1404,16812,-556,240,162,-12000,3000,276000,359783,
-268,-1684,16852,-556,79,197,-12000,3000,276000,359799,
-296,-1648,16656,-538,80,181,-12000,3000,276000,359802,
-312,-1636,16716,-517,37,191,-12000,3000,276000,359804,
-64,-1744,16628,-499,37,130,-12000,3000,276000,359817,
24,-1552,16708,-494,-22,176,-12000,3000,276000,359819,
60,-1556,16664,-534,-19,151,-12000,3000,276000,359821,
32,-1400,16896,-492,34,153,-12000,3000,276000,359824,
136,-1368,16788,-473,134,144,-12000,3000,276000,359837,
184,-1500,16836,-447,171,114,-12000,3000,276000,359839,
164,-1324,16820,-429,178,108,-12000,3000,276000,359841,
8,-1416,16816,-396,411,-26,-12000,3000,276000,359854,
-32,-1308,16636,-391,422,26,-12000,3000,276000,359856,
-20,-1392,16788,-407,423,5,-12000,3000,276000,359859,
-152,-1272,16624,-370,464,-6,-12000,3000,276000,359861,
-224,-1484,16680,-391,278,23,-12000,3000,276000,359874,
-352,-1396,16900,-366,257,-20,-12000,3000,276000,359876,
-252,-1476,16584,-361,150,13,-12000,3000,276000,359879,
4,-1552,16652,-359,140,11,-12000,3000,276000,359891,
-96,-1500,16740,-360,106,67,-12000,3000,276000,359894,
-32,-1360,16596,-419,171,68,-12000,3000,276000,359896,
24,-1344,16672,-398,220,64,-12000,3000,276000,359899,
-104,-1348,16720,-483,415,128,-12000,3000,276000,359911,
-28,-1164,16620,-498,464,124,-12000,3000,276000,359914,
-172,-1208,16708,-476,414,122,-12000,3000,276000,359916,
-292,-1524,16740,-476,402,55,-12000,3000,276000,359929,
-240,-1556,16600,-423,330,92,-12000,3000,276000,359931,
-388,-1524,16760,-469,311,85,-12000,3000,276000,359933,
-412,-1508,16680,-436,97,82,-12000,3000,276000,359946,
-384,-1460,16556,-478,54,95,-12000,3000,276000,359948,
-428,-1428,16708,-469,56,90,-12000,3000,276000,359951,
-352,-1404,16600,-468,1,105,-12000,3000,276000,359953,
-228,-1432,16600,-557,-99,102,-12000,3000,276000,359966,
-256,-1348,16604,-566,-163,88,-12000,3000,276000,359968,
-336,-1412,16732,-605,-167,139,-12000,3000,276000,359971,
-348,-1540,16744,-586,-198,177,-12000,3000,276000,359983,
-196,-1376,16884,-590,-183,163,-12000,3000,276000,359986,
-180,-1348,17028,-580,-155,175,-12000,3000,276000,359988,
-80,-1564,16780,-557,-105,164,-12000,3000,276000,360001,
24,-1516,16908,-531,-47,129,-12000,3000,276000,360003,
124,-1500,16820,-526,-59,166,-12000,3000,276000,360005,
108,-1560,16784,-439,141,76,-12000,3000,276000,360018,
24,-1520,16872,-438,111,74,-12000,3000,276000,360021,
-44,-1560,16676,-434,147,89,-12000,3000,276000,360023,
-136,-1572,16800,-439,167,45,-12000,3000,276000,360025,
-124,-1704,16724,-381,43,55,-12000,3000,276000,360038,
-208,-1660,16908,-366,77,47,-12000,3000,276000,360040,
-144,-1712,16820,-336,-9,71,-12000,3000,276000,360043,
-44,-1632,16928,-283,97,91,-12000,3000,276000,360055,
-40,-1740,16864,-249,82,131,-12000,3000,276000,360058,
120,-1388,16864,-277,125,153,-12000,3000,276000,360060,
80,-1376,16640,-274,191,131,-12000,3000,276000,360063,
140,-1400,16828,-308,393,118,-12000,3000,276000,360075,
180,-1404,16652,-297,467,87,-12000,3000,276000,360078,
56,-1328,16528,-273,437,104,-12000,3000,276000,360080,
-228,-1504,16580,-295,485,69,-12000,3000,276000,360093,
-400,-1580,16588,-311,434,71,-12000,3000,276000,360095,
-372,-1628,16612,-296,406,88,-12000,3000,276000,360098,
-340,-1604,16668,-376,37,151,-12000,3000,276000,360110,
-308,-1464,16572,-429,-19,158,-12000,3000,276000,360113,
-268,-1540,16492,-402,-22,133,-12000,3000,276000,360115,
-232,-1428,16476,-418,-124,135,-12000,3000,276000,360128,
-148,-1464,16432,-381,-131,130,-12000,3000,276000,360130,
-92,-1424,16564,-419,-138,146,-12000,3000,276000,360132,
48,-1332,16540,-453,10,130,-12000,3000,276000,360145,
60,-1400,16572,-455,19,147,-12000,3000,276000,360147,
112,-1364,16444,-480,101,144,-12000,3000,276000,360150,
76,-1460,16532,-463,119,107,-12000,3000,276000,360152,
-172,-1492,16604,-491,241,98,-12000,3000,276000,360165,
-92,-1504,16696,-438,211,126,-12000,3000,276000,360167,
-176,-1496,16648,-453,196,110,-12000,3000,276000,360170,
-124,-1576,16608,-416,114,67,-12000,3000,276000,360182,
-112,-1572,16704,-463,43,69,-12000,3000,276000,360185,
-76,-1556,16516,-443,80,48,-12000,3000,276000,360187,
-4,-1572,16448,-427,12,16,-12000,3000,276000,360190,
-32,-1300,16312,-463,42,-1,-12000,3000,276000,360202,
52,-1400,16512,-418,65,-10,-12000,3000,276000,360205,
112,-1384,16500,-449,100,6,-12000,3000,276000,360207,
-80,-1280,16464,-486,217,-20,-12000,3000,276000,360220,
-64,-1444,16412,-516,198,32,-12000,3000,276000,360222,
-28,-1448,16480,-540,242,-6,-12000,3000,276000,360225,
0,-1432,16420,-520,279,-33,-12000,3000,276000,360227,
-188,-1476,16388,-572,293,31,-12000,3000,276000,360240,
-200,-1496,16480,-550,317,10,-12000,3000,276000,360242,
-172,-1524,16488,-544,283,60,-12000,3000,276000,360244,
-272,-1608,16436,-595,234,66,-12000,3000,276000,360257,
-296,-1492,16488,-593,175,99,-12000,3000,276000,360259,
-208,-1528,16444,-593,143,112,-12000,3000,276000,360262,
-220,-1548,16496,-668,102,139,-12000,3000,276000,360278,
-264,-1420,16416,-615,58,123,-12000,3000,276000,360281,
-196,-1344,16408,-678,41,148,-12000,3000,276000,360283,
-96,-1500,16644,-662,44,126,-12000,3000,276000,360296,
-36,-1420,16552,-691,36,138,-12000,3000,276000,360298,
-132,-1380,16660,-687,60,94,-12000,3000,276000,360300,
-60,-1516,16464,-660,40,94,-12000,3000,276000,360303,
-132,-1424,16648,-700,138,121,-12000,3000,276000,360315,
-164,-1444,16580,-640,144,112,-12000,3000,276000,360318,
-8,-1356,16656,-655,142,160,-12000,3000,276000,360320,
-44,-1440,16884,-615,233,127,-12000,3000,276000,360333,
-88,-1432,16864,-661,284,155,-12000,3000,276000,360335,
8,-1464,16984,-636,319,122,-12000,3000,276000,360338,
-28,-1392,16680,-598,411,93,-12000,3000,276000,360350,
12,-1436,16712,-639,439,72,-12000,3000,276000,360353,
40,-1476,16692,-578,428,53,-12000,3000,276000,360355,
-4,-1380,16984,-621,422,69,-12000,3000,276000,360357,
-44,-1464,16700,-525,428,-40,-12000,3000,276000,360370,
-80,-1472,16816,-570,389,-1,-12000,3000,276000,360372,
-44,-1496,16824,-529,433,-37,-12000,3000,276000,360375,
-112,-1444,16892,-554,307,-48,-12000,3000,276000,360387,
-200,-1496,16816,-590,336,-47,-12000,3000,276000,360390,
-212,-1448,16984,-538,275,-83,-12000,3000,276000,360392,
-272,-1572,16640,-496,251,17,-12000,3000,276000,360405,
-244,-1564,16856,-507,211,9,-12000,3000,276000,360407,
-328,-1560,16608,-541,170,16,-12000,3000,276000,360410,
-200,-1532,16660,-518,170,22,-12000,3000,276000,360422,
-276,-1568,16732,-575,172,52,-12000,3000,276000,360425,
-164,-1464,16820,-577,210,63,-12000,3000,276000,360427,
-84,-1644,16776,-540,234,87,-12000,3000,276000,360429,
16,-1548,16780,-606,308,132,-12000,3000,276000,360442,
32,-1584,16764,-570,344,124,-12000,3000,276000,360445,
-116,-1568,16696,-583,339,143,-12000,3000,276000,360447,
-268,-1564,16860,-570,318,154,-12000,3000,276000,360460,
-224,-1704,16788,-571,299,182,-12000,3000,276000,360462,
-336,-1660,16820,-532,299,164,-12000,3000,276000,360464,
-108,-1552,16732,-513,127,142,-12000,3000,276000,360477,
-116,-1488,16768,-504,131,131,-12000,3000,276000,360480,
-48,-1464,16900,-469,91,114,-12000,3000,276000,360482,
148,-1352,16724,-492,125,54,-12000,3000,276000,360495,
244,-1364,16780,-447,124,68,-12000,3000,276000,360497,
192,-1376,16712,-503,125,30,-12000,3000,276000,360499,
268,-1400,16696,-522,196,18,-12000,3000,276000,360502,
36,-1564,16864,-439,371,20,-12000,3000,276000,360514,
32,-1520,16816,-438,392,21,-12000,3000,276000,360517,
136,-1516,16804,-376,379,-1,-12000,3000,276000,360519,
-24,-1640,16744,-452,381,-4,-12000,3000,276000,360532,
-112,-1584,16660,-411,323,12,-12000,3000,276000,360534,
-180,-1592,16604,-435,338,24,-12000,3000,276000,360537,
-228,-1548,16512,-468,333,34,-12000,3000,276000,360539,
-260,-1492,16708,-441,160,77,-12000,3000,276000,360552,
-200,-1408,16832,-457,178,56,-12000,3000,276000,360554,
-252,-1432,16736,-416,104,106,-12000,3000,276000,360556,
20,-1280,16620,-480,98,45,-12000,3000,276000,360569,
-12,-1280,16672,-467,49,56,-12000,3000,276000,360571,
92,-1336,16588,-492,68,51,-12000,3000,276000,360574,
112,-1460,16620,-492,106,-1,-12000,3000,276000,360576,
72,-1520,16520,-484,192,-36,-12000,3000,276000,360589,
-12,-1464,16784,-457,214,-74,-12000,3000,276000,360591,
36,-1568,16512,-462,174,-40,-12000,3000,276000,360594,
-36,-1588,16776,-472,274,-127,-12000,3000,276000,360607,
68,-1520,16572,-470,224,-85,-12000,3000,276000,360609,
-12,-1620,16620,-518,273,-117,-12000,3000,276000,360611,
-152,-1444,16688,-563,308,-52,-12000,3000,276000,360624,
-116,-1468,16740,-594,330,-91,-12000,3000,276000,360626,
-256,-1436,16812,-525,311,-60,-12000,3000,276000,360629,
-168,-1388,16624,-534,400,-44,-12000,3000,276000,360641,
-236,-1420,16672,-493,363,-39,-12000,3000,276000,360644,
-208,-1476,16648,-529,361,-37,-12000,3000,276000,360646,
-304,-1440,16844,-476,313,-80,-12000,3000,276000,360659,
-260,-1476,16636,-525,308,-88,-12000,3000,276000,360661,
-228,-1516,16732,-506,310,-93,-12000,3000,276000,360663,
-112,-1536,16948,-494,200,-73,-12000,3000,276000,360676,
-196,-1672,16876,-439,228,-127,-12000,3000,276000,360678,
-256,-1684,16964,-414,211,-66,-12000,3000,276000,360681,
-136,-1528,16840,-365,290,-62,-12000,3000,276000,360693,
-236,-1564,16856,-354,259,-27,-12000,3000,276000,360696,
-120,-1560,16800,-402,255,12,-12000,3000,276000,360698,
-208,-1532,16696,-366,345,38,-12000,3000,276000,360711,
-140,-1568,16648,-414,341,67,-12000,3000,276000,360713,
-240,-1520,16744,-396,364,22,-12000,3000,276000,360716,
-348,-1604,16744,-384,252,90,-12000,3000,276000,360728,
-180,-1644,16600,-372,259,65,-12000,3000,276000,360731,
-228,-1592,16716,-367,224,108,-12000,3000,276000,360733,
-268,-1508,16788,-367,163,113,-12000,3000,276000,360746,
-224,-1428,16716,-383,87,142,-12000,3000,276000,360748,
-252,-1584,16804,-410,77,138,-12000,3000,276000,360751,
28,-1396,16908,-377,144,148,-12000,3000,276000,360764,
40,-1412,16672,-396,173,109,-12000,3000,276000,360766,
28,-1360,16840,-387,204,100,-12000,3000,276000,360768,
136,-1344,16740,-404,320,133,-12000,3000,276000,360781,
80,-1400,16704,-387,330,109,-12000,3000,276000,360783,
132,-1428,16924,-383,311,105,-12000,3000,276000,360786,
-24,-1540,16860,-443,251,126,-12000,3000,276000,360799,
-88,-1540,16992,-448,197,143,-12000,3000,276000,360801,
-144,-1532,16884,-461,203,169,-12000,3000,276000,360803,
-272,-1536,16984,-447,-120,149,-12000,3000,276000,360816,
-312,-1628,16996,-470,-129,172,-12000,3000,276000,360818,
-360,-1524,17096,-438,-193,112,-12000,3000,276000,360821,
40,-1524,17496,-462,-336,152,-12000,3000,276000,360833,
80,-1444,17580,-432,-346,125,-12000,3000,276000,360836,
228,-1468,17592,-464,-305,159,-12000,3000,276000,360838,
424,-1320,18068,-371,-18,216,-12000,3000,276000,360851,
380,-1344,18272,-399,43,238,-12000,3000,276000,360853,
260,-1256,18396,-446,125,246,-12000,3000,276000,360856,
320,-1192,18588,-399,157,258,-12000,3000,276000,360858,
256,-1332,19416,-320,257,399,-12000,3000,276000,360871,
344,-1348,19704,-217,221,392,-12000,3000,276000,360873,
384,-1288,19760,-244,160,406,-12000,3000,276000,360876,
-80,-1328,20704,-10,-116,393,-12000,3000,276000,360888,
-156,-1372,20772,34,-170,407,-12000,3000,276000,360891,
-204,-1488,20904,144,-233,438,-12000,3000,276000,360893,
-148,-1552,21172,507,-854,500,-12000,3000,276000,360905,
-100,-1564,21196,623,-926,492,-12000,3000,276000,360908,
-32,-1712,21228,747,-1038,495,-12000,3000,276000,360910,
408,-1532,21772,1323,-1335,560,-11000,3000,277000,360923,
296,-1484,21804,1452,-1359,567,-11000,3000,277000,360925,
524,-1612,21988,1527,-1364,598,-11000,3000,277000,360928,
516,-1452,22236,2152,-1337,695,-11000,3000,277000,360940,
484,-1440,22168,2212,-1327,736,-11000,3000,277000,360943,
392,-1376,22232,2327,-1290,756,-11000,3000,277000,360945,
80,-1344,22184,2835,-1280,915,-11000,2000,277000,360958,
100,-1140,22144,2923,-1310,915,-11000,2000,277000,360960,
-4,-1300,22136,3089,-1393,923,-10000,2000,277000,360963,
16,-1232,21896,3521,-1706,935,-10000,2000,277000,360975,
-40,-1244,21752,3646,-1773,925,-10000,2000,277000,360978,
32,-1076,21620,3692,-1867,966,-10000,2000,277000,360980,
204,-840,21340,4129,-2234,1115,-9000,2000,277000,360993,
232,-816,21504,4158,-2289,1156,-9000,2000,277000,360995,
380,-712,21456,4210,-2326,1147,-9000,2000,277000,360998,
500,-704,21180,4566,-2486,1250,-9000,2000,277000,361010,
528,-744,21056,4608,-2467,1216,-9000,2000,277000,361013,
560,-728,21028,4715,-2543,1254,-9000,1000,277000,361015,
1144,-764,20888,4992,-2418,1229,-8000,1000,278000,361028,
1260,-876,20580,5050,-2380,1217,-8000,1000,278000,361030,
1284,-792,20612,5108,-2306,1228,-8000,1000,278000,361032,
1664,-588,20328,5432,-1691,1238,-7000,1000,278000,361045,
1736,-580,20060,5466,-1514,1246,-7000,1000,278000,361047,
1852,-388,20044,5538,-1300,1234,-7000,1000,278000,361050,
1548,-172,19788,5777,-897,1208,-6000,1000,278000,361062,
1544,-208,19660,5805,-859,1136,-6000,1000,278000,361065,
1408,-112,19628,5887,-864,1090,-6000,1000,278000,361067,
600,-220,19480,6001,-1424,975,-6000,1000,278000,361080,
448,-220,19308,6036,-1713,962,-5000,1000,278000,361082,
296,-272,19240,6006,-1999,927,-5000,1000,278000,361085,
-464,0,18900,6037,-3702,812,-5000,0,278000,361097,
-424,160,18760,5974,-3992,797,-5000,0,278000,361100,
-440,156,18580,6017,-4315,761,-5000,0,278000,361102,
-460,256,18520,6032,-4609,762,-4000,0,278000,361105,
28,476,18240,5879,-5867,636,-4000,0,278000,361117,
240,572,18084,5864,-6055,628,-4000,0,279000,361120,
380,648,17940,5807,-6203,594,-4000,0,279000,361122,
592,724,17992,5788,-6265,526,-3000,0,279000,361125,
1288,912,18128,5590,-6524,330,-3000,-1000,279000,361137,
1428,876,17980,5627,-6428,249,-3000,-1000,279000,361140,
1508,796,18028,5614,-6376,269,-3000,-1000,279000,361142,
2260,788,17480,5548,-5449,145,-2000,-1000,279000,361155,
2332,784,17468,5503,-5226,154,-2000,-1000,279000,361157,
2372,796,17420,5470,-4990,121,-2000,-2000,279000,361159,
2880,992,17480,5279,-3742,109,-1000,-2000,279000,361172,
3028,1220,17300,5251,-3454,92,-1000,-2000,279000,361174,
3080,1248,17264,5300,-3152,87,-1000,-2000,279000,361177,
3216,1716,16616,5218,-1548,-168,0,-2000,279000,361193,
3264,1724,16624,5169,-1373,-286,0,-2000,279000,361196,
3052,1768,16612,5158,-1234,-341,0,-2000,279000,361198,
3028,1668,16492,5193,-1062,-403,0,-2000,279000,361201,
2756,1932,16212,5045,-759,-778,0,-3000,279000,361213,
2516,1856,16024,5005,-759,-740,0,-3000,279000,361216,
2456,1780,16220,5007,-749,-843,0,-3000,279000,361218,
1244,1908,16056,4894,-1824,-1152,0,-3000,278000,361231,
1040,1908,16028,4916,-2063,-1227,0,-3000,278000,361233,
696,1816,15908,4966,-2345,-1344,0,-3000,278000,361236,
396,1812,15892,4815,-2718,-1436,0,-3000,278000,361238,
-668,1424,15984,4579,-5313,-1911,1000,-3000,278000,361251,
-644,1356,15960,4585,-5778,-1934,1000,-4000,278000,361253,
-568,1632,15688,4539,-6343,-2010,1000,-4000,278000,361256,
200,1740,15132,4176,-8602,-2251,2000,-4000,278000,361268,
412,1760,15148,4140,-8894,-2282,2000,-5000,278000,361271,
548,1900,15152,4108,-9149,-2288,2000,-5000,278000,361273,
1860,2264,14716,3818,-9430,-2332,2000,-6000,277000,361286,
2192,2252,14672,3804,-9340,-2350,2000,-6000,277000,361288,
2432,2368,14652,3692,-9167,-2297,2000,-6000,277000,361290,
3516,2656,14864,3513,-7740,-2297,3000,-7000,277000,361303,
3672,2552,14796,3462,-7303,-2304,3000,-7000,277000,361306,
3820,2564,14964,3424,-6850,-2308,3000,-7000,277000,361308,
4032,2268,15060,3307,-4215,-2068,3000,-8000,277000,361320,
4064,2284,14904,3309,-3662,-2016,3000,-8000,277000,361323,
4056,2088,14884,3322,-3161,-1946,3000,-8000,277000,361325,
3580,1956,15296,3373,-1092,-1833,4000,-8000,277000,361338,
3476,1752,15324,3402,-828,-1772,4000,-8000,276000,361340,
3368,1700,15200,3420,-528,-1763,4000,-8000,276000,361343,
2788,1632,15252,3642,561,-1746,4000,-8000,276000,361355,
2592,1676,15012,3694,725,-1707,4000,-8000,276000,361358,
2584,1696,15080,3743,931,-1752,5000,-8000,276000,361360,
2016,1864,14544,3965,1439,-1633,5000,-8000,276000,361373,
2032,1940,14556,4035,1497,-1627,5000,-8000,276000,361375,
1972,1860,14512,4082,1485,-1565,5000,-7000,276000,361378,
2056,2476,14456,4252,1392,-1603,6000,-7000,276000,361390,
1888,2464,14380,4241,1339,-1596,6000,-7000,276000,361393,
1944,2648,14320,4261,1294,-1607,6000,-7000,276000,361395,
1856,2844,14156,4462,917,-1693,6000,-7000,276000,361408,
1828,3004,14100,4477,867,-1725,6000,-7000,276000,361410,
1736,3012,14212,4564,714,-1836,6000,-7000,276000,361413,
1648,3188,13964,4393,-40,-2063,7000,-7000,275000,361425,
1700,3320,13904,4453,-188,-2093,7000,-7000,275000,361428,
1744,3284,13900,4338,-331,-2107,7000,-7000,275000,361430,
2152,3624,14044,4166,-938,-2093,8000,-7000,275000,361443,
2244,3656,13836,4048,-1014,-2020,8000,-7000,275000,361445,
2316,3764,13684,3968,-1063,-2022,8000,-7000,275000,361448,
2892,4056,13352,3750,-887,-1910,8000,-7000,275000,361460,
3032,3984,13380,3676,-805,-1956,8000,-7000,275000,361463,
3040,4068,13248,3680,-756,-1939,8000,-7000,275000,361465,
2828,4212,13444,3409,-681,-1780,9000,-7000,275000,361478,
2772,4324,13348,3371,-726,-1733,9000,-7000,274000,361480,
2684,4456,13420,3273,-753,-1713,9000,-7000,274000,361482,
2276,4456,13600,3131,-1110,-1598,9000,-8000,274000,361495,
2092,4368,13600,3077,-1165,-1584,9000,-8000,274000,361498,
2084,4304,13376,3036,-1290,-1605,9000,-8000,274000,361500,
1692,3872,13380,2937,-2067,-1724,10000,-8000,274000,361513,
1692,4016,13356,2898,-2212,-1770,10000,-8000,274000,361515,
1664,3908,13404,2890,-2413,-1791,10000,-8000,274000,361518,
1884,4128,13420,2750,-3306,-2057,10000,-8000,274000,361530,
2044,4140,13032,2720,-3560,-2092,10000,-8000,274000,361533,
2112,4184,13044,2666,-3640,-2123,10000,-8000,274000,361535,
2524,4624,12912,2534,-3919,-2177,11000,-9000,273000,361548,
2824,4768,12724,2446,-3850,-2170,11000,-9000,273000,361550,
2708,4708,12784,2423,-3749,-2194,11000,-9000,273000,361553,
3240,4320,12428,2281,-2878,-2123,11000,-9000,273000,361565,
3452,4304,12292,2278,-2665,-2176,11000,-9000,273000,361568,
3576,4132,12312,2263,-2500,-2100,11000,-9000,273000,361570,
3412,4624,12072,2106,-1125,-1893,12000,-9000,272000,361586,
3280,4616,11884,2043,-900,-1828,12000,-9000,272000,361589,
3204,4624,11832,2041,-678,-1766,12000,-9000,272000,361591,
3048,5016,11420,1678,630,-1390,12000,-9000,272000,361604,
2924,4996,11252,1654,761,-1369,12000,-9000,272000,361606,
2852,4968,11216,1528,965,-1310,12000,-9000,272000,361609,
2732,4916,11012,1147,1794,-1062,12000,-9000,272000,361621,
2628,4968,10764,1050,1844,-1010,12000,-9000,272000,361624,
2468,4924,10728,1023,1873,-995,12000,-9000,272000,361626,
1352,4844,10784,516,1443,-663,13000,-9000,272000,361639,
1176,4768,10592,439,1387,-648,13000,-9000,272000,361641,
940,4616,10460,355,1240,-573,13000,-9000,272000,361644,
572,4020,9848,-64,308,-357,13000,-9000,272000,361656,
460,4100,10136,-102,62,-331,13000,-9000,272000,361659,
516,4176,10204,-210,-221,-213,13000,-8000,272000,361661,
448,4032,10308,-313,-453,-179,13000,-8000,272000,361663,
1480,4504,9916,-708,-1351,254,13000,-9000,272000,361676,
1648,4672,9940,-799,-1339,283,13000,-9000,272000,361678,
2040,4840,9988,-877,-1366,295,13000,-9000,272000,361681,
2976,5412,10188,-1466,-707,463,13000,-9000,272000,361693,
3300,5384,10028,-1530,-588,473,13000,-9000,272000,361696,
3404,5664,10296,-1661,-369,534,13000,-9000,272000,361698,
3568,5756,10380,-2398,980,696,12000,-9000,272000,361711,
3420,6012,9964,-3017,846,695,12000,-9000,272000,361713,
3428,5308,10876,-2516,1353,797,12000,-9000,272000,361716,
3016,5308,11048,-3011,1928,945,12000,-9000,272000,361728,
2944,5172,11056,-2945,2009,947,12000,-9000,272000,361731,
2728,5056,11184,-2940,1985,966,12000,-9000,272000,361733,
2008,4888,11252,-3341,1811,1003,12000,-8000,272000,361746,
1976,4860,11184,-3446,1726,1053,12000,-8000,272000,361748,
1852,4892,11220,-3543,1667,1102,12000,-8000,272000,361751,
1804,5160,11596,-3949,960,1395,11000,-8000,273000,361763,
1912,5092,11596,-4090,870,1396,11000,-8000,273000,361766,
1992,5228,11692,-4163,745,1414,11000,-8000,273000,361768,
2276,5108,12392,-4595,699,1521,11000,-8000,273000,361781,
2312,5116,12508,-4658,693,1490,11000,-8000,273000,361783,
2256,4956,12312,-4735,722,1539,11000,-8000,273000,361786,
2712,4320,12972,-4758,971,1418,10000,-8000,273000,361798,
2836,4248,12888,-4823,1028,1422,10000,-8000,273000,361801,
2844,4300,12952,-4829,1130,1393,10000,-8000,273000,361803,
3420,4492,12936,-4937,1467,1359,10000,-8000,273000,361816,
3344,4488,13000,-4998,1616,1324,9000,-8000,273000,361818,
3400,4640,13076,-4991,1729,1340,9000,-8000,273000,361820,
3472,4848,13580,-5290,2400,1418,9000,-8000,273000,361833,
3472,4920,13700,-5318,2487,1470,9000,-8000,273000,361836,
3404,4856,13940,-5402,2606,1489,9000,-8000,274000,361838,
2972,4556,14680,-5539,2950,1605,8000,-8000,274000,361851,
3012,4360,14652,-5613,3028,1623,8000,-8000,274000,361853,
2848,4120,14680,-5633,3104,1585,8000,-7000,274000,361855,
2492,3676,14604,-5648,3320,1421,7000,-7000,274000,361868,
2468,3584,14520,-5663,3395,1393,7000,-7000,274000,361871,
2236,3432,14228,-5644,3425,1405,7000,-7000,274000,361873,
2356,3196,14208,-5746,3956,1432,7000,-7000,274000,361886,
2332,3220,14328,-5742,4000,1480,7000,-7000,274000,361888,
2348,3168,14296,-5744,4121,1471,7000,-7000,274000,361890,
2120,2936,15072,-5876,4659,1628,6000,-6000,274000,361903,
1900,2968,15204,-5926,4774,1674,6000,-6000,275000,361905,
1748,2964,15420,-5951,4909,1709,6000,-6000,275000,361908,
1244,2944,15836,-5927,4929,1961,5000,-6000,275000,361920,
1200,2836,15924,-5927,4920,1974,5000,-5000,275000,361923,
1204,2848,15964,-5855,4690,2010,5000,-5000,275000,361925,
1024,2576,15944,-5794,3741,1832,4000,-5000,275000,361938,
992,2588,16104,-5749,3497,1815,4000,-5000,275000,361940,
932,2472,16060,-5777,3335,1806,4000,-5000,275000,361943,
1160,2140,15880,-5567,2571,1683,4000,-5000,275000,361955,
1356,2188,15896,-5572,2497,1662,4000,-5000,275000,361958,
1444,2156,15892,-5555,2441,1625,3000,-5000,275000,361960,
2920,2484,15528,-5418,2455,1433,3000,-4000,276000,361973,
3032,2484,15544,-5404,2624,1330,3000,-4000,276000,361975,
3072,2660,15708,-5349,2746,1344,3000,-4000,276000,361977,
3412,3268,15852,-5492,4090,1309,2000,-4000,276000,361990,
3356,3320,15736,-5494,4334,1356,2000,-4000,276000,361992,
3324,3400,15912,-5527,4680,1389,2000,-4000,276000,361995,
2700,3056,16168,-5553,5851,1341,2000,-3000,276000,362008,
2596,2880,16204,-5592,5989,1270,1000,-3000,276000,362010,
2528,2664,16372,-5555,6059,1184,1000,-3000,276000,362012,
1652,1868,16596,-5446,5866,840,1000,-3000,276000,362025,
1408,1780,16656,-5391,5791,751,1000,-2000,276000,362027,
1408,1720,16488,-5399,5596,738,1000,-2000,276000,362030,
1252,1640,16220,-5295,4903,687,0,-2000,276000,362042,
1308,1676,16180,-5287,4726,720,0,-2000,276000,362045,
1396,1768,16284,-5319,4600,695,0,-2000,276000,362047,
1456,1904,16084,-5331,4457,671,0,-2000,276000,362049,
1504,1792,16120,-5349,4124,484,0,-1000,276000,362066,
1496,1936,16372,-5353,4193,453,0,-1000,276000,362068,
1548,1864,16280,-5387,4251,447,0,-1000,276000,362071,
1640,1656,16320,-5386,4829,464,0,-1000,276000,362083,
1696,1520,16500,-5376,5081,442,0,0,276000,362086,
1788,1380,16560,-5324,5144,403,-1000,0,276000,362088,
1916,1340,16684,-5332,5238,400,-1000,0,276000,362090,
2296,1132,16888,-5172,5927,155,-1000,0,276000,362103,
2284,1088,16732,-5135,6133,137,-1000,0,276000,362105,
2340,1036,16704,-5148,6356,137,-1000,0,276000,362108,
2092,1324,16588,-5179,7190,104,-2000,0,276000,362121,
2004,1360,16548,-5178,7283,90,-2000,0,276000,362123,
1736,1308,16736,-5119,7210,112,-2000,0,276000,362125,
1384,1288,16776,-5141,7162,123,-2000,1000,276000,362128,
148,1320,17020,-5295,6409,-52,-2000,1000,276000,362140,
-48,1132,17220,-5343,6149,-67,-3000,1000,276000,362143,
-208,1088,17236,-5365,5930,-124,-3000,1000,276000,362145,
-772,508,17484,-5315,4020,-327,-3000,2000,276000,362158,
-860,384,17492,-5343,3763,-424,-3000,2000,276000,362160,
-992,300,17520,-5304,3381,-523,-3000,2000,276000,362163,
-812,-48,17372,-5335,2299,-793,-4000,2000,276000,362175,
-832,28,17596,-5295,2050,-763,-4000,2000,276000,362178,
-776,108,17500,-5347,1955,-747,-4000,2000,276000,362180,
-328,428,18032,-5379,1480,-650,-4000,2000,276000,362193,
-136,424,17716,-5429,1443,-637,-5000,2000,276000,362195,
-144,436,17956,-5439,1519,-674,-5000,2000,276000,362198,
284,340,18136,-5521,1618,-821,-5000,2000,276000,362210,
240,360,18148,-5564,1631,-934,-5000,2000,276000,362213,
384,184,18312,-5507,1622,-947,-5000,2000,276000,362215,
400,-376,18048,-5507,1566,-1243,-6000,3000,276000,362228,
440,-588,18192,-5423,1484,-1239,-6000,3000,276000,362230,
300,-748,18132,-5442,1455,-1257,-6000,3000,276000,362232,
132,-908,17912,-5160,1207,-1304,-7000,3000,276000,362245,
124,-880,17756,-5141,1181,-1294,-7000,3000,276000,362248,
56,-936,17780,-5115,1175,-1330,-7000,3000,276000,362250,
-160,-584,17300,-5035,1050,-1275,-7000,3000,275000,362263,
-224,-484,17292,-5045,1083,-1271,-7000,3000,275000,362265,
-368,-408,17164,-5035,1022,-1245,-7000,3000,275000,362267,
-288,96,17204,-5269,1264,-942,-8000,3000,275000,362280,
-368,-92,17292,-5289,1222,-885,-8000,3000,275000,362282,
-400,-80,17352,-5338,1300,-875,-8000,3000,275000,362285,
-760,-580,17580,-5435,1697,-763,-8000,3000,275000,362297,
-672,-764,17516,-5487,1750,-746,-9000,3000,275000,362300,
-840,-1036,17656,-5411,1685,-775,-9000,3000,275000,362302,
-1100,-1516,18092,-5373,1169,-874,-9000,3000,275000,362315,
-1164,-1644,18072,-5288,993,-943,-9000,3000,275000,362317,
-1012,-1748,18068,-5247,754,-947,-9000,3000,275000,362320,
-916,-1976,17892,-4991,-76,-1149,-10000,3000,275000,362332,
-884,-1972,17984,-4972,-223,-1130,-10000,3000,275000,362335,
-716,-2000,18028,-4945,-302,-1120,-10000,3000,275000,362337,
-312,-1420,17664,-4911,-203,-896,-10000,3000,275000,362350,
-188,-1356,17668,-4912,-74,-843,-11000,3000,275000,362352,
-244,-1192,17640,-4888,33,-803,-11000,3000,275000,362355,
384,-896,17868,-5132,1004,-427,-11000,3000,275000,362367,
344,-916,17832,-5086,1175,-408,-11000,3000,275000,362370,
252,-956,17984,-5089,1377,-338,-11000,3000,275000,362372,
96,-1512,18296,-5071,2110,-275,-12000,3000,275000,362385,
80,-1752,18388,-5066,2202,-268,-12000,3000,275000,362387,
-160,-1876,18360,-5043,2279,-278,-12000,4000,274000,362390,
-836,-2448,18596,-4763,2222,-110,-12000,4000,274000,362402,
-968,-2344,18732,-4692,2206,-133,-12000,4000,274000,362405,
-1124,-2388,18776,-4568,2085,-92,-12000,4000,274000,362407,
-1044,-2468,19136,-4265,1066,-27,-13000,4000,274000,362420,
-1156,-2320,19104,-4227,821,20,-13000,4000,274000,362422,
-872,-2212,19212,-4317,573,36,-13000,4000,274000,362424,
-68,-2268,19652,-4005,13,-21,-13000,4000,274000,362437,
-48,-2216,19600,-3878,-3,28,-13000,4000,274000,362440,
160,-2252,19380,-3790,60,-11,-13000,4000,274000,362442,
300,-2316,19352,-3741,-12,-20,-13000,4000,274000,362444,
604,-2244,19556,-3369,421,-109,-14000,4000,274000,362457,
532,-2344,19544,-3292,487,-134,-14000,4000,274000,362459,
572,-2332,19352,-3259,591,-144,-14000,4000,274000,362462,
548,-2428,19464,-2839,1078,-297,-14000,4000,274000,362475,
